File: docs/examples/opeando_xrd/IS17_D/Data/IS17_D/17_Db_f00017.xye
# /beamlines/bl04/projects/cycle2025-II/20250340211-lsimonelli/DATA/IS17_D/17_Db_f00017.xye : mythproc.py merge -s 0.006 -l 0.5 -f /beamlines/bl04/inhouse/ff/FlatField/ff_20Nov2024rod8mm60s_17keV.raw -b True -c true -o xye /beamlines/bl04/projects/cycle2025-II/20250340211-lsimonelli/DATA/IS17_D/17_Db_00017.dat
# IsMon = [6757553, 6758036, 6760950]  IsPos = [-1.5000, -2.4885, -3.4986]
# Wave = 0.4962  CalPath /beamlines/bl04/projects/cycle2025-II/20250340211-lsimonelli/DATA/Align/Si_Pos1_25keV_f00001.cal
# Date = 2025-09-23_22:27:06 Dt = 4.8000  Bin = 0.0060  <imon> = 6758846 +/- 1501 (Min/Max) 6757553 / 6760950
# icurr 250.8206  mocoIn 1.7105E-05  mocoOut 0.8028  i15 7.07642e+06  imon 6.75885e+06  i7 4.0000  iEMpd_timer 4.8000  iEMpd_1 3.4661E-08  iEMpd_2 7.8082E-08  iEMpd_3 1.7873E-08  iEMpd_4 4.8186E-08  iEMhp_timer 4.8000  iEMhp_1 4.9006E-06  iEMhp_2 -2.4162E-08  iEMhp_3 -2.0326E-08  iEMhp_4 -2.0415E-08
#      9776
 1.5856  41786.1  209.923
 1.6276  48424.3  222.106
 1.6696  54338.4  234.448
 1.7116  61742.4  250.4
 1.7536  70570  266.562
 1.7956  74285.6  274.173
 1.8376  71093.4  268.642
 1.8796  60778.7  246.563
 1.9216  49966.9  224.451
 1.9636  42898.9  207.643
 2.0056  38778.4  196.157
 2.0476  35955.2  190.953
 2.0896  34518.1  186.001
 2.1316  33819.4  183.223
 2.1736  32218.8  180.254
 2.2156  32511.4  179.617
 2.2576  31541.2  177.55
 2.2996  30397.5  174.942
 2.3416  30682  174.356
 2.3836  29940.9  172.344
 2.4256  29094.5  170.444
 2.4676  28895.9  169.62
 2.5096  29101.9  170.279
 2.5516  36838  195.913
 2.5936  154832  393.742
 2.6356  32305.4  180.602
 2.6776  27533.5  165.627
 2.7196  26290.3  162.331
 2.7616  26147.7  161.678
 2.8036  25749.1  160.588
 2.8456  25428.4  160.227
 2.8876  24888.2  158.354
 2.9296  24703.7  157.914
 2.9716  24283  156.075
 3.0136  24003.7  155.235
 3.0556  24432.8  156.996
 3.0976  23995.2  154.516
 3.1396  23687.1  154.237
 3.1816  23362.7  153.119
 3.2236  23387  153.181
 3.2656  23190.5  151.613
 3.3076  23104.5  152.767
 3.3496  23451.8  153.066
 3.3916  23412.3  152.546
 3.4336  23976.1  154.949
 3.4756  24492.2  156.554
 3.5176  25018.3  158.009
 3.5596  24653.9  159.78
 3.6016  24911.3  157.711
 3.6436  24095.1  156.199
 3.6856  23717  153.31
 3.7276  22876.8  151.619
 3.7696  22788.7  151.306
 3.8116  22368.6  150.007
 3.8536  22483.7  150.324
 3.8956  22422  149.939
 3.9376  23171.6  152.726
 3.9796  22141.9  148.768
 4.0216  22138.5  147.821
 4.0636  22262.6  149.668
 4.1056  22185.9  149.073
 4.1476  22590.7  150.722
 4.1896  22439.9  150.091
 4.2316  22704.3  150.792
 4.2736  23218.8  152.3
 4.3156  23246  152.61
 4.3576  24007.3  154.999
 4.3996  24220.8  155.761
 4.4416  25127.5  158.443
 4.4836  26256.6  162.126
 4.5256  26232.6  162.651
 4.5676  25769.5  161.461
 4.6096  26267.9  162.05
 4.6516  26779.2  162.956
 4.6936  27000  164.441
 4.7356  27753  166.544
 4.7776  26868.1  163.699
 4.8196  26721.1  163.9
 4.8616  25948.7  161.137
 4.9036  26079.1  161.152
 4.9456  26262.8  162.367
 4.9876  25344.4  159.402
 5.0296  25270.4  159.018
 5.0716  25020.7  158.823
 5.1136  25320.2  159.635
 5.1556  25744.1  160.427
 5.1976  36061.9  189.856
 5.2396  26578.2  162.697
 5.2816  26050.9  161.544
 5.3236  26089.5  161.355
 5.3656  25663.2  160.95
 5.4076  25110.9  159.342
 5.4496  25282.8  159.394
 5.4916  25529.7  159.927
 5.5336  25177.4  158.83
 5.5756  25260.9  159.105
 5.6176  25374  158.923
 5.6596  25697.2  160.734
 5.7016  25628.1  159.956
 5.7436  25866.2  160.968
 5.7856  25496  159.881
 5.8276  25860.2  160.735
 5.8696  26209.4  161.884
 5.9116  25992.7  161.871
 5.9536  26442.8  163.05
 5.9956  26524  162.7
 6.0376  26576.8  163.465
 6.0796  26764.1  163.874
 6.1216  26625.1  163.636
 6.1636  27140.1  164.295
 6.2056  26903.3  164.238
 6.2476  27423.1  165.516
 6.2896  27419.1  165.363
 6.3316  27301.4  165.184
 6.3736  27505.6  165.693
 6.4156  27412.9  165.353
 6.4576  27891.1  166.366
 6.4996  27750.9  166.407
 6.5416  27892.9  166.966
 6.5836  28309.3  168.441
 6.6256  27936.4  166.894
 6.6676  28386.1  167.806
 6.7096  28415.2  168.74
 6.7516  28698.2  169.24
 6.7936  30272.5  172.977
 6.8356  30698.7  174.539
 6.8776  29808.6  172.775
 6.9196  29334.7  171.789
 6.9616  29845.1  172.7
 7.0036  30002.2  172.854
 7.0456  30194.5  172.717
 7.0876  30272.7  174.502
 7.1296  30177.1  173.465
 7.1716  30033  172.603
 7.2136  29700.8  171.432
 7.2556  30049  172.59
 7.2976  29909.8  172.673
 7.3396  29780.9  172.515
 7.3816  30015.9  173.401
 7.4236  30421.6  173.884
 7.4656  30524.4  173.651
 7.5076  30643.8  174.132
 7.5496  30489.7  174.217
 7.5916  30574.5  174.507
 7.6336  31531.8  177.105
 7.6756  31004.4  175.468
 7.7176  31511  177.223
 7.7596  31491.4  178.347
 7.8016  38030.4  198.4
 7.8436  31941.7  178.534
 7.8856  31960.4  178.208
 7.9276  32496.5  180.078
 7.9696  32340.8  179.952
 8.0116  33508.4  182.105
 8.0536  33910.5  183.088
 8.0956  36570.8  191.328
 8.1376  34584.7  185.543
 8.1796  34476.1  185.781
 8.2216  35497.4  187.268
 8.2636  36468.6  190.066
 8.3056  35394  187.989
 8.3476  37486.9  192.803
 8.3896  36648.8  191.147
 8.4316  35945.2  189.038
 8.4736  35598.2  187.603
 8.5156  35424.5  187.416
 8.5576  35359.3  188.197
 8.5996  34981.9  186.094
 8.6416  34960.4  187.265
 8.6836  34537.9  185.956
 8.7256  35615  188.295
 8.7676  38907.3  199.814
 8.8096  38877.6  196.961
 8.8516  36489.6  190.449
 8.8936  37980.8  194.191
 8.9356  35951.9  189.268
 8.9776  35693.9  188.647
 9.0196  35626.7  188.166
 9.0616  35914.9  188.426
 9.1036  37605.4  194
 9.1456  34557.1  185.307
 9.1876  34669  185.556
 9.2296  34126.2  183.549
 9.2716  33899.7  182.983
 9.3136  33636.4  182.269
 9.3556  34144.9  183.615
 9.3976  33075.4  181.224
 9.4396  32835.7  180.468
 9.4816  33051.1  180.925
 9.5236  32345.9  178.878
 9.5656  32297.4  179.096
 9.6076  31556.5  177.532
 9.6496  32058.6  178.827
 9.6916  31689.6  177.749
 9.7336  32038.9  178.523
 9.7756  31726.1  178.843
 9.8176  31496.2  177.749
 9.8596  31237.1  175.516
 9.9016  31042  174.947
 9.9436  30660.6  173.638
 9.9856  31215.7  175.64
 10.0276  30273.4  174.017
 10.0696  30340.3  173.262
 10.1116  29953.7  172.417
 10.1536  29748.3  171.489
 10.1956  28918.7  169.191
 10.2376  28855.6  168.529
 10.2796  28532.7  167.69
 10.3216  28496.5  167.707
 10.3636  28524.2  167.974
 10.4056  31978.9  178.271
 10.4476  32627.8  179.656
 10.4896  37237.1  191.303
 10.5316  33682.2  182.347
 10.5736  28355.1  168.059
 10.6156  28343.7  167.786
 10.6576  34792.8  184.333
 10.6996  28421.3  167.296
 10.7416  27149.5  163.717
 10.7836  27836.1  166.428
 10.8256  26183.8  161.836
 10.8676  26048.5  160.971
 10.9096  26118.3  161.214
 10.9516  25562  158.465
 10.9936  26767.8  162.371
 11.0356  26186  161.193
 11.0776  27870.8  165.622
 11.1196  27509.2  165.317
 11.1616  25565.7  159.054
 11.2036  27059.5  163.477
 11.2456  28846.8  169.537
 11.2876  25537.8  159.241
 11.3296  25295  158.396
 11.3716  25429.4  158.545
 11.4136  24914.8  157.765
 11.4556  25002.7  157.702
 11.4976  26913.4  162.605
 11.5396  27399.1  164.241
 11.5816  25462.8  158.75
 11.6236  24439.7  155.975
 11.6656  24731.2  155.864
 11.7076  23841.2  153.838
 11.7496  24346  159.399
 11.7916  24570.3  155.425
 11.8336  23191.7  151.894
 11.8756  23968.3  153.951
 11.9176  23336.2  151.826
 11.9596  23444.5  152.112
 12.0016  23088.9  151.699
 12.0436  23073.5  151.115
 12.0856  22622.1  150.108
 12.1276  22888.6  150.945
 12.1696  22785.2  149.745
 12.2116  23177.5  151.03
 12.2536  25950.9  160.639
 12.2956  23335.3  151.699
 12.3376  23374.3  152.034
 12.3796  22979.7  151.217
 12.4216  23157.5  151.01
 12.4636  24293.2  155.614
 12.5056  22731.1  149.805
 12.5476  22831.8  149.656
 12.5896  22227.5  148.291
 12.6316  22559.1  149.535
 12.6736  22396.3  149.325
 12.7156  22778.7  150.596
 12.7576  22679.1  150.504
 12.7996  22722.2  149.327
 12.8416  23003.5  151.284
 12.8836  24034.4  154.442
 12.9256  23258.4  150.999
 12.9676  23047.8  150.703
 13.0096  23158.2  152.166
 13.0516  23011.4  150.736
 13.0936  22986.9  150.775
 13.1356  23431.6  151.486
 13.1776  23441  152.516
 13.2196  23224  151.455
 13.2616  22734.9  150.165
 13.3036  23204.7  151.841
 13.3456  22787.5  150.44
 13.3876  23647.4  152.749
 13.4296  23334.9  151.896
 13.4716  23376  151.664
 13.5136  23232.1  151.323
 13.5556  23265.2  152.05
 13.5976  23305.2  152.343
 13.6396  23432.6  152.125
 13.6816  23581.5  152.947
 13.7236  24152  154.468
 13.7656  25802.9  160.138
 13.8076  27086.7  162.741
 13.8496  24967.1  157.042
 13.8916  23731  154.05
 13.9336  22819.5  150.367
 13.9756  22844.3  149.847
 14.0176  22706  150.052
 14.0596  23823  153.631
 14.1016  22680.6  150.317
 14.1436  22427.7  148.634
 14.1856  22168.2  148.06
 14.2276  22562.6  149.84
 14.2696  22447.6  149.318
 14.3116  21582.6  146.316
 14.3536  21414.8  145.904
 14.3956  21205.4  144.922
 14.4376  21423.7  145.46
 14.4796  21258.2  144.898
 14.5216  20935.1  144.565
 14.5636  21505.3  146.092
 14.6056  21130.4  144.371
 14.6476  20851.2  142.689
 14.6896  20424.4  141.75
 14.7316  20205.5  141.991
 14.7736  19982.5  140.378
 14.8156  19876.8  140.021
 14.8576  19814.5  139.67
 14.8996  19769.4  140.683
 14.9416  19044  138.085
 14.9836  19290.6  138.957
 15.0256  18756.9  135.968
 15.0676  18668.3  135.947
 15.1096  18264.6  134.216
 15.1516  18039  133.925
 15.1936  17907.6  132.887
 15.2356  18131.1  133.981
 15.2776  18079.4  133.393
 15.3196  17663.3  132.808
 15.3616  17621.7  132.411
 15.4036  17462.8  131.685
 15.4456  17822.6  132.466
 15.4876  17504.7  131.198
 15.5296  17331  130.825
 15.5716  17074.1  129.465
 15.6136  16972.3  129.398
 15.6556  19043.4  136.288
 15.6976  17606.2  131.12
 15.7396  17149.4  129.99
 15.7816  17141.9  129.496
 15.8236  16484  127.645
 15.8656  16652.8  128.103
 15.9076  16558.4  127.565
 15.9496  17954.6  135.659
 15.9916  16676  131.113
 16.0336  16909.6  128.984
 16.0756  16661.1  128.346
 16.1176  16450.8  127.447
 16.1596  15973.5  126.877
 16.2016  16270.4  126.845
 16.2436  16136.3  126.691
 16.2856  16235  126.599
 16.3276  15657.5  124.758
 16.3696  15801  125.155
 16.4116  15809.4  125.63
 16.4536  15877.5  125.701
 16.4956  16852.1  129.249
 16.5376  16043.3  126.291
 16.5796  15880.8  125.023
 16.6216  15743.7  124.742
 16.6636  15599.3  124.352
 16.7056  15497.5  123.811
 16.7476  15532.1  123.622
 16.7896  15547.5  124.28
 16.8316  15411.6  123.713
 16.8736  16157.2  126.926
 16.9156  15804.5  125.847
 16.9576  15317  124.675
 16.9996  15482.4  125.813
 17.0416  15567.1  124.579
 17.0836  15502  124.082
 17.1256  15150.6  122.675
 17.1676  15836.4  125.387
 17.2096  15633.4  124.476
 17.2516  15550.9  124.226
 17.2936  14974.7  121.958
 17.3356  14775.9  121.135
 17.3776  14874.6  121.714
 17.4196  14732.7  120.846
 17.4616  15130.9  122.374
 17.5036  15363.5  123.67
 17.5456  14555.9  120.992
 17.5876  14359.7  119.251
 17.6296  14741.1  120.648
 17.6716  14747.1  121.264
 17.7136  15504.6  124.458
 17.7556  14542  120.834
 17.7976  14471.7  120.145
 17.8396  14528.6  120.029
 17.8816  13944.3  118.133
 17.9236  13938.7  117.891
 17.9656  14275.4  119.987
 18.0076  14770.8  121.472
 18.0496  15343.5  122.937
 18.0916  21444.3  145.962
 18.1336  18155.6  134.428
 18.1756  15552.2  123.964
 18.2176  16403.7  127.526
 18.2596  14075.1  117.874
 18.3016  14833.1  121.264
 18.3436  15607.3  124.64
 18.3856  14559.2  120.28
 18.4276  14078.6  117.97
 18.4696  14194.1  118.532
 18.5116  14369.6  119.535
 18.5536  13875  117.815
 18.5956  14146.5  118.531
 18.6376  14184.9  119.093
 18.6796  13813.7  116.858
 18.7216  14109.4  118.646
 18.7636  13841.3  117.455
 18.8056  13362.4  115.33
 18.8476  13352.1  115.602
 18.8896  13231.6  114.729
 18.9316  13445.7  115.475
 18.9736  13374.8  115.046
 19.0156  13838.9  117.409
 19.0576  13985.6  116.9
 19.0996  13594.3  115.963
 19.1416  13617.7  116.448
 19.1836  13265.8  114.546
 19.2256  13127.7  114.167
 19.2676  13295.6  114.967
 19.3096  13056.5  114.176
 19.3516  13398.8  115.438
 19.3936  13285  115.085
 19.4356  13298.3  114.966
 19.4776  13235  114.788
 19.5196  12949.3  113.394
 19.5616  13286.2  115.116
 19.6036  13193.1  114.084
 19.6456  13444.7  115.409
 19.6876  13782.5  116.496
 19.7296  13385  115.263
 19.7716  13219.3  114.57
 19.8136  13423.6  115.788
 19.8556  13807.8  116.925
 19.8976  13836  117.098
 19.9396  13778.9  116.453
 19.9816  13934.7  117.353
 20.0236  14473.1  119.792
 20.0656  13614.1  116.185
 20.1076  13407.8  115.76
 20.1496  13124.4  114.534
 20.1916  13255  114.589
 20.2336  13272.3  114.628
 20.2756  12855.3  113.229
 20.3176  12836.6  112.908
 20.3596  12732.2  112.436
 20.4016  12861.2  112.807
 20.4436  12736.7  112.809
 20.4856  12757.5  112.7
 20.5276  12654.1  112.684
 20.5696  12578.2  111.91
 20.6116  12704.4  112.641
 20.6536  12438.8  111.039
 20.6956  12498.1  111.379
 20.7376  12472.2  111.466
 20.7796  12469  111.157
 20.8216  12669.3  111.759
 20.8636  12976.3  113.488
 20.9056  14216.5  118.714
 20.9476  13055.2  113.612
 20.9896  13959.9  117.345
 21.0316  12700  111.823
 21.0736  13012.5  113.708
 21.1156  13205.9  114.713
 21.1576  12753.8  112.754
 21.1996  12502.7  111.644
 21.2416  12511  111.51
 21.2836  12545.7  111.639
 21.3256  12577.8  111.855
 21.3676  12552.7  111.284
 21.4096  12802.4  112.756
 21.4516  12393.3  110.762
 21.4936  12163.5  109.985
 21.5356  12361.4  110.829
 21.5776  12402.2  110.847
 21.6196  12431  111.017
 21.6616  12475  111.293
 21.7036  12310.5  110.327
 21.7456  11980.3  108.927
 21.7876  11997.9  108.767
 21.8296  11975.1  108.516
 21.8716  12159.1  109.567
 21.9136  12297.9  110.389
 21.9556  12429.8  110.668
 21.9976  12267.7  109.969
 22.0396  12025.3  109.125
 22.0816  12177.7  110.327
 22.1236  12545.2  111.443
 22.1656  12071.8  109.51
 22.2076  11872.7  108.024
 22.2496  11698.2  107.26
 22.2916  11938.1  108.235
 22.3336  11978.8  109.108
 22.3756  11864.9  108.336
 22.4176  11660.3  107.247
 22.4596  11512  107.13
 22.5016  11911  108.488
 22.5436  11737.1  107.573
 22.5856  12235.5  110.079
 22.6276  12177.4  109.948
 22.6696  11793.4  108.551
 22.7116  11752.6  107.89
 22.7536  11832.9  108.232
 22.7956  11818.4  107.521
 22.8376  11562.2  106.845
 22.8796  11675.1  107.175
 22.9216  11680  107.72
 22.9636  11664.7  106.836
 23.0056  11816  107.657
 23.0476  11892.6  108.562
 23.0896  12147.6  109.108
 23.1316  12088.9  109.273
 23.1736  11987  111.691
 23.2156  12293  110.443
 23.2576  12283.4  110.606
 23.2996  11916.7  108.714
 23.3416  12214.7  110.595
 23.3836  11993.3  108.81
 23.4256  12132.9  109.587
 23.4676  12241.2  109.77
 23.5096  12153.2  110.014
 23.5516  12159.5  109.36
 23.5936  12153.8  110.23
 23.6356  12280.9  110.475
 23.6776  11985.9  109.663
 23.7196  11881  108.667
 23.7616  11954.3  108.703
 23.8036  12084  109.352
 23.8456  11918  108.155
 23.8876  11907.3  108.462
 23.9296  11819.7  108.54
 23.9716  11851.5  107.903
 24.0136  11877.8  108.905
 24.0556  11775.9  108.163
 24.0976  11686.9  107.572
 24.1396  11507.2  109.301
 24.1816  11767.4  109.298
 24.2236  11703.8  108.31
 24.2656  11874.7  108.574
 24.3076  11840.1  108.687
 24.3496  11819.3  108.465
 24.3916  12001.1  109.348
 24.4336  11836.8  108.802
 24.4756  11811.4  108.571
 24.5176  11557  107.021
 24.5596  11573.7  107.423
 24.6016  11410.9  106.754
 24.6436  11552.2  106.934
 24.6856  11465.5  106.282
 24.7276  11391.3  106.251
 24.7696  11443.8  106.609
 24.8116  11413.9  106.642
 24.8536  11497.7  107.04
 24.8956  11202.1  105.388
 24.9376  11326.5  106.146
 24.9796  11127  105.317
 25.0216  11261.7  106.068
 25.0636  11341.7  106.102
 25.1056  10953.7  104.697
 25.1476  10844.6  106.025
 25.1896  10811.2  104.41
 25.2316  11025.1  104.597
 25.2736  10907.5  103.813
 25.3156  10674.4  102.765
 25.3576  10754.5  103.582
 25.3996  10766.3  103.623
 25.4416  10783.8  103.681
 25.4836  10602.8  103.318
 25.5256  10701.5  103.174
 25.5676  10772.4  103.243
 25.6096  10509.7  102.543
 25.6516  10716.5  103.059
 25.6936  10672.3  103.157
 25.7356  10598.8  102.932
 25.7776  10617.2  102.7
 25.8196  10635  102.952
 25.8616  10471.5  102.084
 25.9036  10883.3  103.53
 25.9456  10522  102.391
 25.9876  10521.5  102.307
 26.0296  10585.3  102.364
 26.0716  10666.4  103.093
 26.1136  10830.5  103.799
 26.1556  10768.7  102.817
 26.1976  10213  101.12
 26.2396  10519.8  102.03
 26.2816  10552.9  102.553
 26.3236  10554.8  102.63
 26.3656  10623.1  102.776
 26.4076  10392.1  101.85
 26.4496  10698.5  102.938
 26.4916  10734.9  103.007
 26.5336  11048.7  104.849
 26.5756  11099.9  104.969
 26.6176  10701.3  103.085
 26.6596  10665.1  103.222
 26.7016  10378.3  101.625
 26.7436  10389  101.77
 26.7856  10152  100.588
 26.8276  10071.4  100.151
 26.8696  10296.4  101.127
 26.9116  10135  100.282
 26.9536  10277.7  101.032
 26.9956  9993.82  99.6601
 27.0376  10128.7  100.553
 27.0796  10042.3  99.8828
 27.1216  10345.5  101.408
 27.1636  10020.4  99.9652
 27.2056  10097.6  100.24
 27.2476  10056.8  100.026
 27.2896  9888.55  99.2348
 27.3316  9997.17  99.5635
 27.3736  9895.51  99.319
 27.4156  9915.67  99.2658
 27.4576  10166.3  100.743
 27.4996  10139.8  100.213
 27.5416  10006.7  99.8454
 27.5836  9911.24  99.2193
 27.6256  10017.6  99.9291
 27.6676  9991.31  99.7902
 27.7096  9878.68  99.1045
 27.7516  10555.7  102.597
 27.7936  10686.3  103.375
 27.8356  10286.3  101.03
 27.8776  10355.3  101.429
 27.9196  10111.2  100.101
 27.9616  10176.5  100.621
 28.0036  10073  100.068
 28.0456  9725.92  98.4621
 28.0876  9623.2  98.0262
 28.1296  9817.35  98.8445
 28.1716  9877.42  99.1668
 28.2136  9738.1  98.428
 28.2556  9719.59  98.4502
 28.2976  9611.78  97.897
 28.3396  9731.24  98.2981
 28.3816  9672.03  97.9606
 28.4236  9744.4  98.4878
 28.4656  9613.82  97.8682
 28.5076  9420.2  96.5207
 28.5496  9473.89  97.0512
 28.5916  9457.1  96.7834
 28.6336  9584.93  97.7698
 28.6756  9640.06  97.2625
 28.7176  9559.02  97.3944
 28.7596  9364.62  96.2927
 28.8016  9295.67  96.0617
 28.8436  9372.58  96.6098
 28.8856  9476.65  97.0003
 28.9276  9622.91  97.9876
 28.9696  9377.96  96.3971
 29.0116  9183.64  95.5504
 29.0536  9277.99  96.2656
 29.0956  9474.82  96.9881
 29.1376  9394.19  96.5404
 29.1796  9373.39  96.4891
 29.2216  9181.65  95.3361
 29.2636  9374.39  96.3311
 29.3056  9187.73  95.2278
 29.3476  9303.43  96.344
 29.3896  9312  96.5007
 29.4316  9058.05  94.5286
 29.4736  9058.74  94.5891
 29.5156  9206.91  95.2877
 29.5576  9061.38  95.2502
 29.5996  9089.24  94.6739
 29.6416  8964.08  94.1365
 29.6836  9195.26  95.2711
 29.7256  8962.42  94.6025
 29.7676  9079.46  94.8861
 29.8096  9092.04  94.8989
 29.8516  8843.73  93.9078
 29.8936  8932.68  94.4734
 29.9356  9096.82  95.0997
 29.9776  9008.28  94.7826
 30.0196  9093.14  94.6391
 30.0616  9096.1  95.0146
 30.1036  8917.66  93.9122
 30.1456  8855.05  93.8209
 30.1876  8973.63  94.4125
 30.2296  8865.06  93.7839
 30.2716  8956.19  93.9148
 30.3136  8949.65  94.4536
 30.3556  9079.65  95.4056
 30.3976  9178.19  97.3855
 30.4396  9382.82  95.8474
 30.4816  9302.94  95.0546
 30.5236  9347.6  95.2796
 30.5656  9147.27  94.893
 30.6076  9193.24  94.888
 30.6496  9082.17  94.3874
 30.6916  8970.71  93.8918
 30.7336  9114.3  94.7801
 30.7756  8928.23  94.1045
 30.8176  9120.05  94.8119
 30.8596  9118.05  94.5776
 30.9016  9146.64  94.5989
 30.9436  9117.87  94.6601
 30.9856  9097.12  94.6781
 31.0276  8991.4  93.7642
 31.0696  9109.55  94.7981
 31.1116  9036.01  94.5094
 31.1536  8975.07  94.074
 31.1956  9108.94  94.8566
 31.2376  8764.57  93.0627
 31.2796  8890.02  93.2808
 31.3216  8957.56  93.5491
 31.3636  8938.62  94.1602
 31.4056  8858.02  94.9982
 31.4476  8976.22  93.5922
 31.4896  8978.32  94.1024
 31.5316  9121.5  94.2984
 31.5736  9847.6  97.7641
 31.6156  9562.45  96.3424
 31.6576  9202.48  94.5818
 31.6996  9282.75  94.6581
 31.7416  9311.58  95.7644
 31.7836  9260.55  94.644
 31.8256  9038.16  93.8464
 31.8676  9155.95  94.3733
 31.9096  8898.9  93.2549
 31.9516  8818.31  93.1367
 31.9936  8787.46  92.7956
 32.0356  9009.43  94.0094
 32.0776  9114.88  94.4652
 32.1196  9079.23  94.2916
 32.1616  9038.12  93.6173
 32.2036  8947.02  93.6504
 32.2456  8757.66  93.0241
 32.2876  8874.89  92.9806
 32.3296  8780.6  92.6231
 32.3716  8696.47  92.2842
 32.4136  8717.98  92.5845
 32.4556  8945.26  93.2408
 32.4976  8809.35  92.4275
 32.5396  8608.07  91.3727
 32.5816  8701.99  91.9089
 32.6236  8650.58  91.7864
 32.6656  8707.23  92.6306
 32.7076  8604.56  91.7324
 32.7496  8516.41  90.9526
 32.7916  8595.54  91.3374
 32.8336  8596.68  91.4371
 32.8756  8744.64  92.032
 32.9176  8647.1  91.9046
 32.9596  8737.61  92.4538
 33.0016  8686.92  91.9553
 33.0436  8535.96  91.3278
 33.0856  8516.38  91.3168
 33.1276  8446.52  90.6846
 33.1696  8653.18  91.6128
 33.2116  8535.5  91.2242
 33.2536  8670.88  91.9326
 33.2956  8571.08  91.485
 33.3376  8391.68  90.3186
 33.3796  8677.89  92.0134
 33.4216  8491.81  90.6177
 33.4636  8615.99  91.4345
 33.5056  8378.08  90.2406
 33.5476  8543.56  91.261
 33.5896  8675.8  91.7395
 33.6316  8433.85  90.7759
 33.6736  8389.38  90.7768
 33.7156  8324.33  90.4522
 33.7576  8449.67  90.787
 33.7996  8393.07  90.2465
 33.8416  8309.08  89.9764
 33.8836  8393.49  90.2113
 33.9256  8564.17  91.1817
 33.9676  8536.35  90.9293
 34.0096  8342.64  90.206
 34.0516  8280.44  89.506
 34.0936  8233.53  89.5225
 34.1356  8405.15  90.1967
 34.1776  8139.74  88.7555
 34.2196  8284.09  89.7248
 34.2616  8135.89  89.1098
 34.3036  8368.85  90.5565
 34.3456  8202.46  89.4009
 34.3876  8247.2  89.7121
 34.4296  8280.26  89.5033
 34.4716  8377.76  90.1788
 34.5136  8284.63  89.8657
 34.5556  8178.79  89.542
 34.5976  8372.85  90.4366
 34.6396  8331.18  89.9008
 34.6816  8468.15  90.7315
 34.7236  8322.84  89.7377
 34.7656  8366.21  90.1826
 34.8076  8099.02  89.0485
 34.8496  8245.56  89.7015
 34.8916  8304.1  89.886
 34.9336  8302.95  89.8609
 34.9756  8383.27  90.2381
 35.0176  8265.84  90.0979
 35.0596  8265.95  89.9296
 35.1016  8243.4  89.5686
 35.1436  8400.35  90.1112
 35.1856  8274.26  89.5438
 35.2276  8232.93  89.4953
 35.2696  8149.32  89.2245
 35.3116  8119.98  89.1641
 35.3536  8343.7  90.1244
 35.3956  8182.85  88.9413
 35.4376  8156.2  89.3464
 35.4796  8299.79  90.1571
 35.5216  8259.25  89.8438
 35.5636  7930.37  88.8224
 35.6056  8090.87  88.7656
 35.6476  8200.6  89.2532
 35.6896  8205.05  89.4538
 35.7316  8109.32  88.8285
 35.7736  8096.87  88.9303
 35.8156  8194.07  89.4844
 35.8576  8128.73  89.3602
 35.8996  8238.49  89.9283
 35.9416  8105.2  88.72
 35.9836  8116.09  89.2238
 36.0256  8307.29  90.1711
 36.0676  8314.27  89.7351
 36.1096  8177.64  89.3721
 36.1516  8293.45  89.8908
 36.1936  8163.2  89.0235
 36.2356  8012.24  88.8414
 36.2776  8128.22  88.9454
 36.3196  8214.52  89.1047
 36.3616  8093.11  88.5761
 36.4036  8008.42  88.1698
 36.4456  8068.09  88.7059
 36.4876  7945.08  87.9669
 36.5296  8007.96  88.3594
 36.5716  8030.06  89.2474
 36.6136  8203.7  88.9888
 36.6556  8008.84  88.119
 36.6976  7868.97  87.8377
 36.7396  7935.13  88.034
 36.7816  7809.94  87.6095
 36.8236  7892.47  87.9958
 36.8656  7825.67  87.6928
 36.9076  7848.77  87.8224
 36.9496  7655.04  86.747
 36.9916  7755.89  86.8057
 37.0336  7915.61  88.0009
 37.0756  7838.84  87.3787
 37.1176  7653.97  86.6904
 37.1596  7646.83  86.5678
 37.2016  7636.53  86.6821
 37.2436  7951.69  87.8228
 37.2856  7724.78  86.8134
 37.3276  7883.55  87.0647
 37.3696  7715.95  86.9952
 37.4116  7748.07  87.0789
 37.4536  7570.29  85.9503
 37.4956  7529.45  85.7487
 37.5376  7719.83  88.3874
 37.5796  7627.11  87.786
 37.6216  7789.97  87.0091
 37.6636  7877.08  87.3863
 37.7056  7893.1  87.6726
 37.7476  8005.39  87.8367
 37.7896  7804.02  87.2227
 37.8316  7691.48  86.7459
 37.8736  7841.46  87.1233
 37.9156  7808.83  86.9262
 37.9576  7734.41  86.5716
 37.9996  7673.85  85.8126
 38.0416  7775.79  87.1704
 38.0836  7874.84  87.6324
 38.1256  7790.37  87.1326
 38.1676  7686.92  86.6659
 38.2096  7971.1  87.8677
 38.2516  7949.53  87.8824
 38.2936  7934.23  87.6795
 38.3356  7750.14  86.5893
 38.3776  7676.29  86.4219
 38.4196  7856.9  87.2891
 38.4616  7870.17  87.609
 38.5036  7935.87  87.8212
 38.5456  7612.92  86.8295
 38.5876  7776.11  87.7764
 38.6296  7865.55  87.274
 38.6716  7654.29  85.89
 38.7136  7636.13  85.7317
 38.7556  7670.51  86.4251
 38.7976  7700.54  86.508
 38.8396  7635.25  86.6116
 38.8816  7654.95  86.5161
 38.9236  7573.41  85.8479
 38.9656  7811.74  87.1038
 39.0076  7782.38  86.3594
 39.0496  7844.86  87.2488
 39.0916  7695.14  86.0649
 39.1336  7719.77  86.6025
 39.1756  7789.18  87.044
 39.2176  7531.79  86.1249
 39.2596  7650.71  86.7256
 39.3016  7700.42  86.6023
 39.3436  7656.19  86.7498
 39.3856  7659.76  86.2239
 39.4276  7727.97  87.1142
 39.4696  7752.69  86.879
 39.5116  7734.31  87.2834
 39.5536  7720.55  87.6005
 39.5956  7779.73  87.0631
 39.6376  7602.67  85.9014
 39.6796  7687.7  86.293
 39.7216  7643.29  86.1407
 39.7636  7663.28  86.8047
 39.8056  7712.6  86.879
 39.8476  7653.97  86.7939
 39.8896  7676.81  86.5593
 39.9316  7644.52  86.6138
 39.9736  7703.05  86.5342
 40.0156  7679.89  86.2419
 40.0576  7606.57  86.1752
 40.0996  7698.66  85.8917
 40.1416  7730.81  86.8538
 40.1836  7797.36  87.1173
 40.2256  7755.65  86.9181
 40.2676  7530.14  85.8119
 40.3096  7736.09  86.8354
 40.3516  7604.85  86.2863
 40.3936  7713.94  86.3934
 40.4356  7623.83  86.0865
 40.4776  7759.96  87.0735
 40.5196  7782.52  87.5042
 40.5616  7814.63  87.3288
 40.6036  7619.8  86.4855
 40.6456  7575.18  85.8356
 40.6876  7711.39  86.6059
 40.7296  7602.68  86.1179
 40.7716  7813.01  87.431
 40.8136  7618.43  86.2788
 40.8556  7799.1  87.4265
 40.8976  7757.1  87.1188
 40.9396  7699.11  87.1312
 40.9816  7773.73  86.8549
 41.0236  7713.87  86.2964
 41.0656  7824.52  87.4535
 41.1076  7613.08  86.0384
 41.1496  7774.62  86.8559
 41.1916  7660.49  86.5257
 41.2336  7620.3  86.3016
 41.2756  7714.92  86.4385
 41.3176  7745.15  87.2165
 41.3596  7749.13  86.9743
 41.4016  7566.19  86.1939
 41.4436  7714.82  86.8263
 41.4856  7692.6  86.8643
 41.5276  7660.86  86.7018
 41.5696  7730.66  86.7185
 41.6116  7609.47  86.4336
 41.6536  7646.46  86.4982
 41.6956  7751.21  87.0746
 41.7376  7746.84  87.1458
 41.7796  7589.96  86.1949
 41.8216  7642.19  86.6685
 41.8636  7627.96  86.5407
 41.9056  7516.75  85.699
 41.9476  7689.28  86.9147
 41.9896  7702.02  86.6511
 42.0316  7688.61  86.6648
 42.0736  7674.21  86.7112
 42.1156  7599.73  86.0883
 42.1576  7560.42  85.9749
 42.1996  7687.1  86.8183
 42.2416  7608.64  85.9826
 42.2836  7534.3  85.67
 42.3256  7586.75  86.082
 42.3676  7735.95  86.7188
 42.4096  7628.06  86.088
 42.4516  7676.89  86.4314
 42.4936  7649.16  86.3507
 42.5356  7521.92  85.7737
 42.5776  7716.3  86.8151
 42.6196  7626.4  86.2758
 42.6616  7524.58  85.9482
 42.7036  7556.45  85.5201
 42.7456  7687.38  86.6117
 42.7876  7604.42  86.2252
 42.8296  7626.01  86.2589
 42.8716  7469.52  85.4711
 42.9136  7534.37  85.5941
 42.9556  7562.14  85.9156
 42.9976  7539.61  85.7544
 43.0396  7491.66  85.2211
 43.0816  7629.56  86.3822
 43.1236  7656.28  86.5826
 43.1656  7531.72  85.701
 43.2076  7537.19  85.8405
 43.2496  7477.7  85.3221
 43.2916  7597.37  86.3632
 43.3336  7493.41  85.608
 43.3756  7525.13  85.5504
 43.4176  7433.04  85.1042
 43.4596  7453.11  85.0808
 43.5016  7497.31  85.7199
 43.5436  7492.77  85.6083
 43.5856  7398.02  85.0915
 43.6276  7439.92  85.2186
 43.6696  7491.27  85.6578
 43.7116  7478.59  85.2021
 43.7536  7540.68  86.0535
 43.7956  7340.04  86.0817
 43.8376  7377.56  84.8471
 43.8796  7248.86  84.1807
 43.9216  7315.9  84.4922
 43.9636  7350.37  84.792
 44.0056  7106.12  83.5971
 44.0476  7211.04  83.8518
 44.0896  7319.46  84.8172
 44.1316  7357.39  84.7116
 44.1736  7332.33  84.5458
 44.2156  7377.27  84.6674
 44.2576  7314.04  84.6169
 44.2996  7284.75  84.4246
 44.3416  7372.39  84.6882
 44.3836  7174.42  83.8645
 44.4256  7186.25  83.5834
 44.4676  7313.93  84.4786
 44.5096  7204.61  83.984
 44.5516  7137.54  83.5647
 44.5936  7197.19  83.8639
 44.6356  7219.72  83.7381
 44.6776  7218.85  84.0482
 44.7196  7269.05  84.6017
 44.7616  7305.2  86.1528
 44.8036  7410.77  85.413
 44.8456  7480.76  85.8183
 44.8876  7367.91  85.015
 44.9296  7534.03  85.4193
 44.9716  7392.84  85.037
 45.0136  7323.67  84.5684
 45.0556  7362.03  84.8857
 45.0976  7434.08  85.3442
 45.1396  7371.72  84.747
 45.1816  7316.57  84.202
 45.2236  7523.2  85.458
 45.2656  7344.99  84.934
 45.3076  7378.28  84.9101
 45.3496  7207.05  84.2218
 45.3916  7285.69  84.9445
 45.4336  7327.49  85.0306
 45.4756  7294.13  84.6887
 45.5176  7381.18  84.8228
 45.5596  7350.99  84.7612
 45.6016  7298.86  84.8775
 45.6436  7394.04  84.6116
 45.6856  7285.2  84.6267
 45.7276  7191.59  85.8783
 45.7696  7249.28  85.405
 45.8116  7305.87  85.1874
 45.8536  7246.17  84.7223
 45.8956  7247.66  84.096
 45.9376  7288.07  83.8072
 45.9796  7318.98  84.6759
 46.0216  7285.16  84.7977
 46.0636  7470.9  85.0026
 46.1056  7258.39  83.793
 46.1476  7266.6  84.4251
 46.1896  7354.13  85.0882
 46.2316  7186.68  83.9848
 46.2736  7280.26  84.7376
 46.3156  7230.77  84.192
 46.3576  7322.57  84.9297
 46.3996  7153.31  84.0887
 46.4416  7320.21  84.6294
 46.4836  7101.28  83.7175
 46.5256  7327.37  84.9808
 46.5676  7288.17  84.8709
 46.6096  7424.1  85.5847
 46.6516  7309.61  83.982
 46.6936  7332.82  84.6079
 46.7356  7328.59  84.6834
 46.7776  7124.21  84.3157
 46.8196  7183.05  84.4114
 46.8616  7111.25  83.7905
 46.9036  7098.51  83.3838
 46.9456  7197.16  83.6003
 46.9876  7117.52  83.2183
 47.0296  7114.07  83.8761
 47.0716  7071.28  83.4528
 47.1136  7153.35  83.6141
 47.1556  7078.53  83.0426
 47.1976  7322.57  84.6238
 47.2396  7079.88  83.5267
 47.2816  7139.79  83.5861
 47.3236  7110.16  83.7777
 47.3656  7181.92  84.13
 47.4076  7154.62  83.7014
 47.4496  7019.3  83.0694
 47.4916  7074.84  83.5871
 47.5336  7148.45  83.8356
 47.5756  7187.09  84.1386
 47.6176  7130.29  83.746
 47.6596  7069.2  83.1042
 47.7016  7298.6  84.2411
 47.7436  7260.56  84.3722
 47.7856  7290.15  84.5668
 47.8276  7174.51  83.9414
 47.8696  7137.78  83.8191
 47.9116  7154.78  83.6254
 47.9536  7156.28  83.5821
 47.9956  7092.95  83.9153
 48.0376  7052  83.4449
 48.0796  7208.9  84.5046
 48.1216  7227.94  84.4306
 48.1636  7243.61  84.0967
 48.2056  7272.3  84.5289
 48.2476  7240.53  84.6516
 48.2896  7289.65  84.849
 48.3316  7202.73  84.2745
 48.3736  7182.41  84.1791
 48.4156  7057.28  83.304
 48.4576  7226.07  84.5887
 48.4996  7158.41  83.6501
 48.5416  7190.04  84.1614
 48.5836  7199.6  83.886
 48.6256  7164.42  83.8847
 48.6676  7165.15  84.4102
 48.7096  7117.09  83.3896
 48.7516  7185.85  83.9443
 48.7936  7052.81  83.2279
 48.8356  7137.89  83.779
 48.8776  7170.09  84.4653
 48.9196  7153.16  83.8158
 48.9616  7109.45  83.9359
 49.0036  7144.81  84.4934
 49.0456  7082.05  84.098
 49.0876  7165.6  84.2379
 49.1296  7115.57  83.9996
 49.1716  7081.3  83.6688
 49.2136  7174.46  84.1334
 49.2556  7094.62  83.7083
 49.2976  7095.12  83.7801
 49.3396  7056.56  83.6033
 49.3816  7228.61  84.0403
 49.4236  7121.24  83.8212
 49.4656  7017.72  83.247
 49.5076  7105.92  83.5201
 49.5496  7057.9  83.173
 49.5916  7109.3  83.5127
 49.6336  6971.87  82.9058
 49.6756  7126.44  84.0639
 49.7176  6992.01  83.2044
 49.7596  7203.58  84.3969
 49.8016  7092.38  83.4734
 49.8436  7060.22  83.5943
 49.8856  6990.72  83.1817
 49.9276  6990.14  83.2754
 49.9696  7101.14  83.9248
 50.0116  7081.38  83.9411
 50.0536  7171.51  84.4094
 50.0956  7035  83.6787
 50.1376  7034.2  83.3595
 50.1796  7005.92  83.4763
 50.2216  7020  83.5545
 50.2636  6970.37  82.8743
 50.3056  6932.56  82.8259
 50.3476  7046.43  83.5262
 50.3896  7026.12  83.3744
 50.4316  7062.91  83.4233
 50.4736  6901.86  82.6886
 50.5156  6883.44  82.5637
 50.5576  6938.62  82.6607
 50.5996  6949.93  83.0088
 50.6416  7079.55  83.7049
 50.6836  7021.25  83.4189
 50.7256  7031.78  83.4101
 50.7676  7117.97  84.2005
 50.8096  6994.24  83.0262
 50.8516  6948.1  83.1837
 50.8936  6803.12  82.0876
 50.9356  7065.42  83.7688
 50.9776  6894.45  82.9008
 51.0196  6722.78  81.984
 51.0616  6731.5  81.3738
 51.1036  6828.14  82.3116
 51.1456  6842.87  82.3156
 51.1876  6997.33  82.5687
 51.2296  6803.53  82.0442
 51.2716  6713.9  81.2165
 51.3136  6793.82  82.1596
 51.3556  6786.08  81.7286
 51.3976  6660.01  81.1132
 51.4396  6715.2  81.766
 51.4816  6793.39  82.095
 51.5236  6812.31  82.2969
 51.5656  6779.82  81.689
 51.6076  6843.66  82.1647
 51.6496  6802.39  82.1001
 51.6916  6698.36  81.8317
 51.7336  6754.63  82.2627
 51.7756  6706.89  81.6642
 51.8176  6834.65  82.5405
 51.8596  6773.82  82.2022
 51.9016  6864.28  82.3537
 51.9436  6834.15  83.6726
 51.9856  6807.82  83.9089
 52.0276  6905.84  83.0036
 52.0696  6964.18  83.4199
 52.1116  6654.48  81.6608
 52.1536  6789.01  82.3153
 52.1956  6836.2  82.1153
 52.2376  7005.03  83.2942
 52.2796  6881.74  82.3801
 52.3216  6820.11  82.7001
 52.3636  6781.2  82.0194
 52.4056  6781.87  81.8958
 52.4476  6821.5  82.4942
 52.4896  6917.78  83.1318
 52.5316  6884.75  82.9904
 52.5736  6681.72  81.4715
 52.6156  7046.59  84.0717
 52.6576  6813.19  82.1027
 52.6996  6672.02  82.2302
 52.7416  6691.94  82.202
 52.7836  6768.65  82.5659
 52.8256  6707.42  81.4026
 52.8676  6613.95  81.4038
 52.9096  6590.84  81.3334
 52.9516  6705.34  82.4313
 52.9936  6663.98  82.5462
 53.0356  6760.68  82.1336
 53.0776  6826.03  82.8441
 53.1196  6810.39  82.8507
 53.1616  6835.76  83.0501
 53.2036  6766.33  82.5892
 53.2456  6735.13  82.5037
 53.2876  6806.49  82.6216
 53.3296  6759.78  82.681
 53.3716  6922.57  83.4075
 53.4136  6785.58  82.7264
 53.4556  6665.28  82.0213
 53.4976  6717.75  82.1839
 53.5396  6719.84  82.6023
 53.5816  6750.16  82.4079
 53.6236  6656.42  82.1939
 53.6656  6709.78  82.1301
 53.7076  6680.88  81.9073
 53.7496  6794.18  82.7309
 53.7916  6749.14  82.5886
 53.8336  6713.04  82.2538
 53.8756  6631.02  82.3033
 53.9176  6637.34  81.6865
 53.9596  6488.72  81.5166
 54.0016  6445.79  80.5769
 54.0436  6361.32  80.2727
 54.0856  6568.45  80.9963
 54.1276  6491.55  80.7105
 54.1696  6519.51  81.0643
 54.2116  6629.66  81.4932
 54.2536  6463.6  80.2623
 54.2956  6496.92  80.5251
 54.3376  6390.47  80.3406
 54.3796  6470.99  80.7314
 54.4216  6476.64  80.858
 54.4636  6391.36  80.277
 54.5056  6494.45  80.7198
 54.5476  6344.63  80.1167
 54.5896  6317.34  79.7955
 54.6316  6409.7  80.2088
 54.6736  6423.72  80.3399
 54.7156  6373.04  80.0929
 54.7576  6255.36  79.3162
 54.7996  6504.61  81.0719
 54.8416  6322.62  79.9557
 54.8836  6415.92  80.6268
 54.9256  6320.06  79.8044
 54.9676  6320.27  79.665
 55.0096  6339.07  79.8045
 55.0516  6250.51  79.4431
 55.0936  6278.75  79.3413
 55.1356  6235.42  79.1037
 55.1776  6446.02  80.6623
 55.2196  6376.52  80.0302
 55.2616  6485.4  80.9263
 55.3036  6318.98  80.0568
 55.3456  6216.62  79.5533
 55.3876  6331.74  79.9871
 55.4296  6210.4  79.2269
 55.4716  6268.05  79.6272
 55.5136  6322.19  79.7256
 55.5556  6376.83  80.1195
 55.5976  6272.58  79.5427
 55.6396  6226.5  79.1255
 55.6816  6237.6  79.1391
 55.7236  6316.18  79.7957
 55.7656  6272.6  79.1387
 55.8076  6177.76  78.5478
 55.8496  6342.51  80.0155
 55.8916  6239  79.4091
 55.9336  6392.72  80.2619
 55.9756  6184.72  78.8167
 56.0176  6179.11  78.9255
 56.0596  6184.49  78.9543
 56.1016  6135.27  78.6945
 56.1436  6173.93  79.1586
 56.1856  6039.15  78.0299
 56.2276  6270.95  79.5778
 56.2696  6198.43  79.0898
 56.3116  6201.2  79.4855
 56.3536  6174.49  78.998
 56.3956  6175.09  78.9688
 56.4376  6075.91  78.374
 56.4796  6045.79  77.9994
 56.5216  6134.33  78.9484
 56.5636  6085.15  78.1993
 56.6056  6325.93  79.9749
 56.6476  6117.28  78.2591
 56.6896  6279.7  79.7525
 56.7316  6121.75  78.6761
 56.7736  6133.17  78.721
 56.8156  6085.71  78.4462
 56.8576  5970.1  77.6364
 56.8996  6161.71  78.7912
 56.9416  6029.57  78.1052
 56.9836  6253.19  79.2064
 57.0256  5998.29  77.8898
 57.0676  6230.13  79.4763
 57.1096  6097.6  78.4024
 57.1516  5973.83  77.6444
 57.1936  6159.71  78.6357
 57.2356  5969.57  77.7381
 57.2776  6017.53  78.0135
 57.3196  6039.39  78.4833
 57.3616  5996.76  77.7251
 57.4036  6082.14  78.337
 57.4456  6166.92  78.8605
 57.4876  6188.05  78.8635
 57.5296  6025.99  78.0459
 57.5716  6038.1  78.2209
 57.6136  5944  77.4461
 57.6556  6085.82  78.482
 57.6976  6002.68  77.7845
 57.7396  5938.97  77.7097
 57.7816  5945.32  78.1177
 57.8236  5958.41  78.0058
 57.8656  6021.79  78.0883
 57.9076  6023.17  78.111
 57.9496  5959.74  78.0418
 57.9916  5971.79  77.6063
 58.0336  6010.7  78.1915
 58.0756  5945.16  77.3474
 58.1176  6099.76  78.3744
 58.1596  5918.8  77.7964
 58.2016  5760.39  76.0058
 58.2436  5880.24  77.1768
 58.2856  5788.07  76.4916
 58.3276  5776.57  76.7819
 58.3696  5733.56  76.2565
 58.4116  5810.39  76.6298
 58.4536  5786.81  76.3651
 58.4956  5621.29  75.4377
 58.5376  5818.65  76.3219
 58.5796  5737.33  76.2038
 58.6216  5783.35  76.3292
 58.6636  5776.28  76.4897
 58.7056  5751.45  76.1898
 58.7476  5728.75  76.4713
 58.7896  5718.35  76.0527
 58.8316  5721.96  76.0782
 58.8736  5845.57  76.9043
 58.9156  5673.75  75.8044
 58.9576  5816.54  76.9634
 58.9996  5822.09  76.374
 59.0416  5849.07  76.9017
 59.0836  5730.32  76.0287
 59.1256  5678.36  76.0779
 59.1676  5617.26  76.2621
 59.2096  5688.24  76.0618
 59.2516  5924.34  77.2094
 59.2936  5892.52  77.3258
 59.3356  5537.52  74.8433
 59.3776  5822.53  76.9111
 59.4196  5631.59  75.5771
 59.4616  5665.1  75.6666
 59.5036  5566.56  75.0397
 59.5456  5702.65  75.6534
 59.5876  5808.54  76.5399
 59.6296  5534.15  74.7765
 59.6716  5802.5  76.6247
 59.7136  5797.32  76.579
 59.7556  5698.37  76.0552
 59.7976  5557.7  74.8633
 59.8396  5716.88  75.8249
 59.8816  5662.09  75.9889
 59.9236  5754.51  76.2586
 59.9656  5635.23  75.7161
 60.0076  5772.24  76.0027
 60.0496  5736.66  76.2592
 60.0916  5817.86  76.2259
 60.1336  5515.4  75.276
 60.1756  5484.48  76.1931
 60.1996  0.0000000E+00  0.0000000E+00