File: docs/examples/opeando_xrd/IS17_D/Data/IS17_D/17_Db_f00079.xye
# /beamlines/bl04/projects/cycle2025-II/20250340211-lsimonelli/DATA/IS17_D/17_Db_f00079.xye : mythproc.py merge -s 0.006 -l 0.5 -f /beamlines/bl04/inhouse/ff/FlatField/ff_20Nov2024rod8mm60s_17keV.raw -b True -c true -o xye /beamlines/bl04/projects/cycle2025-II/20250340211-lsimonelli/DATA/IS17_D/17_Db_00079.dat
# IsMon = [6776528, 6778106, 6782443]  IsPos = [-1.4999, -2.4884, -3.4988]
# Wave = 0.4962  CalPath /beamlines/bl04/projects/cycle2025-II/20250340211-lsimonelli/DATA/Align/Si_Pos1_25keV_f00001.cal
# Date = 2025-09-24_15:42:56 Dt = 4.8000  Bin = 0.0060  <imon> = 6779026 +/- 2501 (Min/Max) 6776528 / 6782443
# icurr 251.8463  mocoIn 1.7183E-05  mocoOut 0.8059  i15 7.09864e+06  imon 6.77903e+06  i7 5.0000  iEMpd_timer 4.8000  iEMpd_1 3.3537E-08  iEMpd_2 7.7866E-08  iEMpd_3 1.5325E-08  iEMpd_4 4.7276E-08  iEMhp_timer 4.8000  iEMhp_1 4.9208E-06  iEMhp_2 -2.5029E-08  iEMhp_3 -2.4646E-08  iEMhp_4 -1.9932E-08
#      9776
 1.5856  43501.3  214.207
 1.6276  50562.2  226.976
 1.6696  55458.9  236.874
 1.7116  63456.8  253.875
 1.7536  70869.6  267.151
 1.7956  74942.7  275.407
 1.8376  72228.7  270.803
 1.8796  61911.3  248.872
 1.9216  50789.5  226.311
 1.9636  43539  208.676
 2.0056  40174.8  199.676
 2.0476  36861.4  193.361
 2.0896  35860.9  189.601
 2.1316  34592.5  185.322
 2.1736  33202.8  183.002
 2.2156  33851.1  183.297
 2.2576  32585.7  180.482
 2.2996  31308.2  177.559
 2.3416  31842.8  177.639
 2.3836  31237.2  176.051
 2.4256  30181.9  173.615
 2.4676  29593.4  171.67
 2.5096  29789.9  172.296
 2.5516  32183.3  183.188
 2.5936  128126  357.122
 2.6356  30497.9  175.473
 2.6776  27810.6  166.472
 2.7196  27116.5  164.85
 2.7616  27098  164.595
 2.8036  26473.2  162.85
 2.8456  26433.5  163.37
 2.8876  25665.7  160.834
 2.9296  25322.3  159.878
 2.9716  25292.9  159.291
 3.0136  25156.2  158.925
 3.0556  25110.4  159.161
 3.0976  25183.9  158.306
 3.1396  24777.4  157.746
 3.1816  24397.5  156.477
 3.2236  24300.6  156.158
 3.2656  24092.2  154.539
 3.3076  23639.4  154.534
 3.3496  24195.6  155.267
 3.3916  24513.7  156.109
 3.4336  25074.6  158.471
 3.4756  25311.2  159.159
 3.5176  26062.6  161.276
 3.5596  25720.4  162.626
 3.6016  25793.4  160.485
 3.6436  24948.1  158.941
 3.6856  24652.9  156.302
 3.7276  23731.5  154.426
 3.7696  23414.9  153.576
 3.8116  23303.9  153.108
 3.8536  23387.5  153.314
 3.8956  23099.5  152.194
 3.9376  23656.5  154.288
 3.9796  23063.9  151.833
 4.0216  23103.7  151.005
 4.0636  23089  152.422
 4.1056  22909.3  151.483
 4.1476  23349.3  153.243
 4.1896  23408.9  153.282
 4.2316  23627.5  153.835
 4.2736  24073.8  155.078
 4.3156  24239.5  155.836
 4.3576  25016.2  158.228
 4.3996  25187.8  159.04
 4.4416  25806.6  160.566
 4.4836  26941.8  164.228
 4.5256  26913.5  164.755
 4.5676  26562.3  163.928
 4.6096  27139.5  164.357
 4.6516  27763.1  165.925
 4.6936  27503.4  165.964
 4.7356  28526.5  168.853
 4.7776  27838  166.626
 4.8196  27562.4  166.459
 4.8616  26704.2  163.34
 4.9036  26793  163.344
 4.9456  26679.8  163.648
 4.9876  26139.3  161.88
 5.0296  26499.7  162.832
 5.0716  25990.7  162
 5.1136  26076.2  161.996
 5.1556  26455.4  162.629
 5.1976  33821.7  183.867
 5.2396  27275.1  164.818
 5.2816  27210.6  165.097
 5.3236  27094.2  164.433
 5.3656  26498.2  163.547
 5.4076  26213.7  162.809
 5.4496  26362.7  162.763
 5.4916  26606.1  163.267
 5.5336  26327.3  162.416
 5.5756  26569.6  163.182
 5.6176  26503.5  162.407
 5.6596  26922.8  164.683
 5.7016  26817.1  163.622
 5.7436  27074  164.688
 5.7856  26755.8  163.782
 5.8276  27123.3  164.613
 5.8696  27276.7  165.254
 5.9116  27299.2  165.92
 5.9536  27881.8  167.429
 5.9956  28005.7  167.183
 6.0376  27806.8  167.208
 6.0796  28209.1  168.237
 6.1216  27768.2  167.114
 6.1636  28338.2  167.888
 6.2056  28084.9  167.798
 6.2476  28506.2  168.929
 6.2896  28659.2  169.055
 6.3316  28608.6  169.089
 6.3736  28665.9  169.148
 6.4156  28887.2  169.689
 6.4576  28960.2  169.523
 6.4996  28842  169.648
 6.5416  29024.2  170.325
 6.5836  29303.3  171.366
 6.6256  28954.2  169.912
 6.6676  29772.6  171.855
 6.7096  29513.5  171.975
 6.7516  30100.5  173.327
 6.7936  30743.6  174.561
 6.8356  31307.9  176.261
 6.8776  30615.4  175.094
 6.9196  30319.7  174.653
 6.9616  30835.1  175.576
 7.0036  31100  175.982
 7.0456  31213.3  175.606
 7.0876  31195.9  177.236
 7.1296  31278.4  176.61
 7.1716  31382.2  176.429
 7.2136  31108.2  175.448
 7.2556  31329.6  176.231
 7.2976  31317.8  176.688
 7.3396  31117.5  176.342
 7.3816  31194.9  176.771
 7.4236  31614.2  177.251
 7.4656  31743.5  177.084
 7.5076  31892.2  177.643
 7.5496  31507.5  177.098
 7.5916  31975.9  178.464
 7.6336  32576.9  180.017
 7.6756  32397.8  179.371
 7.7176  32773.8  180.742
 7.7596  32614.5  181.516
 7.8016  37800.3  197.804
 7.8436  33074.7  181.665
 7.8856  33207.3  181.648
 7.9276  33772  183.567
 7.9696  33791  183.938
 8.0116  35047.4  185.875
 8.0536  35166.5  186.442
 8.0956  37147.6  192.83
 8.1376  35596.1  188.228
 8.1796  35496.1  188.505
 8.2216  36606.8  190.17
 8.2636  37509.6  192.751
 8.3056  36543.9  191.008
 8.3476  38793.3  196.127
 8.3896  37443.7  192.763
 8.4316  36937.8  191.617
 8.4736  37000.4  191.256
 8.5156  36568.2  190.409
 8.5576  36474.5  191.14
 8.5996  36264.2  189.465
 8.6416  36404.8  191.091
 8.6836  35884  189.533
 8.7256  36646.7  191.01
 8.7676  39425.8  201.133
 8.8096  39650.9  198.91
 8.8516  37104.5  191.984
 8.8936  38493.9  195.502
 8.9356  36753.9  191.374
 8.9776  36535.3  190.874
 9.0196  36628.7  190.8
 9.0616  36739.4  190.575
 9.1036  39011.1  197.591
 9.1456  35757.4  188.494
 9.1876  35806.4  188.575
 9.2296  35321.8  186.73
 9.2716  35347.5  186.839
 9.3136  35439.5  187.081
 9.3556  35779.2  187.953
 9.3976  34594.3  185.34
 9.4396  34753.9  185.667
 9.4816  34521.1  184.904
 9.5236  34089.2  183.639
 9.5656  33906.4  183.502
 9.6076  33193.6  182.069
 9.6496  33617  183.13
 9.6916  32934.8  181.202
 9.7336  33607.7  182.843
 9.7756  33072.5  182.621
 9.8176  32824.3  181.488
 9.8596  32955  180.296
 9.9016  32448.1  178.89
 9.9436  32149.1  177.979
 9.9856  32407.5  178.97
 10.0276  31559  177.678
 10.0696  32050  178.092
 10.1116  31012.2  175.437
 10.1536  31036.6  175.65
 10.1956  30539  173.875
 10.2376  30449.7  173.126
 10.2796  30234.1  172.613
 10.3216  29828.5  171.746
 10.3636  29841.1  171.809
 10.4056  31663  177.388
 10.4476  33316  181.562
 10.4896  36251.6  188.763
 10.5316  31869.4  177.752
 10.5736  29590.2  171.693
 10.6156  29353.8  170.771
 10.6576  33918.8  182.003
 10.6996  29038.9  169.113
 10.7416  28477.3  167.683
 10.7836  28918.3  169.641
 10.8256  27585.3  166.107
 10.8676  27318.2  164.848
 10.9096  27493.3  165.407
 10.9516  27117.3  163.216
 10.9936  27791.4  165.443
 11.0356  27192.5  164.273
 11.0776  28239.9  166.708
 11.1196  27602.7  165.604
 11.1616  26401.4  161.635
 11.2036  27405  164.517
 11.2456  28661.1  168.995
 11.2876  26374.8  161.834
 11.3296  26143.5  161.03
 11.3716  26681.3  162.364
 11.4136  26170.1  161.687
 11.4556  26187.6  161.392
 11.4976  27424.2  164.143
 11.5396  27684.8  165.092
 11.5816  26314.9  161.395
 11.6236  25525.4  159.188
 11.6656  25821.8  159.27
 11.7076  24983  157.476
 11.7496  25427.3  162.899
 11.7916  25385.9  157.984
 11.8336  24353.5  155.622
 11.8756  24945.3  157.06
 11.9176  24584.8  155.597
 11.9596  24537.6  155.622
 12.0016  24260.3  155.495
 12.0436  24271  154.991
 12.0856  23792.8  153.95
 12.1276  23899.6  154.245
 12.1696  23911.7  153.403
 12.2116  24016.9  153.735
 12.2536  26636.7  162.772
 12.2956  24044.7  153.978
 12.3376  24187.6  154.657
 12.3796  23851.9  154.06
 12.4216  23971.9  153.648
 12.4636  25033  157.961
 12.5056  23830.3  153.387
 12.5476  23727.6  152.569
 12.5896  23557.5  152.663
 12.6316  23553.3  152.809
 12.6736  23466.3  153.004
 12.7156  24161.4  155.092
 12.7576  23475.1  153.126
 12.7996  23800.1  152.821
 12.8416  23824.4  153.956
 12.8836  24445.9  155.773
 12.9256  24198.2  154.018
 12.9676  24111.1  154.142
 13.0096  24061  155.105
 13.0516  24191.3  154.547
 13.0936  24353.7  155.486
 13.1356  24350.4  154.434
 13.1776  24518.1  155.986
 13.2196  24381.6  155.191
 13.2616  23825.6  153.72
 13.3036  23978.5  154.179
 13.3456  23822.8  154.019
 13.3876  24631  155.897
 13.4296  24130.1  154.46
 13.4716  24258.5  154.498
 13.5136  24200.2  154.421
 13.5556  24309.3  155.423
 13.5976  24292.4  155.537
 13.6396  24539.7  155.677
 13.6816  24356.3  155.568
 13.7236  24909  156.884
 13.7656  26489.2  162.272
 13.8076  27724.1  164.623
 13.8496  26903.1  162.842
 13.8916  24737.7  157.293
 13.9336  23769.6  153.465
 13.9756  24002  153.599
 14.0176  23569.4  152.876
 14.0596  24775.8  156.669
 14.1016  23591.3  153.311
 14.1436  23563.5  152.346
 14.1856  23193.8  151.443
 14.2276  23325.6  152.363
 14.2696  23294.6  152.106
 14.3116  22365.1  148.947
 14.3536  22192.2  148.536
 14.3956  22215.1  148.344
 14.4376  22420.1  148.806
 14.4796  22279.3  148.335
 14.5216  21980.6  148.128
 14.5636  22515.7  149.479
 14.6056  22106.8  147.663
 14.6476  21846.1  146.05
 14.6896  21532.5  145.54
 14.7316  20969  144.653
 14.7736  20809.3  143.249
 14.8156  20729.5  142.992
 14.8576  20772.9  143.006
 14.8996  20716  144.004
 14.9416  20173.1  142.119
 14.9836  20090.6  141.806
 15.0256  19534.6  138.751
 15.0676  19415.6  138.636
 15.1096  19415.9  138.38
 15.1516  19093.4  137.779
 15.1936  19034.1  136.996
 15.2356  18833.9  136.548
 15.2776  18774.9  135.929
 15.3196  18530.3  136.022
 15.3616  18308.7  134.961
 15.4036  18344  134.955
 15.4456  18605.6  135.573
 15.4876  18321.9  134.22
 15.5296  18168.5  133.944
 15.5716  17838.8  132.329
 15.6136  17763.3  132.378
 15.6556  19386.2  137.503
 15.6976  17928.8  132.53
 15.7396  17787.9  132.379
 15.7816  17588.3  131.164
 15.8236  17212.9  130.428
 15.8656  17338.1  130.707
 15.9076  17302.2  130.396
 15.9496  18749.7  138.642
 15.9916  17389.2  133.908
 16.0336  17730.2  132.084
 16.0756  17598.5  131.902
 16.1176  17257.8  130.704
 16.1596  16875.2  130.406
 16.2016  16647.8  128.299
 16.2436  16856.2  129.48
 16.2856  16794.3  128.773
 16.3276  16483.4  128.013
 16.3696  16581.8  128.214
 16.4116  16459.9  128.179
 16.4536  16560.2  128.384
 16.4956  17316.9  131.025
 16.5376  16651.9  128.655
 16.5796  16478.1  127.353
 16.6216  16269.8  126.8
 16.6636  16298.5  127.103
 16.7056  16277.8  126.887
 16.7476  16410.5  126.942
 16.7896  16320.5  127.337
 16.8316  16301.6  127.239
 16.8736  16772.5  129.327
 16.9156  16358.6  128.045
 16.9576  16125  127.923
 16.9996  16168.2  128.558
 17.0416  16176.8  126.999
 17.0836  16261.7  127.089
 17.1256  16020.9  126.153
 17.1676  16543.3  128.155
 17.2096  16166.7  126.578
 17.2516  15869  125.205
 17.2936  15818.2  125.352
 17.3356  15416.6  123.735
 17.3776  15345.6  123.638
 17.4196  15281.3  123.077
 17.4616  15641.7  124.429
 17.5036  16315.4  127.443
 17.5456  15181.1  123.564
 17.5876  15033.1  122.031
 17.6296  15174.4  122.438
 17.6716  15245.5  123.3
 17.7136  16264.8  127.471
 17.7556  15274.2  123.846
 17.7976  15206.5  123.305
 17.8396  15125.3  122.479
 17.8816  14762.3  121.551
 17.9236  14859.2  121.738
 17.9656  14813.2  122.072
 18.0076  15516.1  124.501
 18.0496  15702.6  124.37
 18.0916  21584.2  146.334
 18.1336  17511.8  132.039
 18.1756  15614  124.21
 18.2176  16005.5  125.984
 18.2596  14758.8  120.704
 18.3016  15194.8  122.736
 18.3436  15601.1  124.37
 18.3856  15209.9  122.94
 18.4276  14605.6  120.154
 18.4696  14815.3  121.097
 18.5116  14822.2  121.389
 18.5536  14560.4  120.687
 18.5956  14438.5  119.742
 18.6376  14653.4  121.05
 18.6796  14615.6  120.186
 18.7216  14533.2  120.357
 18.7636  14392.5  119.776
 18.8056  13944.1  117.813
 18.8476  13860.9  118.072
 18.8896  13975.6  117.914
 18.9316  14172.5  118.716
 18.9736  13997.1  117.681
 19.0156  14421.1  119.877
 19.0576  14442.8  118.794
 19.0996  14189.6  118.466
 19.1416  14132  118.63
 19.1836  13861.4  117.087
 19.2256  13677.1  116.53
 19.2676  13974.8  117.871
 19.3096  13727  117.069
 19.3516  13692  116.883
 19.3936  13909.6  117.706
 19.4356  14073.1  118.278
 19.4776  13891.3  117.596
 19.5196  13764.8  116.913
 19.5616  13934  117.888
 19.6036  13854.7  117.041
 19.6456  13919.9  117.437
 19.6876  14314.6  118.715
 19.7296  14095.3  118.287
 19.7716  13648.5  116.561
 19.8136  14154.6  118.904
 19.8556  14233.7  118.702
 19.8976  14415.2  119.525
 19.9396  14260.9  118.472
 19.9816  14511.1  119.753
 20.0236  15105  122.381
 20.0656  14186.4  118.6
 20.1076  14005.2  118.32
 20.1496  13700  117.011
 20.1916  13988.2  117.765
 20.2336  13783.3  116.808
 20.2756  13475.6  115.933
 20.3176  13172  114.375
 20.3596  13436.2  115.5
 20.4016  13567.7  115.861
 20.4436  13292.9  115.234
 20.4856  13338.4  115.241
 20.5276  13199.6  115.092
 20.5696  13246.3  114.744
 20.6116  13207.4  114.852
 20.6536  13141.6  114.082
 20.6956  13034.8  113.747
 20.7376  13022.4  113.894
 20.7796  13000  113.504
 20.8216  13165.7  113.934
 20.8636  13422.9  115.425
 20.9056  13932.3  117.527
 20.9476  13323.7  114.778
 20.9896  13997.5  117.503
 21.0316  13043.4  113.319
 21.0736  13245.9  114.729
 21.1156  13426.1  115.661
 21.1576  13078.7  114.195
 21.1996  12877  113.3
 21.2416  13003.8  113.685
 21.2836  13004.8  113.659
 21.3256  13067.3  114.015
 21.3676  12974.5  113.134
 21.4096  13348.3  115.083
 21.4516  12875.4  112.902
 21.4936  12590.9  111.912
 21.5356  12877.4  113.124
 21.5776  12957.2  113.299
 21.6196  12964.8  113.383
 21.6616  12973.2  113.499
 21.7036  12937.8  113.108
 21.7456  12795.4  112.569
 21.7876  12526.9  111.142
 21.8296  12533.2  111.011
 21.8716  12700.1  111.991
 21.9136  12814.3  112.682
 21.9556  12876.4  112.635
 21.9976  12570.7  111.317
 22.0396  12550.9  111.481
 22.0816  12613.3  112.283
 22.1236  13055.9  113.689
 22.1656  12720.9  112.361
 22.2076  12233.8  109.649
 22.2496  12397.4  110.416
 22.2916  12491.3  110.711
 22.3336  12453.9  111.27
 22.3756  12360.1  110.569
 22.4176  12325.3  110.265
 22.4596  12001.5  109.379
 22.5016  12379.3  110.6
 22.5436  12430.2  110.698
 22.5856  12576.4  111.598
 22.6276  12424.4  111.064
 22.6696  12265.5  110.693
 22.7116  12165.4  109.768
 22.7536  12170  109.759
 22.7956  12406.5  110.161
 22.8376  12054.2  109.087
 22.8796  12279.5  109.909
 22.9216  12231.7  110.229
 22.9636  12194.1  109.225
 23.0056  12096.6  108.925
 23.0476  12403  110.862
 23.0896  12732.4  111.7
 23.1316  12438.3  110.836
 23.1736  12443.8  113.791
 23.2156  12458.5  111.25
 23.2576  12821.7  113.005
 23.2996  12384.7  110.83
 23.3416  12660.7  112.598
 23.3836  12576.4  111.448
 23.4256  12829.2  112.689
 23.4676  12604.4  111.382
 23.5096  12438.5  111.304
 23.5516  12560  111.146
 23.5936  12728.4  112.806
 23.6356  12710.2  112.385
 23.6776  12440.6  111.392
 23.7196  12391.9  110.758
 23.7616  12479.4  111.059
 23.8036  12729.6  112.238
 23.8456  12352.2  110.103
 23.8876  12529.4  111.262
 23.9296  12415.8  111.232
 23.9716  12316.4  109.998
 24.0136  12407.6  111.309
 24.0556  12215.1  110.153
 24.0976  12049.7  109.228
 24.1396  11902.6  111.157
 24.1816  12311.6  111.453
 24.2236  12445.2  111.691
 24.2656  12197.3  110.044
 24.3076  12090.4  109.834
 24.3496  12231.5  110.351
 24.3916  12216.9  110.335
 24.4336  12114.3  110.071
 24.4756  12119.1  109.983
 24.5176  11760.6  107.964
 24.5596  11873.4  108.607
 24.6016  11705.4  108.138
 24.6436  12119.5  109.535
 24.6856  11842.8  108.011
 24.7276  11893.9  108.578
 24.7696  11897.2  108.698
 24.8116  11765.5  108.278
 24.8536  11716.7  108.06
 24.8956  11573.6  107.131
 24.9376  11682  107.55
 24.9796  11444.2  106.817
 25.0216  11540.1  107.383
 25.0636  11413.5  106.444
 25.1056  11286.1  106.542
 25.1476  11208.8  107.797
 25.1896  11302.4  106.76
 25.2316  11269.1  105.87
 25.2736  11244.3  105.405
 25.3156  11208.5  105.308
 25.3576  11022.8  104.867
 25.3996  11146.9  105.439
 25.4416  11085.1  105.125
 25.4836  11003.9  105.258
 25.5256  11010.1  104.65
 25.5676  11136.7  104.981
 25.6096  10975.2  104.786
 25.6516  11019  104.505
 25.6936  11019.1  104.824
 25.7356  11009.5  104.906
 25.7776  11026.2  104.583
 25.8196  10983.9  104.629
 25.8616  10938.5  104.335
 25.9036  11209.8  105.072
 25.9456  10797.1  103.718
 25.9876  10782.4  103.712
 26.0296  10962  104.087
 26.0716  10965.5  104.531
 26.1136  11162.7  105.392
 26.1556  11132.2  104.625
 26.1976  10884  104.384
 26.2396  10822.3  103.242
 26.2816  10760.1  103.55
 26.3236  11046.6  105.079
 26.3656  10925.2  104.231
 26.4076  10879.4  104.219
 26.4496  11002.8  104.391
 26.4916  11116.7  104.817
 26.5336  11470.8  106.832
 26.5756  11691.3  107.731
 26.6176  11079.9  104.886
 26.6596  10972.5  104.695
 26.7016  10659.5  102.952
 26.7436  10879.2  104.145
 26.7856  10545.5  102.509
 26.8276  10514.1  102.331
 26.8696  10623.2  102.729
 26.9116  10598.2  102.552
 26.9536  10544.8  102.337
 26.9956  10377  101.551
 27.0376  10463.5  102.198
 27.0796  10502.2  102.114
 27.1216  10720.3  103.235
 27.1636  10370.8  101.706
 27.2056  10453.2  101.99
 27.2476  10450.3  101.963
 27.2896  10283.3  101.265
 27.3316  10282.7  100.98
 27.3736  10173  100.704
 27.4156  10399.2  101.66
 27.4576  10471.3  102.233
 27.4996  10521.6  102.079
 27.5416  10288.3  101.242
 27.5836  10291.2  101.103
 27.6256  10180.5  100.745
 27.6676  10147.4  100.559
 27.7096  10349.3  101.437
 27.7516  10719.5  103.384
 27.7936  10903  104.417
 27.8356  10696.7  103.023
 27.8776  10586.6  102.569
 27.9196  10564.9  102.318
 27.9616  10485.5  102.136
 28.0036  10346  101.4
 28.0456  10080.1  100.237
 28.0876  10075.8  100.304
 28.1296  10212.7  100.809
 28.1716  10302.9  101.282
 28.2136  10082.8  100.159
 28.2556  10069  100.191
 28.2976  10042.1  100.064
 28.3396  10079.2  100.002
 28.3816  10149.9  100.356
 28.4236  10126  100.402
 28.4656  9924.42  99.4375
 28.5076  9834.4  98.6331
 28.5496  9872.15  99.065
 28.5916  9845.05  98.7499
 28.6336  9904.64  99.3916
 28.6756  9913.53  98.6313
 28.7176  9804.65  98.6401
 28.7596  9848.33  98.7528
 28.8016  9695.25  98.0226
 28.8436  9715.05  98.3538
 28.8856  9837.22  98.8266
 28.9276  9858.56  99.1823
 28.9696  9791.05  98.4954
 29.0116  9607.99  97.7512
 29.0536  9642.06  98.1396
 29.0956  9843.12  98.8503
 29.1376  9691.41  98.0575
 29.1796  9684.89  98.0814
 29.2216  9632.12  97.6538
 29.2636  9701.61  98.0846
 29.3056  9650.83  97.5902
 29.3476  9592.36  97.8228
 29.3896  9673.27  98.3516
 29.4316  9509.84  96.8532
 29.4736  9442.46  96.5664
 29.5156  9479.49  96.6821
 29.5576  9396.97  96.994
 29.5996  9444.26  96.5015
 29.6416  9419.9  96.4961
 29.6836  9334.34  95.9808
 29.7256  9374.45  96.7484
 29.7676  9525.73  97.1834
 29.8096  9325.65  96.1034
 29.8516  9120.41  95.3648
 29.8936  9377.75  96.796
 29.9356  9324.31  96.2778
 29.9776  9329.33  96.4483
 30.0196  9453.85  96.4904
 30.0616  9359.74  96.3752
 30.1036  9350.46  96.16
 30.1456  9174.88  95.4723
 30.1876  9090.12  95.02
 30.2296  9309.26  96.0961
 30.2716  9315.16  95.7741
 30.3136  9338.99  96.7445
 30.3556  9600.42  98.1032
 30.3976  9374.04  98.4229
 30.4396  9886.02  98.3946
 30.4816  9574.87  96.4252
 30.5236  9589.52  96.5104
 30.5656  9504.76  96.7411
 30.6076  9548.71  96.371
 30.6496  9598.78  97.0365
 30.6916  9330.36  95.7509
 30.7336  9500.88  96.7667
 30.7756  9446.42  96.582
 30.8176  9513.64  96.8511
 30.8596  9419.03  96.1058
 30.9016  9402.33  96.3777
 30.9436  9412.57  96.1876
 30.9856  9604.92  97.294
 31.0276  9494.63  96.3484
 31.0696  9299.17  95.9069
 31.1116  9320.06  95.9879
 31.1536  9383.65  96.174
 31.1956  9464.79  96.707
 31.2376  9137.81  95.0328
 31.2796  9288.94  95.3538
 31.3216  9409.56  95.9007
 31.3636  9273.07  95.9038
 31.4056  9373.66  97.7317
 31.4476  9466.22  96.1222
 31.4896  9289.74  95.7172
 31.5316  9574.63  96.5643
 31.5736  10083.9  98.9359
 31.6156  9644.91  96.7609
 31.6576  9594.15  96.581
 31.6996  9634.57  96.4581
 31.7416  9344.36  96.0835
 31.7836  9443.77  95.5752
 31.8256  9509.86  96.1829
 31.8676  9471.52  95.982
 31.9096  9279.51  95.3747
 31.9516  9129.58  94.7734
 31.9936  9114.66  94.513
 32.0356  9349.95  95.7736
 32.0776  9422.44  96.0358
 32.1196  9505.82  96.5763
 32.1616  9338.33  95.1341
 32.2036  9294.57  95.4511
 32.2456  9208.42  95.3887
 32.2876  9165.43  94.6635
 32.3296  9105.58  94.3252
 32.3716  9011.46  93.9396
 32.4136  8924.19  93.6797
 32.4556  9048.64  93.7217
 32.4976  9018  93.4592
 32.5396  8990.22  93.3876
 32.5816  9090.42  94.0396
 32.6236  9092.68  94.1098
 32.6656  9002.66  94.1895
 32.7076  8897.19  93.2893
 32.7496  8932.24  93.1514
 32.7916  8964.99  93.2777
 32.8336  8939.92  93.237
 32.8756  8997.05  93.2584
 32.9176  8932.58  93.4104
 32.9596  8991.13  93.7844
 33.0016  8938.93  93.2875
 33.0436  8969.01  93.6167
 33.0856  8858.71  93.1364
 33.1276  8868.32  92.922
 33.1696  8917.37  92.9948
 33.2116  8927.58  93.2941
 33.2536  8912.7  93.1971
 33.2956  8993.57  93.7096
 33.3376  8885.45  92.8785
 33.3796  8978.95  93.5888
 33.4216  8795.33  92.2146
 33.4636  8901.5  92.9283
 33.5056  8760.81  92.4444
 33.5476  8888.18  93.0892
 33.5896  8725.28  92.031
 33.6316  8797.31  92.7167
 33.6736  8587.58  91.8462
 33.7156  8678.85  92.362
 33.7576  8728.97  92.2683
 33.7996  8797.96  92.3954
 33.8416  8541.15  91.2216
 33.8836  8632.04  91.4813
 33.9256  8800.29  92.4303
 33.9676  8799.67  92.321
 34.0096  8655.49  91.8789
 34.0516  8654.17  91.4973
 34.0936  8597.4  91.4813
 34.1356  8716.95  91.8489
 34.1776  8591.24  91.1785
 34.2196  8518.61  90.9781
 34.2616  8442.49  90.7134
 34.3036  8584.69  91.7202
 34.3456  8688.45  92.0224
 34.3876  8787.66  92.5215
 34.4296  8551.67  90.9556
 34.4716  8746  92.1385
 34.5136  8630.84  91.7118
 34.5556  8449.79  91.0042
 34.5976  8657.15  91.9293
 34.6396  8570.05  91.1777
 34.6816  8637.2  91.6413
 34.7236  8625.39  91.3517
 34.7656  8545.83  91.1447
 34.8076  8457.27  90.999
 34.8496  8426.36  90.6748
 34.8916  8541.64  91.161
 34.9336  8587.78  91.3892
 34.9756  8529.02  91.0004
 35.0176  8543.37  91.6
 35.0596  8667.12  92.0846
 35.1016  8598.97  91.4743
 35.1436  8818.42  92.3128
 35.1856  8599.43  91.2892
 35.2276  8529.64  91.0787
 35.2696  8536.85  91.3202
 35.3116  8390.64  90.6367
 35.3536  8423.84  90.525
 35.3956  8475.41  90.5166
 35.4376  8510.12  91.2714
 35.4796  8559.43  91.557
 35.5216  8438.15  90.8778
 35.5636  8253.07  90.6105
 35.6056  8350.05  90.1691
 35.6476  8498.93  90.8674
 35.6896  8438.1  90.6413
 35.7316  8355.05  90.1637
 35.7736  8366.64  90.4184
 35.8156  8362.39  90.3907
 35.8576  8424.4  90.9776
 35.8996  8468.33  91.1795
 35.9416  8429.77  90.4802
 35.9836  8405.85  90.6773
 36.0256  8576.9  91.6178
 36.0676  8555.89  91.2559
 36.1096  8409.4  90.6262
 36.1516  8538.63  91.216
 36.1936  8539.39  91.035
 36.2356  8407.42  91.0051
 36.2776  8268.44  89.7224
 36.3196  8517.38  90.7335
 36.3616  8337.06  89.8939
 36.4036  8309.05  89.8161
 36.4456  8436.11  90.7162
 36.4876  8282.92  89.8255
 36.5296  8315.27  90.0371
 36.5716  8337.91  90.9451
 36.6136  8346.25  89.7568
 36.6556  8217.46  89.2538
 36.6976  8128.19  89.2685
 36.7396  8124.36  88.9851
 36.7816  8177.7  89.6453
 36.8236  8123.82  89.2743
 36.8656  8143.25  89.4556
 36.9076  8059.38  88.872
 36.9496  7813.81  87.4879
 36.9916  7979.9  88.0519
 37.0336  8108.12  89.0613
 37.0756  8189.24  89.3059
 37.1176  7879.3  87.8617
 37.1596  8083.21  88.9994
 37.2016  8033.13  88.948
 37.2436  8019.21  88.1936
 37.2856  7956.51  88.1025
 37.3276  8007.08  87.7402
 37.3696  7927.15  88.1771
 37.4116  7939.54  88.1422
 37.4536  7889.41  87.7399
 37.4956  7879.08  87.7181
 37.5376  8080.55  90.4345
 37.5796  8039.49  90.1286
 37.6216  8148.89  88.9986
 37.6636  8230.31  89.3367
 37.7056  8210.63  89.4065
 37.7476  8291.86  89.398
 37.7896  8068.8  88.6842
 37.8316  8023.81  88.5953
 37.8736  8095.99  88.5203
 37.9156  8112.09  88.5972
 37.9576  8014.81  87.9819
 37.9996  8041.36  87.8427
 38.0416  7881.61  87.7602
 38.0836  8210.27  89.4746
 38.1256  8133.68  89.0323
 38.1676  7924.77  87.9963
 38.2096  8322.33  89.7859
 38.2516  8057.47  88.5569
 38.2936  8241.72  89.3715
 38.3356  7958.88  87.7427
 38.3776  7977.81  88.1031
 38.4196  8015.13  88.1601
 38.4616  7975.37  88.1959
 38.5036  8147  88.9789
 38.5456  7873.06  88.2934
 38.5876  7910.2  88.5323
 38.6296  7950.8  87.7285
 38.6716  7988.43  87.7483
 38.7136  8021.47  87.8769
 38.7556  7950.69  87.9949
 38.7976  7966.6  88.015
 38.8396  7884.11  88.0053
 38.8816  7874.87  87.7546
 38.9236  7894.36  87.6619
 38.9656  7997.27  88.1416
 39.0076  7899.71  86.996
 39.0496  8037.49  88.3207
 39.0916  8133.61  88.4859
 39.1336  7954.79  87.9142
 39.1756  7952.87  87.9636
 39.2176  7883.37  88.117
 39.2596  7791.7  87.5279
 39.3016  7987.39  88.2038
 39.3436  7957.46  88.4489
 39.3856  8068.49  88.4975
 39.4276  8143.94  89.4341
 39.4696  7995.36  88.2351
 39.5116  8019.52  88.8879
 39.5536  7972.53  89.032
 39.5956  7968.14  88.1113
 39.6376  7900.23  87.7279
 39.6796  7907.6  87.5183
 39.7216  7892.76  87.5371
 39.7636  7989.58  88.6349
 39.8056  7991.98  88.4394
 39.8476  7804.97  87.6491
 39.8896  7931.93  87.9906
 39.9316  7860.38  87.8331
 39.9736  7978.61  88.0703
 40.0156  7935.09  87.6576
 40.0576  7858.33  87.578
 40.0996  7963.97  87.3511
 40.1416  8033.31  88.537
 40.1836  8044.8  88.4864
 40.2256  7931.73  87.8919
 40.2676  7906.21  87.8702
 40.3096  7997.4  88.289
 40.3516  8022.19  88.5427
 40.3936  8054.73  88.2664
 40.4356  7852.66  87.3698
 40.4776  8033.93  88.78
 40.5196  7898.67  88.1534
 40.5616  8093.51  88.8702
 40.6036  7869.23  87.8834
 40.6456  7948.5  87.933
 40.6876  8129.79  88.9257
 40.7296  7947.46  88.0522
 40.7716  7965.71  88.2702
 40.8136  7774.25  87.1502
 40.8556  8053.27  88.8347
 40.8976  7974.62  88.3303
 40.9396  7954.17  88.5607
 40.9816  7961.95  87.8934
 41.0236  7916.43  87.4269
 41.0656  8020.53  88.5386
 41.1076  7979.7  88.085
 41.1496  7868.54  87.3836
 41.1916  7854.49  87.6005
 41.2336  7902.55  87.8882
 41.2756  7959.07  87.8005
 41.3176  8076.73  89.0638
 41.3596  7936.05  88.0157
 41.4016  7866.26  87.8808
 41.4436  8028.03  88.5651
 41.4856  7890.13  87.9681
 41.5276  7925.52  88.1867
 41.5696  7884.65  87.5964
 41.6116  7937.44  88.2779
 41.6536  7944.12  88.1699
 41.6956  8074.75  88.9518
 41.7376  7880.69  87.9044
 41.7796  7820.1  87.4447
 41.8216  7907.81  88.1737
 41.8636  7922.75  88.1956
 41.9056  7798.45  87.2991
 41.9476  7879.24  87.9825
 41.9896  8014.73  88.4015
 42.0316  8050.41  88.6803
 42.0736  8032.69  88.6858
 42.1156  7849.81  87.4986
 42.1576  7862.06  87.6814
 42.1996  7932.1  88.1923
 42.2416  7868.83  87.4346
 42.2836  7935.3  87.9239
 42.3256  7913.29  87.9054
 42.3676  8052.83  88.4836
 42.4096  7953.6  87.9024
 42.4516  7881.46  87.5789
 42.4936  7811.18  87.2735
 42.5356  7828.75  87.5011
 42.5776  7985.45  88.3117
 42.6196  7902.17  87.9087
 42.6616  7666.2  86.7555
 42.7036  7920.9  87.5605
 42.7456  8038.19  88.5636
 42.7876  7859.81  87.66
 42.8296  7868.84  87.559
 42.8716  7716.71  86.8725
 42.9136  7772.86  86.9764
 42.9556  7785.53  87.1725
 42.9976  7911.11  87.8366
 43.0396  7805.18  86.9875
 43.0816  7679.75  86.6667
 43.1236  7651.47  86.5448
 43.1656  7838.22  87.4279
 43.2076  7743.44  87.0053
 43.2496  7722.05  86.7088
 43.2916  7835.54  87.7074
 43.3336  7871.48  87.7274
 43.3756  7858.45  87.424
 43.4176  7654.82  86.364
 43.4596  7731.57  86.6465
 43.5016  7645.95  86.5658
 43.5436  7754.98  87.0916
 43.5856  7749.19  87.0846
 43.6276  7830.39  87.4254
 43.6696  7661.7  86.7282
 43.7116  7750.28  86.7395
 43.7536  7836.61  87.7245
 43.7956  7704.44  88.193
 43.8376  7641.88  86.3561
 43.8796  7443.2  85.2994
 43.9216  7529.02  85.7074
 43.9636  7647.39  86.4867
 44.0056  7593.73  86.4159
 44.0476  7523.4  85.643
 44.0896  7509.62  85.905
 44.1316  7671.66  86.3502
 44.1736  7589.43  86.0152
 44.2156  7607.46  85.973
 44.2576  7523.89  85.8164
 44.2996  7540.6  85.8888
 44.3416  7612.39  86.0507
 44.3836  7390.95  85.1216
 44.4256  7437.64  85.029
 44.4676  7426.15  85.1221
 44.5096  7539.53  85.9143
 44.5516  7501.7  85.6624
 44.5936  7439.08  85.2573
 44.6356  7531.53  85.5223
 44.6776  7508.02  85.7116
 44.7196  7480.22  85.8496
 44.7616  7574.83  87.7353
 44.8036  7533.35  85.9036
 44.8456  7734.67  87.2625
 44.8876  7662.67  86.6988
 44.9296  7814.66  87.0004
 44.9716  7666.76  86.6055
 45.0136  7611.69  86.2118
 45.0556  7672.4  86.5479
 45.0976  7551.87  86.0185
 45.1396  7512.7  85.5549
 45.1816  7470.91  85.2443
 45.2236  7613.06  85.9673
 45.2656  7553.21  86.1193
 45.3076  7567.67  85.9901
 45.3496  7490.34  85.8553
 45.3916  7501.34  86.1933
 45.4336  7624.97  86.74
 45.4756  7576.19  86.3138
 45.5176  7747.8  86.9035
 45.5596  7535.45  85.8237
 45.6016  7461.21  85.8179
 45.6436  7484.38  85.127
 45.6856  7446.78  85.5489
 45.7276  7447.74  86.8918
 45.7696  7566.95  87.2634
 45.8116  7555.83  86.6394
 45.8536  7334.6  85.2514
 45.8956  7580.4  86.0162
 45.9376  7515.62  85.1074
 45.9796  7415.6  85.2269
 46.0216  7632.37  86.8065
 46.0636  7692.8  86.2632
 46.1056  7530.62  85.3566
 46.1476  7537.03  85.9863
 46.1896  7590.51  86.4462
 46.2316  7585.45  86.2868
 46.2736  7452.9  85.8998
 46.3156  7583.2  86.2279
 46.3576  7587.95  86.4544
 46.3996  7466.08  85.9173
 46.4416  7483.09  85.5856
 46.4836  7448.96  85.7501
 46.5256  7602.37  86.5723
 46.5676  7415.13  85.6167
 46.6096  7421.58  85.5775
 46.6516  7460.07  84.8351
 46.6936  7485.32  85.4878
 46.7356  7627.98  86.4001
 46.7776  7462.68  86.2992
 46.8196  7431.66  85.7175
 46.8616  7298.92  84.887
 46.9036  7346.9  84.8252
 46.9456  7376.73  84.6357
 46.9876  7453.47  85.1503
 47.0296  7454.56  85.8571
 47.0716  7246.66  84.4825
 47.1136  7508.37  85.6697
 47.1556  7325.22  84.4823
 47.1976  7522.67  85.6894
 47.2396  7491.56  85.9235
 47.2816  7296  84.4966
 47.3236  7396.56  85.4347
 47.3656  7413.88  85.4772
 47.4076  7392.15  85.1446
 47.4496  7437.3  85.5077
 47.4916  7396.97  85.4568
 47.5336  7480.86  85.7545
 47.5756  7541.49  86.2247
 47.6176  7372.58  85.1576
 47.6596  7327.66  84.6115
 47.7016  7571.5  85.8085
 47.7436  7415.24  85.2676
 47.7856  7349.28  84.9247
 47.8276  7438.31  85.4737
 47.8696  7367.69  85.1488
 47.9116  7400.57  85.052
 47.9536  7364.24  84.7784
 47.9956  7327.57  85.2942
 48.0376  7243.99  84.5787
 48.0796  7409.11  85.6568
 48.1216  7305.93  84.8869
 48.1636  7357.66  84.7558
 48.2056  7419.11  85.3759
 48.2476  7561.67  86.5142
 48.2896  7459.97  85.8294
 48.3316  7430.36  85.6018
 48.3736  7493.45  85.99
 48.4156  7374.1  85.1502
 48.4576  7384.04  85.5061
 48.4996  7492.73  85.5834
 48.5416  7495.96  85.9318
 48.5836  7479.38  85.4947
 48.6256  7419.63  85.3574
 48.6676  7303.51  85.2195
 48.7096  7393.39  84.9883
 48.7516  7372.17  85.0262
 48.7936  7255.87  84.4175
 48.8356  7350.58  85.0193
 48.8776  7355.51  85.6287
 48.9196  7498.25  85.8178
 48.9616  7293.39  85.0111
 49.0036  7404.05  86.0147
 49.0456  7250.58  85.0932
 49.0876  7417.84  85.5803
 49.1296  7221.06  84.6188
 49.1716  7329.3  85.1189
 49.2136  7456.18  85.7685
 49.2556  7434.84  85.6862
 49.2976  7413.68  85.6366
 49.3396  7296.49  85.0157
 49.3816  7423.68  85.1728
 49.4236  7365  85.252
 49.4656  7249.01  84.6037
 49.5076  7345.93  84.9184
 49.5496  7185.4  84.044
 49.5916  7365.1  85.0053
 49.6336  7316.77  84.9398
 49.6756  7388.95  85.5928
 49.7176  7346.32  85.281
 49.7596  7322.99  84.9078
 49.8016  7333.95  84.8923
 49.8436  7250.3  84.7085
 49.8856  7246.3  84.6927
 49.9276  7226.57  84.6789
 49.9696  7386.04  85.5891
 50.0116  7278.99  85.0971
 50.0536  7329.49  85.3396
 50.0956  7259.55  85.0016
 50.1376  7265.25  84.7222
 50.1796  7209.62  84.6796
 50.2216  7263.99  84.9942
 50.2636  7166.88  84.0345
 50.3056  7135.43  84.0296
 50.3476  7219.34  84.5359
 50.3896  7249.62  84.6906
 50.4316  7264.78  84.6133
 50.4736  7194.32  84.42
 50.5156  7269.37  84.8389
 50.5576  7337.89  84.9916
 50.5996  7268.38  84.8864
 50.6416  7243.81  84.6738
 50.6836  7262.41  84.8409
 50.7256  7326.21  85.1274
 50.7676  7326.62  85.4776
 50.8096  7276.4  84.7001
 50.8516  7175.2  84.5259
 50.8936  7163.57  84.2226
 50.9356  7286.08  85.0648
 50.9776  7135.9  84.3414
 51.0196  6943.49  83.3197
 51.0616  7041.26  83.2231
 51.1036  7093.48  83.8922
 51.1456  7154.33  84.1642
 51.1876  7211.01  83.8106
 51.2296  7099.73  83.8153
 51.2716  7003.63  82.9445
 51.3136  6916.6  82.894
 51.3556  7036.19  83.2154
 51.3976  6981.23  83.0506
 51.4396  6845.6  82.5499
 51.4816  7029.74  83.5069
 51.5236  7002.91  83.4378
 51.5656  6938.5  82.6436
 51.6076  7102.75  83.7047
 51.6496  6958.43  83.0338
 51.6916  7064.63  84.0346
 51.7336  6972.91  83.5776
 51.7756  6957.58  83.1752
 51.8176  6949.14  83.2418
 51.8596  7005.21  83.5908
 51.9016  7059.36  83.5115
 51.9436  7029.53  84.8558
 51.9856  7040.84  85.3436
 52.0276  7075.24  84.0014
 52.0696  7208.32  84.8758
 52.1116  7034.9  83.961
 52.1536  7103.02  84.2549
 52.1956  7057.92  83.4363
 52.2376  7211.2  84.5171
 52.2796  7188.89  84.1982
 52.3216  6995.31  83.7576
 52.3636  7084.34  83.827
 52.4056  7027.91  83.3729
 52.4476  7078.02  84.0305
 52.4896  6913.61  83.0937
 52.5316  7073.31  84.1204
 52.5736  6909.26  82.8439
 52.6156  7123.09  84.5332
 52.6576  7007.73  83.2631
 52.6996  6870.28  83.4397
 52.7416  6821.81  82.9949
 52.7836  6916.97  83.4653
 52.8256  6987.22  83.0853
 52.8676  6809.97  82.6012
 52.9096  6942.76  83.4752
 52.9516  7020.52  84.3361
 52.9936  6910.49  84.0584
 53.0356  6857.9  82.7398
 53.0776  6913.09  83.3466
 53.1196  6948.03  83.676
 53.1616  6935.58  83.6444
 53.2036  6836.26  83.0183
 53.2456  6874.81  83.3597
 53.2876  7008.79  83.839
 53.3296  7021.46  84.2418
 53.3716  7058.71  84.2322
 53.4136  7000.43  84.0286
 53.4556  6929.15  83.6338
 53.4976  6976.89  83.7537
 53.5396  6754.33  82.8124
 53.5816  6898.87  83.3181
 53.6236  6779.29  82.9512
 53.6656  7012.22  83.9575
 53.7076  6961.13  83.6178
 53.7496  7028.74  84.1408
 53.7916  6971.15  83.9457
 53.8336  6867.53  83.204
 53.8756  6768.92  83.1512
 53.9176  6773.53  82.521
 53.9596  6644.22  82.4876
 54.0016  6731.89  82.3617
 54.0436  6528.25  81.3212
 54.0856  6730.02  81.9875
 54.1276  6674.15  81.8508
 54.1696  6652.85  81.8743
 54.2116  6885.78  83.0399
 54.2536  6656.7  81.4629
 54.2956  6660.78  81.5341
 54.3376  6659.45  82.014
 54.3796  6572.82  81.3898
 54.4216  6655.04  81.9384
 54.4636  6682.94  82.0884
 54.5056  6663.18  81.761
 54.5476  6531.5  81.2886
 54.5896  6634.74  81.7754
 54.6316  6682.51  81.9081
 54.6736  6667.41  81.8912
 54.7156  6566.62  81.3009
 54.7576  6520.23  80.9756
 54.7996  6634.91  81.8609
 54.8416  6562.2  81.461
 54.8836  6637.97  82.0215
 54.9256  6556.62  81.2646
 54.9676  6456.26  80.5219
 55.0096  6575.26  81.2829
 55.0516  6421.16  80.5827
 55.0936  6528.19  80.9042
 55.1356  6398.67  80.1363
 55.1776  6643.36  81.9073
 55.2196  6446.97  80.4694
 55.2616  6604.57  81.6755
 55.3036  6540.82  81.4538
 55.3456  6402.45  80.7206
 55.3876  6504.02  81.0744
 55.4296  6371.92  80.2618
 55.4716  6453.02  80.7904
 55.5136  6433.33  80.4391
 55.5556  6655.15  81.8479
 55.5976  6487.76  80.9069
 55.6396  6580.5  81.4264
 55.6816  6412.05  80.2334
 55.7236  6361.77  79.9829
 55.7656  6460.74  80.3138
 55.8076  6403.62  79.9856
 55.8496  6366.56  80.0715
 55.8916  6309  79.9141
 55.9336  6525.9  81.0892
 55.9756  6321.78  79.6884
 56.0176  6428.59  80.5106
 56.0596  6510.68  81.0253
 56.1016  6280.77  79.591
 56.1436  6374.22  80.4357
 56.1856  6280.08  79.5857
 56.2276  6497.84  80.9995
 56.2696  6390  80.3153
 56.3116  6427.5  80.931
 56.3536  6443.29  80.6821
 56.3956  6403.51  80.4083
 56.4376  6427.57  80.6057
 56.4796  6193.38  78.9327
 56.5216  6298.99  80.0013
 56.5636  6262.98  79.339
 56.6056  6451.36  80.769
 56.6476  6332.79  79.6348
 56.6896  6474.29  80.9957
 56.7316  6262.17  79.5561
 56.7736  6349.22  80.0968
 56.8156  6314.61  79.9069
 56.8576  6108.38  78.531
 56.8996  6291.36  79.6066
 56.9416  6270.99  79.7982
 56.9836  6369.76  79.9558
 57.0256  6355.6  80.174
 57.0676  6459.72  80.9299
 57.1096  6311.53  79.7786
 57.1516  6186.28  79.0399
 57.1936  6320.6  79.6464
 57.2356  6199.12  79.2075
 57.2776  6234.61  79.4038
 57.3196  6306.41  80.2099
 57.3616  6234.62  79.2511
 57.4036  6311.35  79.788
 57.4456  6352.65  80.0254
 57.4876  6299.58  79.5627
 57.5296  6227.95  79.4195
 57.5716  6138.42  78.8656
 57.6136  6142.5  78.7306
 57.6556  6281.3  79.7287
 57.6976  6266.77  79.4755
 57.7396  6124.06  78.9034
 57.7816  6200.57  79.7916
 57.8236  6116.48  79.023
 57.8656  6239.7  79.478
 57.9076  6256.33  79.6009
 57.9496  6103.46  78.9906
 57.9916  6235.43  79.3471
 58.0336  6208.36  79.4518
 58.0756  6206.73  79.0784
 58.1176  6220.35  79.1675
 58.1596  6134.19  79.2007
 58.2016  5931.47  77.1015
 58.2436  6022.65  78.0986
 58.2856  5891.79  77.1673
 58.3276  5936.84  77.8346
 58.3696  6009.89  78.0686
 58.4116  5973.67  77.6966
 58.4536  6032.41  77.9682
 58.4956  5984.76  77.8349
 58.5376  5999.62  77.5047
 58.5796  5975.97  77.762
 58.6216  6084.65  78.2958
 58.6636  6007.97  78.0048
 58.7056  5923.73  77.3194
 58.7476  5803.55  76.9663
 58.7896  5915.66  77.3465
 58.8316  5940.87  77.5189
 58.8736  5859.64  76.9922
 58.9156  5881.57  77.184
 58.9576  5895.4  77.581
 58.9996  6007.93  77.5789
 59.0416  6010.49  77.9508
 59.0836  5909.34  77.2125
 59.1256  5828.08  77.3711
 59.1676  5883.52  78.0469
 59.2096  5970.08  77.9158
 59.2516  5940.07  77.3044
 59.2936  5829.35  76.9028
 59.3356  5883.16  77.1362
 59.3776  5987.63  77.9863
 59.4196  5791.91  76.639
 59.4616  5971.48  77.6783
 59.5036  5864.8  77.0163
 59.5456  6033.08  77.8068
 59.5876  5944.13  77.4206
 59.6296  5803.06  76.5643
 59.6716  5849.76  76.9287
 59.7136  5878.19  77.1039
 59.7556  5951.23  77.7169
 59.7976  5792.45  76.4206
 59.8396  5939.32  77.2786
 59.8816  5890.19  77.496
 59.9236  5917.53  77.3238
 59.9656  5756.01  76.5132
 60.0076  5844.02  76.4664
 60.0496  5924.84  77.4924
 60.0916  5990.83  77.3432
 60.1336  5942.25  78.1271
 60.1756  5802.47  78.3633
 60.1996  0.0000000E+00  0.0000000E+00