File: docs/examples/opeando_xrd/IS17_D/Data/IS17_D/17_Da_f00023.xye
# /beamlines/bl04/projects/cycle2025-II/20250340211-lsimonelli/DATA/IS17_D/17_Da_f00023.xye : mythproc.py merge -s 0.006 -l 0.5 -f /beamlines/bl04/inhouse/ff/FlatField/ff_20Nov2024rod8mm60s_17keV.raw -b True -c true -o xye /beamlines/bl04/projects/cycle2025-II/20250340211-lsimonelli/DATA/IS17_D/17_Da_00023.dat
# IsMon = [6790293, 6787654, 6789164]  IsPos = [-1.4999, -2.4885, -3.4986]
# Wave = 0.4962  CalPath /beamlines/bl04/projects/cycle2025-II/20250340211-lsimonelli/DATA/Align/Si_Pos1_25keV_f00001.cal
# Date = 2025-09-23_23:58:12 Dt = 4.8000  Bin = 0.0060  <imon> = 6789037 +/- 1081 (Min/Max) 6787654 / 6790293
# icurr 253.0099  mocoIn 1.7265E-05  mocoOut 0.8098  i15 7.10422e+06  imon 6.78904e+06  i7 7.6667  iEMpd_timer 4.8000  iEMpd_1 3.5482E-08  iEMpd_2 7.6999E-08  iEMpd_3 1.6232E-08  iEMpd_4 4.8233E-08  iEMhp_timer 4.8000  iEMhp_1 4.9434E-06  iEMhp_2 -2.4058E-08  iEMhp_3 -2.4199E-08  iEMhp_4 -2.1303E-08
#      9776
 1.5856  39270.9  203.469
 1.6276  46588.1  217.813
 1.6696  52805.4  231.074
 1.7116  62426.2  251.735
 1.7536  71672.6  268.586
 1.7956  76131.2  277.506
 1.8376  72208.4  270.69
 1.8796  60448.3  245.847
 1.9216  48633.9  221.395
 1.9636  40455.7  201.097
 2.0056  36276.5  189.688
 2.0476  33817.6  185.155
 2.0896  32408.8  180.194
 2.1316  31652.9  177.224
 2.1736  30207.6  174.504
 2.2156  30979.5  175.302
 2.2576  29385.7  171.345
 2.2996  28024.1  167.942
 2.3416  28468.8  167.914
 2.3836  28128.3  167.014
 2.4256  27298.9  165.069
 2.4676  26856.2  163.493
 2.5096  26906.9  163.701
 2.5516  30271.3  177.669
 2.5936  75015.2  273.971
 2.6356  28365.3  169.228
 2.6776  25804.2  160.307
 2.7196  24971.2  158.206
 2.7616  24804.9  157.464
 2.8036  24680.7  157.239
 2.8456  24722  157.975
 2.8876  24169.4  156.051
 2.9296  23628.5  154.443
 2.9716  23491.9  153.5
 3.0136  23595.9  153.905
 3.0556  23192.2  152.963
 3.0976  23277.4  152.19
 3.1396  22898.9  151.664
 3.1816  22752.7  151.115
 3.2236  22581.9  150.541
 3.2656  22683.7  149.948
 3.3076  22362.5  150.292
 3.3496  22778.5  150.883
 3.3916  23043.1  151.347
 3.4336  23673.6  153.97
 3.4756  24101.8  155.281
 3.5176  24610.1  156.711
 3.5596  24667.3  159.279
 3.6016  24947.7  157.84
 3.6436  23973.2  155.811
 3.6856  23528.4  152.683
 3.7276  22650.5  150.878
 3.7696  22550.7  150.734
 3.8116  22098.8  149.106
 3.8536  22223  149.454
 3.8956  22112.4  148.916
 3.9376  22304.2  149.843
 3.9796  22015.2  148.352
 4.0216  22096.8  147.687
 4.0636  21941.1  148.604
 4.1056  21941.9  148.26
 4.1476  22283.1  149.708
 4.1896  22429.5  150.066
 4.2316  22552.3  150.301
 4.2736  22967.4  151.47
 4.3156  23329.2  152.891
 4.3576  24152.6  155.489
 4.3996  24229.6  155.799
 4.4416  25072.8  158.272
 4.4836  25832.5  160.807
 4.5256  26048.7  162.078
 4.5676  25877.4  161.801
 4.6096  26342.2  161.913
 4.6516  26739.3  162.845
 4.6936  27039.6  164.564
 4.7356  27450.4  165.641
 4.7776  27204.3  164.733
 4.8196  26826  164.219
 4.8616  26310.3  162.255
 4.9036  26019.9  160.971
 4.9456  26099.7  161.867
 4.9876  25551.9  160.058
 5.0296  25668  160.235
 5.0716  25683.9  160.926
 5.1136  25686  160.781
 5.1556  26205.6  161.872
 5.1976  30020.9  173.235
 5.2396  26862.8  163.578
 5.2816  26424.2  162.686
 5.3236  26584.5  162.892
 5.3656  26406.6  163.259
 5.4076  25854.4  161.697
 5.4496  26053.3  161.811
 5.4916  26111.1  161.744
 5.5336  26070  161.629
 5.5756  25791.4  160.779
 5.6176  25916.5  160.619
 5.6596  26184.7  162.404
 5.7016  26379  162.289
 5.7436  26594.8  163.222
 5.7856  26388.3  162.645
 5.8276  26760.2  163.517
 5.8696  27010.4  164.444
 5.9116  26724.7  164.139
 5.9536  26944.8  164.589
 5.9956  27380.2  165.284
 6.0376  27489.5  166.251
 6.0796  27684.3  166.672
 6.1216  27642.2  166.754
 6.1636  27986.5  166.857
 6.2056  27920.9  167.324
 6.2476  27942.8  167.255
 6.2896  28252.2  167.865
 6.3316  28174.6  167.801
 6.3736  28305.5  168.093
 6.4156  28311.2  168.001
 6.4576  28401  167.885
 6.4996  28841.3  169.661
 6.5416  28635.1  169.185
 6.5836  29056.3  170.657
 6.6256  28903.8  169.77
 6.6676  29440.1  170.912
 6.7096  29152.2  170.909
 6.7516  29617.1  171.931
 6.7936  30306.7  173.092
 6.8356  30362.1  173.586
 6.8776  30503.7  174.793
 6.9196  30274.2  174.528
 6.9616  30780.3  175.398
 7.0036  31157.1  176.149
 7.0456  31059.3  175.18
 7.0876  30848.4  176.25
 7.1296  30989.7  175.801
 7.1716  31021.2  175.427
 7.2136  30677.7  174.243
 7.2556  30850.1  174.89
 7.2976  30665.7  174.857
 7.3396  30832.4  175.543
 7.3816  30775.4  175.592
 7.4236  31169  176.008
 7.4656  31167  175.491
 7.5076  31531.1  176.651
 7.5496  31230.9  176.338
 7.5916  31389.7  176.813
 7.6336  32021.2  178.481
 7.6756  31757.8  177.599
 7.7176  32196.3  179.12
 7.7596  32197.8  180.368
 7.8016  34618.1  189.235
 7.8436  33248  182.171
 7.8856  33120.2  181.443
 7.9276  33768.9  183.592
 7.9696  33855.7  184.137
 8.0116  35031.5  186.217
 8.0536  35084.1  186.253
 8.0956  36351.5  190.771
 8.1376  35515.7  188.037
 8.1796  35478.7  188.481
 8.2216  36521.5  189.974
 8.2636  37154.2  191.861
 8.3056  36760.8  191.606
 8.3476  37940.9  193.983
 8.3896  37470.9  193.303
 8.4316  36955.5  191.695
 8.4736  37278  191.993
 8.5156  36797.7  191.033
 8.5576  36718.6  191.795
 8.5996  36217  189.365
 8.6416  36345.8  190.952
 8.6836  36044.8  189.986
 8.7256  36897.1  191.668
 8.7676  37505.5  196.146
 8.8096  37429.1  193.23
 8.8516  35922.2  188.92
 8.8936  36629.8  190.651
 8.9356  35404.2  187.779
 8.9776  35579.6  188.346
 9.0196  35372.2  187.473
 9.0616  35476  187.215
 9.1036  36471.4  191.039
 9.1456  35169.1  186.959
 9.1876  34819.6  185.973
 9.2296  35037.3  185.964
 9.2716  34419.5  184.38
 9.3136  34309.5  184.071
 9.3556  34557.4  184.72
 9.3976  32993.2  181
 9.4396  33449  182.141
 9.4816  33009  180.802
 9.5236  33232.6  181.334
 9.5656  32817.3  180.509
 9.6076  32743.5  180.83
 9.6496  32674.9  180.567
 9.6916  32594.3  180.32
 9.7336  32533.8  179.931
 9.7756  32830.5  182.09
 9.8176  32026.3  179.263
 9.8596  31678.3  176.767
 9.9016  31542.3  176.381
 9.9436  31274.5  175.544
 9.9856  31081.5  175.221
 10.0276  30371.9  174.295
 10.0696  30962.4  175.033
 10.1116  30151.4  172.984
 10.1536  29868.1  172.332
 10.1956  29584.2  171.116
 10.2376  29106.7  169.239
 10.2796  29338.9  170.045
 10.3216  29011.2  169.353
 10.3636  28798.1  168.756
 10.4056  30233.7  173.334
 10.4476  30503.2  173.711
 10.4896  32382.7  178.412
 10.5316  30129.3  172.813
 10.5736  28224.9  167.663
 10.6156  28063.8  166.947
 10.6576  30927.1  173.779
 10.6996  27939  165.825
 10.7416  27384.9  164.411
 10.7836  28038.1  167.054
 10.8256  26852.8  163.904
 10.8676  27006.6  163.92
 10.9096  26797.1  163.313
 10.9516  26413.5  161.095
 10.9936  26758.7  162.333
 11.0356  26565  162.377
 11.0776  27184.5  163.571
 11.1196  26588.4  162.508
 11.1616  25683.5  159.422
 11.2036  26456.6  161.651
 11.2456  27147.3  164.472
 11.2876  25509.9  159.154
 11.3296  25680.8  159.593
 11.3716  25802  159.66
 11.4136  25548.5  159.764
 11.4556  25739.1  160.031
 11.4976  26593.1  161.631
 11.5396  27054.9  163.205
 11.5816  25836.7  159.939
 11.6236  25207.3  158.399
 11.6656  25254.6  157.507
 11.7076  24611.7  156.313
 11.7496  24660.7  160.32
 11.7916  24944.5  156.636
 11.8336  24183.6  155.13
 11.8756  24183.8  154.637
 11.9176  24268.1  154.82
 11.9596  23731  153.024
 12.0016  23893.3  154.338
 12.0436  23744  153.281
 12.0856  23458  152.879
 12.1276  23493.5  152.906
 12.1696  23688.4  152.691
 12.2116  23927.4  153.462
 12.2536  24736.1  156.868
 12.2956  23582.2  152.511
 12.3376  23472.9  152.355
 12.3796  23457.4  152.752
 12.4216  23556.1  152.314
 12.4636  24063.4  154.858
 12.5056  23457.6  152.177
 12.5476  23400.9  151.53
 12.5896  23446.4  152.305
 12.6316  23071  151.228
 12.6736  23320.2  152.375
 12.7156  23154.2  151.84
 12.7576  23199.2  152.229
 12.7996  23425.4  151.636
 12.8416  23449.1  152.751
 12.8836  23981.3  154.286
 12.9256  24038.8  153.511
 12.9676  23993.5  153.791
 13.0096  23540.3  153.406
 13.0516  23937.8  153.744
 13.0936  23633.4  153.156
 13.1356  24211.1  154.012
 13.1776  23999.1  154.311
 13.2196  23845.4  153.484
 13.2616  23638.3  153.122
 13.3036  23895.6  153.919
 13.3456  23755.9  153.616
 13.3876  23941.9  153.716
 13.4296  23562.6  152.643
 13.4716  24033.4  153.774
 13.5136  23735.4  152.97
 13.5556  23973  154.344
 13.5976  23886.8  154.203
 13.6396  24275.3  154.836
 13.6816  23745.7  153.617
 13.7236  24620.2  156.05
 13.7656  23836.9  154.085
 13.8076  24520.2  155.069
 13.8496  23769.9  153.265
 13.8916  23599.6  153.713
 13.9336  23570  152.855
 13.9756  23410.6  151.694
 14.0176  23302.9  152.016
 14.0596  24003.8  154.247
 14.1016  23125.5  151.79
 14.1436  22819.4  149.926
 14.1856  22656.4  149.682
 14.2276  22579.8  149.899
 14.2696  22841.2  150.611
 14.3116  22521.7  149.462
 14.3536  22077  148.149
 14.3956  21952.7  147.474
 14.4376  21973.6  147.314
 14.4796  22066.4  147.624
 14.5216  21545.2  146.646
 14.5636  21787.3  147.042
 14.6056  21681.6  146.265
 14.6476  21591.3  145.205
 14.6896  21207.3  144.442
 14.7316  20910.8  144.443
 14.7736  20909.6  143.591
 14.8156  20523.5  142.287
 14.8576  20528.6  142.163
 14.8996  20275.9  142.479
 14.9416  19563.3  139.957
 14.9836  19984.8  141.407
 15.0256  19744.5  139.508
 15.0676  19556.8  139.159
 15.1096  19519.4  138.766
 15.1516  19200.3  138.176
 15.1936  19305.5  137.989
 15.2356  18926.7  136.903
 15.2776  19112.7  137.164
 15.3196  18843.2  137.186
 15.3616  18583.2  135.993
 15.4036  18532.7  135.677
 15.4456  18875.9  136.342
 15.4876  18493.1  134.864
 15.5296  18255.6  134.275
 15.5716  17902.9  132.584
 15.6136  18110.7  133.669
 15.6556  19040.1  136.288
 15.6976  18224.6  133.414
 15.7396  17982.3  133.124
 15.7816  17852.5  132.162
 15.8236  17392  131.13
 15.8656  17460.5  131.178
 15.9076  17328.1  130.51
 15.9496  17558.8  134.141
 15.9916  17062.3  132.68
 16.0336  16869.2  128.85
 16.0756  17012.3  129.708
 16.1176  16768.1  128.842
 16.1596  16398.5  128.565
 16.2016  16514.9  127.795
 16.2436  16451  127.927
 16.2856  16249.6  126.691
 16.3276  16119.6  126.592
 16.3696  16201.7  126.732
 16.4116  16148.5  126.985
 16.4536  16485  128.084
 16.4956  16448.1  127.68
 16.5376  16269.4  127.166
 16.5796  16098.6  125.863
 16.6216  15946.1  125.571
 16.6636  16151.7  126.531
 16.7056  15947.4  125.594
 16.7476  16096.4  125.865
 16.7896  16015.5  126.143
 16.8316  15871.1  125.541
 16.8736  15978  126.214
 16.9156  15990.6  126.597
 16.9576  15689.3  126.193
 16.9996  15831.7  127.248
 17.0416  15744.8  125.279
 17.0836  15647.1  124.649
 17.1256  15511.9  124.115
 17.1676  15831.2  125.39
 17.2096  15606.4  124.369
 17.2516  15370.2  123.202
 17.2936  15303.8  123.261
 17.3356  14939.2  121.78
 17.3776  15051.4  122.43
 17.4196  15209.1  122.774
 17.4616  15085.6  122.192
 17.5036  15188.7  122.974
 17.5456  14553.4  120.995
 17.5876  14789.3  121.035
 17.6296  14751.6  120.696
 17.6716  14758.4  121.298
 17.7136  14858.2  121.842
 17.7556  14633.9  121.213
 17.7976  14658.4  120.929
 17.8396  14616.6  120.388
 17.8816  14385.8  119.972
 17.9236  14289.9  119.383
 17.9656  14553.8  121.179
 18.0076  14840.4  121.775
 18.0496  14872.9  121.04
 18.0916  17268  130.999
 18.1336  16062.7  126.454
 18.1756  14986.2  121.678
 18.2176  15416.9  123.639
 18.2596  14526.6  119.758
 18.3016  14959  121.781
 18.3436  15031.9  122.318
 18.3856  14420.2  119.702
 18.4276  14310.6  118.924
 18.4696  14491.8  119.775
 18.5116  14540.8  120.264
 18.5536  14449.7  120.245
 18.5956  14255.9  118.991
 18.6376  14350.8  119.795
 18.6796  14170.9  118.361
 18.7216  14278  119.372
 18.7636  14078.5  118.442
 18.8056  13904.7  117.658
 18.8476  13671  116.977
 18.8896  13781.8  117.096
 18.9316  14023.1  117.944
 18.9736  13762.9  116.704
 19.0156  14158.4  118.758
 19.0576  13950.4  116.769
 19.0996  13943.5  117.441
 19.1416  13804.8  117.246
 19.1836  13716  116.481
 19.2256  13482.9  115.688
 19.2676  13680.4  116.633
 19.3096  13592.4  116.499
 19.3516  13493.8  116.032
 19.3936  13727.2  117.001
 19.4356  13718.6  116.767
 19.4776  13640.5  116.53
 19.5196  13653.5  116.439
 19.5616  13644.2  116.654
 19.6036  13643  116.008
 19.6456  13637.4  116.247
 19.6876  13979.8  117.345
 19.7296  13690  116.569
 19.7716  13658.7  116.452
 19.8136  13828.6  117.523
 19.8556  13970.1  117.61
 19.8976  14125.1  118.327
 19.9396  13978.2  117.282
 19.9816  14296.7  118.864
 20.0236  14509.2  119.959
 20.0656  14201.5  118.679
 20.1076  13827.1  117.551
 20.1496  13719.2  117.106
 20.1916  13650.1  116.326
 20.2336  13703.2  116.492
 20.2756  13203.7  114.769
 20.3176  13201.5  114.512
 20.3596  13205.4  114.508
 20.4016  13340.2  114.894
 20.4436  13288.2  115.234
 20.4856  13044.1  113.95
 20.5276  13001.3  114.217
 20.5696  13033.9  113.824
 20.6116  13058.1  114.205
 20.6536  12950.6  113.305
 20.6956  12945.9  113.352
 20.7376  13010.9  113.867
 20.7796  12964.9  113.353
 20.8216  13020.5  113.309
 20.8636  13084.4  113.95
 20.9056  13666.1  116.407
 20.9476  12930.2  113.062
 20.9896  13614.1  115.884
 21.0316  13059.1  113.4
 21.0736  12886.3  113.156
 21.1156  13175.8  114.581
 21.1576  13059.8  114.124
 21.1996  12765.4  112.808
 21.2416  12673.7  112.238
 21.2836  12875.1  113.093
 21.3256  12728.1  112.523
 21.3676  12882.2  112.755
 21.4096  12789  112.654
 21.4516  12729.9  112.277
 21.4936  12578.9  111.852
 21.5356  12733.7  112.493
 21.5776  12626.6  111.85
 21.6196  12658.6  112.032
 21.6616  12573.1  111.736
 21.7036  12680.5  111.992
 21.7456  12648.2  111.925
 21.7876  12418.2  110.656
 21.8296  12391.1  110.396
 21.8716  12346.5  110.422
 21.9136  12649.1  111.967
 21.9556  12713.6  111.923
 21.9976  12456  110.796
 22.0396  12323.4  110.458
 22.0816  12570  112.098
 22.1236  12626.2  111.8
 22.1656  12488.8  111.384
 22.2076  12430.6  110.547
 22.2496  12531.3  111.022
 22.2916  12386.1  110.256
 22.3336  12578.2  111.812
 22.3756  12475.2  111.098
 22.4176  12272.5  110.05
 22.4596  12156.7  110.104
 22.5016  12496.9  111.127
 22.5436  12474.4  110.915
 22.5856  12504.3  111.295
 22.6276  12380.3  110.875
 22.6696  12315.8  110.929
 22.7116  12256.7  110.188
 22.7536  12347.5  110.57
 22.7956  12497.6  110.577
 22.8376  12296.6  110.192
 22.8796  12362.3  110.294
 22.9216  12348.1  110.773
 22.9636  12463  110.443
 23.0056  12352.9  110.086
 23.0476  12353.5  110.657
 23.0896  12659.3  111.394
 23.1316  12740  112.184
 23.1736  12309.2  113.173
 23.2156  12461.3  111.181
 23.2576  12354.2  110.909
 23.2996  12186.8  109.954
 23.3416  12092.7  110.025
 23.3836  12441.6  110.829
 23.4256  12416.7  110.84
 23.4676  12439.3  110.652
 23.5096  12407.9  111.183
 23.5516  12251.1  109.769
 23.5936  12394.6  111.298
 23.6356  12653.7  112.123
 23.6776  12326.5  111.216
 23.7196  12149.1  109.66
 23.7616  12375.3  110.604
 23.8036  12336.6  110.458
 23.8456  12291.9  109.847
 23.8876  12083.6  109.252
 23.9296  12169.9  110.126
 23.9716  12044.1  108.764
 24.0136  12070  109.759
 24.0556  11948  108.949
 24.0976  11870.9  108.401
 24.1396  11814.5  110.761
 24.1816  11921.8  110.034
 24.2236  11878.5  109.119
 24.2656  11804.8  108.261
 24.3076  11849.3  108.718
 24.3496  11951.8  109.076
 24.3916  11851  108.661
 24.4336  11713  108.232
 24.4756  11617  107.656
 24.5176  11475.4  106.655
 24.5596  11466.8  106.741
 24.6016  11364.8  106.547
 24.6436  11464.3  106.502
 24.6856  11421.3  106.074
 24.7276  11569.3  107.079
 24.7696  11358  106.203
 24.8116  11362.4  106.404
 24.8536  11309.5  106.149
 24.8956  11304.5  105.868
 24.9376  11291.2  105.744
 24.9796  11035.2  104.886
 25.0216  11006.2  104.853
 25.0636  11307.3  105.934
 25.1056  11014.5  104.987
 25.1476  11119.8  107.404
 25.1896  11108.2  105.843
 25.2316  11056.2  104.759
 25.2736  11075.6  104.621
 25.3156  11016.4  104.412
 25.3576  10938.4  104.456
 25.3996  11026  104.861
 25.4416  11036.6  104.891
 25.4836  10788  104.221
 25.5256  10897.2  104.118
 25.5676  10957.5  104.14
 25.6096  10710.3  103.521
 25.6516  10915.7  104.01
 25.6936  10798.2  103.75
 25.7356  10726.3  103.545
 25.7776  10885.7  103.917
 25.8196  10753.1  103.516
 25.8616  10818.9  103.755
 25.9036  11097.1  104.553
 25.9456  10713.8  103.323
 25.9876  10613.8  102.899
 26.0296  10806.1  103.433
 26.0716  10675.1  103.122
 26.1136  10864  103.983
 26.1556  10890.2  103.394
 26.1976  10653  103.272
 26.2396  10793.8  103.363
 26.2816  10725.2  103.375
 26.3236  10751.8  103.597
 26.3656  10725.4  103.27
 26.4076  10840.6  104.03
 26.4496  11214.4  105.305
 26.4916  10809  103.386
 26.5336  10671.7  103.047
 26.5756  11006.9  104.517
 26.6176  10688  103.04
 26.6596  10583.9  102.839
 26.7016  10559  102.522
 26.7436  10407.2  101.866
 26.7856  10258.9  101.123
 26.8276  10467.4  102.097
 26.8696  10393.2  101.612
 26.9116  10405  101.615
 26.9536  10296.2  101.13
 26.9956  10261.6  100.99
 27.0376  10337.2  101.571
 27.0796  10343.8  101.384
 27.1216  10324.9  101.32
 27.1636  10248.6  101.112
 27.2056  10246.9  100.985
 27.2476  10296  101.231
 27.2896  10142.1  100.512
 27.3316  10262  100.887
 27.3736  10184.5  100.771
 27.4156  10069.3  100.038
 27.4576  10210.2  100.969
 27.4996  10150.8  100.269
 27.5416  10258.6  101.123
 27.5836  10091  100.113
 27.6256  10239  100.99
 27.6676  10266.1  101.167
 27.7096  10134.9  100.38
 27.7516  10370.5  101.694
 27.7936  10232.6  101.175
 27.8356  10182.5  100.553
 27.8776  10103.2  100.205
 27.9196  10036.8  99.7309
 27.9616  10224.3  100.851
 28.0036  10039.5  99.911
 28.0456  9977.22  99.7292
 28.0876  9922.7  99.5449
 28.1296  10034.2  99.9405
 28.1716  9927.02  99.4148
 28.2136  9937.73  99.4369
 28.2556  9847.46  99.0916
 28.2976  9875.35  99.2296
 28.3396  9912.02  99.2124
 28.3816  9954.22  99.4054
 28.4236  9992.91  99.7552
 28.4656  9760.65  98.6196
 28.5076  9774.21  98.3286
 28.5496  9675.88  98.0918
 28.5916  9742.58  98.2342
 28.6336  9600.56  97.8531
 28.6756  9806.72  98.1076
 28.7176  9750.83  98.3658
 28.7596  9583.33  97.4209
 28.8016  9656  97.9105
 28.8436  9662.7  98.0998
 28.8856  9647.53  97.8716
 28.9276  9577.39  97.7599
 28.9696  9654.78  97.8119
 29.0116  9480.63  97.0943
 29.0536  9508.9  97.4522
 29.0956  9625.89  97.7712
 29.1376  9591.39  97.5553
 29.1796  9553.6  97.4115
 29.2216  9487.22  96.9183
 29.2636  9519.4  97.0639
 29.3056  9610.43  97.4114
 29.3476  9535.01  97.545
 29.3896  9544.87  97.6914
 29.4316  9569.66  97.1707
 29.4736  9509.62  96.9261
 29.5156  9570.67  97.1608
 29.5576  9400.58  97.0237
 29.5996  9525.92  96.9312
 29.6416  9440.67  96.6143
 29.6836  9619.6  97.4537
 29.7256  9394.38  96.8615
 29.7676  9574  97.444
 29.8096  9539.99  97.2149
 29.8516  9251.53  96.0538
 29.8936  9451.68  97.1844
 29.9356  9518.29  97.2876
 29.9776  9437.52  97.0269
 30.0196  9383.72  96.1407
 30.0616  9438.86  96.7966
 30.1036  9416.23  96.5073
 30.1456  9244.42  95.8755
 30.1876  9210.73  95.6573
 30.2296  9297.83  96.0515
 30.2716  9262.49  95.5156
 30.3136  9347  96.5366
 30.3556  9333.82  96.7385
 30.3976  9443.29  98.8202
 30.4396  9464.75  96.2723
 30.4816  9333.7  95.2067
 30.5236  9383.42  95.4782
 30.5656  9239.26  95.3878
 30.6076  9358.96  95.4361
 30.6496  9309.78  95.5681
 30.6916  9175.44  94.9705
 30.7336  9198.02  95.2348
 30.7756  9337.21  96.2619
 30.8176  9149.75  94.992
 30.8596  9219.76  95.1273
 30.9016  9091.32  94.7923
 30.9436  9181.98  95.0243
 30.9856  9361.09  96.0467
 31.0276  9197.84  94.814
 31.0696  9139.26  94.9578
 31.1116  9211.54  95.4445
 31.1536  9249  95.5239
 31.1956  9131.07  94.9979
 31.2376  8967.8  94.1556
 31.2796  9007.33  93.9053
 31.3216  9085.74  94.2604
 31.3636  9173.94  95.4041
 31.4056  9132.14  96.5096
 31.4476  9066.88  94.0618
 31.4896  8972.69  94.0673
 31.5316  9092.81  94.1436
 31.5736  9351.82  95.247
 31.6156  9212.17  94.5584
 31.6576  9063.26  93.8864
 31.6996  9274.46  94.6448
 31.7416  9133.58  94.9817
 31.7836  9133.24  93.9982
 31.8256  8983.53  93.5687
 31.8676  9015.63  93.6493
 31.9096  8891.49  93.3577
 31.9516  8954.52  93.8471
 31.9936  8905.32  93.4218
 32.0356  9013.43  94.0477
 32.0776  9037.87  94.062
 32.1196  8866.92  93.2549
 32.1616  8951.07  93.1592
 32.2036  8884.76  93.318
 32.2456  8877.72  93.6579
 32.2876  8884.47  93.0361
 32.3296  9029.12  93.9188
 32.3716  8846.57  93.0758
 32.4136  8985.01  94.0068
 32.4556  8987.62  93.4602
 32.4976  8999.66  93.3748
 32.5396  8789.03  92.3473
 32.5816  8882.53  92.8462
 32.6236  8758.51  92.3734
 32.6656  8930.74  93.8124
 32.7076  8725.3  92.3847
 32.7496  8768.38  92.2918
 32.7916  8890.1  92.8868
 32.8336  8813.68  92.5847
 32.8756  8781.87  92.2321
 32.9176  8756.15  92.4839
 32.9596  8791.87  92.7383
 33.0016  8926.38  93.2482
 33.0436  8915.36  93.3638
 33.0856  8770.69  92.6669
 33.1276  8757.71  92.3361
 33.1696  8738.38  92.0789
 33.2116  8763.43  92.4351
 33.2536  8775.89  92.4983
 33.2956  8833.48  92.8881
 33.3376  8698.42  91.8795
 33.3796  8764.66  92.4674
 33.4216  8837.72  92.4599
 33.4636  8727.14  92.022
 33.5056  8759.4  92.266
 33.5476  8656.92  91.8737
 33.5896  8689.34  91.8114
 33.6316  8605.01  91.6887
 33.6736  8531.95  91.5385
 33.7156  8482.75  91.3197
 33.7576  8670.09  91.9582
 33.7996  8758.88  92.195
 33.8416  8432.47  90.6293
 33.8836  8668.41  91.6746
 33.9256  8583.78  91.2847
 33.9676  8645.55  91.5106
 34.0096  8443.83  90.7412
 34.0516  8458.19  90.4725
 34.0936  8541  91.1681
 34.1356  8540.08  90.9141
 34.1776  8482.83  90.6243
 34.2196  8543.05  91.1178
 34.2616  8480.46  90.9817
 34.3036  8453.85  91.0177
 34.3456  8414.02  90.5601
 34.3876  8391.9  90.4056
 34.4296  8416.44  90.2274
 34.4716  8510.03  90.8742
 34.5136  8502.09  91.0457
 34.5556  8418.38  90.8386
 34.5976  8493.86  91.0541
 34.6396  8299.02  89.7185
 34.6816  8506.71  90.9453
 34.7236  8523.42  90.8236
 34.7656  8376.06  90.2328
 34.8076  8400.67  90.6897
 34.8496  8403.38  90.5527
 34.8916  8497.89  90.9365
 34.9336  8505.86  90.9432
 34.9756  8851.2  92.6718
 35.0176  8454.27  91.1119
 35.0596  8413.02  90.7178
 35.1016  8399.75  90.4178
 35.1436  8663.83  91.5146
 35.1856  8352.61  89.9809
 35.2276  8433.26  90.5902
 35.2696  8295.01  90.0302
 35.3116  8352.62  90.4345
 35.3536  8232.31  89.4961
 35.3956  8270.52  89.4148
 35.4376  8248.98  89.8374
 35.4796  8383.83  90.6385
 35.5216  8202.99  89.5343
 35.5636  8015.12  89.3062
 35.6056  8245.25  89.6095
 35.6476  8305.3  89.8364
 35.6896  8317.03  90.0568
 35.7316  8256.97  89.6357
 35.7736  8190.43  89.4681
 35.8156  8171.99  89.3611
 35.8576  8301.65  90.3116
 35.8996  8419.42  90.9248
 35.9416  8322.43  89.9014
 35.9836  8230.17  89.7503
 36.0256  8214.39  89.6817
 36.0676  8225.3  89.2896
 36.1096  8185.71  89.4294
 36.1516  8246.71  89.6442
 36.1936  8139.52  88.9115
 36.2356  8187.13  89.8109
 36.2776  8257.99  89.6784
 36.3196  8259.61  89.3612
 36.3616  8122.38  88.7475
 36.4036  8211.52  89.2794
 36.4456  8142.57  89.1208
 36.4876  7996.19  88.2538
 36.5296  8158.69  89.1849
 36.5716  8223.28  90.3169
 36.6136  8418.59  90.1562
 36.6556  8365.5  90.0747
 36.6976  8267.85  90.0443
 36.7396  8149.7  89.2244
 36.7816  8173.68  89.636
 36.8236  8049.55  88.8735
 36.8656  8026.83  88.8226
 36.9076  8155.94  89.5391
 36.9496  8026.41  88.838
 36.9916  7999.33  88.1723
 37.0336  8201.96  89.5945
 37.0756  8087.12  88.7604
 37.1176  8047.37  88.8959
 37.1596  7992.13  88.5095
 37.2016  8115.53  89.3661
 37.2436  8128.3  88.8057
 37.2856  8051.77  88.6361
 37.3276  8196.13  88.7769
 37.3696  8031.37  88.763
 37.4116  8081.4  88.9413
 37.4536  8115.56  88.997
 37.4956  7909.49  87.8975
 37.5376  8016.1  90.0304
 37.5796  7952.43  89.6369
 37.6216  7949.69  87.8973
 37.6636  7903.86  87.5374
 37.7056  7950.13  87.9882
 37.7476  7983.05  87.7081
 37.7896  7949.78  88.0083
 37.8316  7728.73  86.9574
 37.8736  7983.02  87.9068
 37.9156  7835.25  87.0847
 37.9576  7828.48  87.0885
 37.9996  7845.3  86.7558
 38.0416  7845.46  87.5567
 38.0836  7969.34  88.1524
 38.1256  7923.6  87.8585
 38.1676  7776.23  87.1748
 38.2096  7936.11  87.6903
 38.2516  8062.33  88.4887
 38.2936  7892.94  87.4508
 38.3356  7936.74  87.6049
 38.3776  7771.04  86.964
 38.4196  7955.04  87.8452
 38.4616  7867.56  87.5922
 38.5036  8131.99  88.8988
 38.5456  7776  87.759
 38.5876  7834.67  88.1234
 38.6296  7733.76  86.5407
 38.6716  7791.77  86.6592
 38.7136  7637.79  85.7422
 38.7556  7792.99  87.1072
 38.7976  7780.9  86.9805
 38.8396  7648.49  86.681
 38.8816  7681.11  86.6522
 38.9236  7666.01  86.3771
 38.9656  7735.13  86.6812
 39.0076  7863.02  86.8048
 39.0496  7740.33  86.6533
 39.0916  7854.62  86.9299
 39.1336  7724.81  86.6243
 39.1756  7808.44  87.1673
 39.2176  7737.92  87.3001
 39.2596  7756.54  87.3239
 39.3016  7803.89  87.1665
 39.3436  7661.55  86.785
 39.3856  7815.41  87.1015
 39.4276  7782.09  87.4089
 39.4696  7678  86.4465
 39.5116  7667.39  86.8977
 39.5536  7980.28  89.0865
 39.5956  7785.16  87.1001
 39.6376  7716.55  86.5506
 39.6796  7802.89  86.9471
 39.7216  7852.97  87.3167
 39.7636  7726.85  87.1805
 39.8056  7884.47  87.8412
 39.8476  7721.47  87.1798
 39.8896  7791.52  87.1991
 39.9316  7686.46  86.8713
 39.9736  7835.77  87.2811
 40.0156  7804.45  86.9293
 40.0576  7794.3  87.2365
 40.0996  7832.61  86.6388
 40.1416  7795.44  87.2164
 40.1836  7809.13  87.1828
 40.2256  7899.32  87.7289
 40.2676  7757.7  87.0422
 40.3096  7885.65  87.6778
 40.3516  7839.1  87.6142
 40.3936  7919.8  87.5434
 40.4356  7812.69  87.1404
 40.4776  7867.82  87.8618
 40.5196  7809  87.6555
 40.5616  7807.71  87.291
 40.6036  7791.66  87.4544
 40.6456  7938.98  87.8857
 40.6876  7911.12  87.721
 40.7296  7915.19  87.8838
 40.7716  7774.16  87.2221
 40.8136  7813.29  87.3873
 40.8556  7816.1  87.5269
 40.8976  7804.24  87.3852
 40.9396  7722.08  87.268
 40.9816  7993.13  88.072
 41.0236  7827.54  86.9375
 41.0656  8008.68  88.474
 41.1076  7831.74  87.2688
 41.1496  7864.39  87.3598
 41.1916  7709.68  86.8153
 41.2336  7746.09  87.0032
 41.2756  7824.11  87.0528
 41.3176  7896.84  88.0669
 41.3596  7794.34  87.2295
 41.4016  7855.1  87.8263
 41.4436  7911.68  87.9279
 41.4856  7863.3  87.8275
 41.5276  7711.27  86.9879
 41.5696  7815.7  87.1956
 41.6116  7744.93  87.2026
 41.6536  7849.73  87.6511
 41.6956  7702.89  86.8748
 41.7376  7712.58  86.9601
 41.7796  7803.32  87.4048
 41.8216  7849.54  87.8507
 41.8636  7830.56  87.6871
 41.9056  7682.69  86.6401
 41.9476  7767.97  87.3602
 41.9896  7835.11  87.3993
 42.0316  7758.61  87.0543
 42.0736  7795.82  87.3686
 42.1156  7771.19  87.0741
 42.1576  7766.1  87.1461
 42.1996  7823.6  87.6058
 42.2416  7824.66  87.1952
 42.2836  7706.62  86.6504
 42.3256  7616.99  86.2578
 42.3676  7685.58  86.4484
 42.4096  7814.84  87.1369
 42.4516  7715.65  86.6637
 42.4936  7695.44  86.6247
 42.5356  7753.55  87.0859
 42.5776  7772.21  87.1303
 42.6196  7706.15  86.7332
 42.6616  7636.34  86.5814
 42.7036  7786.91  86.8202
 42.7456  7680.35  86.5741
 42.7876  7627.43  86.3743
 42.8296  7657.08  86.4422
 42.8716  7649.95  86.4995
 42.9136  7624.87  86.1454
 42.9556  7718.59  86.81
 42.9976  7753.93  86.9686
 43.0396  7639.74  86.0582
 43.0816  7713.52  86.8505
 43.1236  7578.47  86.1471
 43.1656  7673.96  86.5201
 43.2076  7616.15  86.2953
 43.2496  7612.09  86.0846
 43.2916  7586.01  86.302
 43.3336  7658.91  86.5561
 43.3756  7597.65  85.9643
 43.4176  7491.12  85.4412
 43.4596  7453.85  85.0853
 43.5016  7536.74  85.9595
 43.5436  7528.79  85.8131
 43.5856  7574.67  86.1002
 43.6276  7585.06  86.0577
 43.6696  7556.99  86.0414
 43.7116  7501.06  85.3383
 43.7536  7637.33  86.6001
 43.7956  7429.68  86.5896
 43.8376  7459.98  85.3323
 43.8796  7447.31  85.3347
 43.9216  7517.42  85.6517
 43.9636  7583.49  86.1318
 44.0056  7470.27  85.7224
 44.0476  7431.82  85.1354
 44.0896  7490.01  85.8092
 44.1316  7485.45  85.4505
 44.1736  7564.45  85.8823
 44.2156  7464.79  85.1682
 44.2576  7283.31  84.4493
 44.2996  7409.08  85.1499
 44.3416  7509.83  85.4805
 44.3836  7382.8  85.0802
 44.4256  7359.2  84.5909
 44.4676  7291.48  84.3591
 44.5096  7347.86  84.8199
 44.5516  7347.86  84.788
 44.5936  7241.41  84.1292
 44.6356  7315  84.297
 44.6776  7446.67  85.3658
 44.7196  7265.56  84.589
 44.7616  7307.99  86.1733
 44.8036  7234.01  84.1884
 44.8456  7425.67  85.4954
 44.8876  7263.48  84.4097
 44.9296  7279.77  83.9601
 44.9716  7286.78  84.4316
 45.0136  7268.21  84.2585
 45.0556  7341.98  84.6561
 45.0976  7212.44  84.0693
 45.1396  7134.97  83.388
 45.1816  7237.98  83.75
 45.2236  7304.46  84.1987
 45.2656  7169  83.9132
 45.3076  7109.81  83.3503
 45.3496  7216.72  84.2769
 45.3916  7205.45  84.4719
 45.4336  7166.67  84.0935
 45.4756  7164.21  83.9438
 45.5176  7224.56  83.9112
 45.5596  7257.37  84.2258
 45.6016  7019.88  83.2416
 45.6436  7077.88  82.783
 45.6856  7128.94  83.7253
 45.7276  7216.42  86.0455
 45.7696  7233  85.306
 45.8116  7191.27  84.5192
 45.8536  7164.31  84.25
 45.8956  7192.48  83.7798
 45.9376  7219.97  83.4124
 45.9796  7213.6  84.0534
 46.0216  7205.15  84.3419
 46.0636  7262.78  83.8339
 46.1056  7173.34  83.2984
 46.1476  7267.89  84.4318
 46.1896  7150.88  83.8981
 46.2316  7171.92  83.8908
 46.2736  7067.05  83.6366
 46.3156  7243.04  84.262
 46.3576  7056.78  83.371
 46.3996  7066.08  83.5828
 46.4416  7189.03  83.8874
 46.4836  7103.8  83.7376
 46.5256  7145.25  83.9218
 46.5676  7136.21  83.9799
 46.6096  7246.05  84.5642
 46.6516  7158.88  83.1027
 46.6936  7161.36  83.6007
 46.7356  7190.63  83.8709
 46.7776  7091.82  84.1331
 46.8196  7025.84  83.3435
 46.8616  6902.32  82.5523
 46.9036  6926.37  82.3689
 46.9456  7056.48  82.7797
 46.9876  7018.43  82.6392
 47.0296  6911.07  82.6724
 47.0716  6887.43  82.3573
 47.1136  7015.43  82.802
 47.1556  6902.99  82.0095
 47.1976  7115.07  83.3367
 47.2396  7007.54  83.1011
 47.2816  6919.82  82.2874
 47.3236  6857.44  82.2775
 47.3656  6972.26  82.8935
 47.4076  6920.46  82.3881
 47.4496  6927.17  82.5174
 47.4916  6922.97  82.684
 47.5336  7000.42  82.9627
 47.5756  6984.11  82.9456
 47.6176  6901.9  82.3944
 47.6596  6918.69  82.2187
 47.7016  7081  82.9937
 47.7436  6921.84  82.3836
 47.7856  7106.51  83.4897
 47.8276  6894.47  82.2868
 47.8696  6919.1  82.517
 47.9116  6995.95  82.6965
 47.9536  6949.92  82.3702
 47.9956  6766.18  81.9596
 48.0376  6894.85  82.5183
 48.0796  6941.58  82.9162
 48.1216  7011.86  83.1644
 48.1636  7013.63  82.7488
 48.2056  6965.89  82.7283
 48.2476  6911.71  82.7074
 48.2896  6903.53  82.5694
 48.3316  6894.45  82.4564
 48.3736  6874.63  82.3646
 48.4156  6812.95  81.8544
 48.4576  6731.4  81.6379
 48.4996  6945.32  82.3986
 48.5416  6855.34  82.1745
 48.5836  6841.04  81.7728
 48.6256  6797.46  81.7229
 48.6676  6906.71  82.8748
 48.7096  6825.98  81.6677
 48.7516  6841.54  81.9124
 48.7936  6703.05  81.1443
 48.8356  6767.75  81.5761
 48.8776  6897.1  82.8393
 48.9196  6908.11  82.3604
 48.9616  6683.84  81.3841
 49.0036  6739.51  82.0588
 49.0456  6812.66  82.4874
 49.0876  6745.14  81.7239
 49.1296  6770.01  81.9345
 49.1716  6668.46  81.1959
 49.2136  6798.33  81.907
 49.2556  6803.02  81.9699
 49.2976  6826.49  82.1741
 49.3396  6772.37  81.9019
 49.3816  6775.97  81.3679
 49.4236  6686.2  81.2406
 49.4656  6659.1  81.0941
 49.5076  6768.35  81.5116
 49.5496  6730.91  81.228
 49.5916  6715.26  81.1655
 49.6336  6666.29  81.0683
 49.6756  6768.07  81.9175
 49.7176  6700.47  81.4423
 49.7596  6772.3  81.8254
 49.8016  6793.03  81.7044
 49.8436  6693.51  81.3899
 49.8856  6665.77  81.2244
 49.9276  6632.26  81.122
 49.9696  6603.15  80.927
 50.0116  6709.82  81.6998
 50.0536  6623.39  81.123
 50.0956  6607.9  81.0996
 50.1376  6698.99  81.3574
 50.1796  6547.6  80.6982
 50.2216  6626.03  81.1781
 50.2636  6630.13  80.8264
 50.3056  6579.89  80.6949
 50.3476  6644.06  81.1097
 50.3896  6585.02  80.7139
 50.4316  6635.9  80.8676
 50.4736  6570.03  80.679
 50.5156  6599.73  80.8565
 50.5576  6649.61  80.9144
 50.5996  6603.57  80.9133
 50.6416  6493.64  80.1658
 50.6836  6554.56  80.6032
 50.7256  6632.74  81.0014
 50.7676  6680.15  81.5615
 50.8096  6542.64  80.3155
 50.8516  6557.51  80.8136
 50.8936  6501.6  80.2549
 50.9356  6544.96  80.6194
 50.9776  6600.69  81.1156
 51.0196  6391.76  79.9538
 51.0616  6402.38  79.3625
 51.1036  6516.68  80.418
 51.1456  6476.81  80.0891
 51.1876  6576.05  80.0542
 51.2296  6369.46  79.4014
 51.2716  6434.57  79.5163
 51.3136  6255.83  78.8449
 51.3556  6443.13  79.6467
 51.3976  6439.84  79.7783
 51.4396  6269.91  79.0135
 51.4816  6446.44  79.968
 51.5236  6433.94  79.9768
 51.5656  6421.85  79.518
 51.6076  6358.03  79.2009
 51.6496  6467.76  80.0671
 51.6916  6254.19  79.0769
 51.7336  6465.61  80.4897
 51.7756  6493.37  80.3701
 51.8176  6415.75  79.9779
 51.8596  6378.44  79.7727
 51.9016  6440.55  79.7763
 51.9436  6379.59  80.8023
 51.9856  6314.27  80.8216
 52.0276  6276.2  79.131
 52.0696  6430.63  80.1598
 52.1116  6417.56  80.1991
 52.1536  6312.29  79.4206
 52.1956  6493.73  80.0333
 52.2376  6426.09  79.7819
 52.2796  6372.76  79.2608
 52.3216  6219.15  78.973
 52.3636  6448.71  80.0012
 52.4056  6314.59  79.0199
 52.4476  6354.63  79.6308
 52.4896  6198.05  78.697
 52.5316  6288.69  79.3124
 52.5736  6279.53  78.9872
 52.6156  6323.54  79.6306
 52.6576  6386.33  79.4876
 52.6996  6166.39  79.044
 52.7416  6266.65  79.547
 52.7836  6379.47  80.1296
 52.8256  6343.02  79.1507
 52.8676  6264.71  79.2252
 52.9096  6419.52  80.2811
 52.9516  6364.62  80.3056
 52.9936  6238.89  79.8884
 53.0356  6060.43  77.7757
 53.0776  6147.01  78.6021
 53.1196  6144.25  78.6897
 53.1616  6247.17  79.3922
 53.2036  6077.1  78.2535
 53.2456  6041.49  78.132
 53.2876  6127.46  78.3965
 53.3296  6146.55  78.8351
 53.3716  6134.52  78.5044
 53.4136  6177  78.9304
 53.4556  6158.01  78.8371
 53.4976  6055.77  78.0309
 53.5396  6182.16  79.2316
 53.5816  6119.63  78.4703
 53.6236  6008.58  78.086
 53.6656  6130.52  78.5128
 53.7076  6185.09  78.8225
 53.7496  6072.28  78.2113
 53.7916  6157.94  78.8876
 53.8336  6143.02  78.6896
 53.8756  6009.11  78.3571
 53.9176  6173.68  78.7939
 53.9596  6237.48  79.9525
 54.0016  6176.59  78.9068
 54.0436  6113.78  78.7114
 54.0856  6123.13  78.2129
 54.1276  6228.15  79.0744
 54.1696  6097.92  78.4147
 54.2116  6098.72  78.1774
 54.2536  6068.83  77.8094
 54.2956  6137.03  78.2926
 54.3376  6127.63  78.7064
 54.3796  6154.85  78.785
 54.4216  6214.72  79.1975
 54.4636  6177.46  78.9331
 54.5056  6175.35  78.7406
 54.5476  6153.46  78.9301
 54.5896  6119.49  78.5469
 54.6316  6127.12  78.4572
 54.6736  6157.02  78.6744
 54.7156  6077.23  78.231
 54.7576  6045.28  78.0234
 54.7996  6139.15  78.7564
 54.8416  6090.34  78.4932
 54.8836  5982.92  77.9083
 54.9256  5980.45  77.6505
 54.9676  6156.72  78.6405
 55.0096  6090.71  78.2914
 55.0516  6098.23  78.5032
 55.0936  6156.95  78.5748
 55.1356  6051.1  77.9483
 55.1776  5965.24  77.6443
 55.2196  6051.99  77.9969
 55.2616  6103.27  78.5335
 55.3036  5909.79  77.4391
 55.3456  6053.85  78.522
 55.3876  6073.94  78.401
 55.4296  6090.97  78.4906
 55.4716  6071.08  78.3926
 55.5136  6004.06  77.7188
 55.5556  6072.51  78.2304
 55.5976  6040.81  78.0867
 55.6396  6088.93  78.3382
 55.6816  6016.24  77.7555
 55.7236  6022.21  77.9294
 55.7656  6059.33  77.8352
 55.8076  6124.31  78.2371
 55.8496  6025.05  77.9047
 55.8916  6029.22  78.1071
 55.9336  6006.89  77.8115
 55.9756  6102.69  78.3272
 56.0176  6019.85  77.9421
 56.0596  6059.73  78.1846
 56.1016  5958.01  77.565
 56.1436  6019.49  78.1937
 56.1856  6003.49  77.8325
 56.2276  5948.35  77.5248
 56.2696  6035.18  78.0673
 56.3116  5949.69  77.8999
 56.3536  5975.79  77.739
 56.3956  6036.74  78.1252
 56.4376  5934.71  77.498
 56.4796  6046.75  78.0286
 56.5216  5952.72  77.7852
 56.5636  6060.88  78.0882
 56.6056  6006.61  77.9588
 56.6476  5940.48  77.1705
 56.6896  6013.85  78.0842
 56.7316  6028.3  78.0741
 56.7736  6022.63  78.049
 56.8156  6091.14  78.489
 56.8576  6009.65  77.9074
 56.8996  5991.97  77.7314
 56.9416  6051.75  78.2817
 56.9836  5931.09  77.1489
 57.0256  5931.56  77.4676
 57.0676  5977.39  77.8873
 57.1096  5992.3  77.7814
 57.1516  6032.38  78.0683
 57.1936  6010.8  77.7132
 57.2356  6000.39  77.9623
 57.2776  5996.28  77.8897
 57.3196  5967.09  78.0641
 57.3616  6018.07  77.8967
 57.4036  6044.36  78.1256
 57.4456  6020.64  77.9378
 57.4876  5976.01  77.5116
 57.5296  5946.65  77.5534
 57.5716  5955.93  77.6953
 57.6136  5962.18  77.5703
 57.6556  5981.45  77.8288
 57.6976  6005.13  77.8122
 57.7396  5898.22  77.4831
 57.7816  5944.31  78.1336
 57.8236  5938.58  77.8978
 57.8656  5969.96  77.7602
 57.9076  5896.92  77.3178
 57.9496  6085.54  78.8872
 57.9916  6000.29  77.81
 58.0336  5897.43  77.4357
 58.0756  5941.93  77.3829
 58.1176  5990.71  77.7021
 58.1596  5921.21  77.8028
 58.2016  6035.5  77.8033
 58.2436  6025.71  78.1375
 58.2856  5929.7  77.4318
 58.3276  5955.64  77.97
 58.3696  6006.11  78.0528
 58.4116  6022.43  78.0193
 58.4536  6083.49  78.3032
 58.4956  5878.03  77.1464
 58.5376  6029.94  77.7118
 58.5796  5993.58  77.8913
 58.6216  6082.46  78.2914
 58.6636  6090.74  78.5536
 58.7056  6022.7  77.9701
 58.7476  5858.8  77.3397
 58.7896  5897.77  77.2479
 58.8316  5914.2  77.3522
 58.8736  5984.95  77.8062
 58.9156  5964.89  77.7348
 58.9576  6078.33  78.6739
 58.9996  6003.71  77.5483
 59.0416  6067.83  78.3287
 59.0836  5931.28  77.3699
 59.1256  5977.92  78.0462
 59.1676  5868.03  77.9398
 59.2096  6102.72  78.7957
 59.2516  6100.92  78.3631
 59.2936  5991.77  77.9857
 59.3356  5965.07  77.6902
 59.3776  5892.13  77.3807
 59.4196  5972.69  77.8445
 59.4616  5985.26  77.7867
 59.5036  5968.59  77.7103
 59.5456  5977.24  77.4647
 59.5876  6089.75  78.3822
 59.6296  5899.87  77.219
 59.6716  5920.77  77.413
 59.7136  5929.46  77.4582
 59.7556  5880.26  77.2708
 59.7976  5943.96  77.4324
 59.8396  5897.47  77.0245
 59.8816  5961.22  77.9816
 59.9236  6090.54  78.4651
 59.9656  6030.95  78.3403
 60.0076  5992.7  77.4518
 60.0496  6141.04  78.9095
 60.0916  6151.88  78.395
 60.1336  5797.24  77.1866
 60.1756  5925.23  79.2071
 60.1996  0.0000000E+00  0.0000000E+00