File: docs/examples/opeando_xrd/IS17_D/Data/IS17_D/17_Da_f00060.xye
# /beamlines/bl04/projects/cycle2025-II/20250340211-lsimonelli/DATA/IS17_D/17_Da_f00060.xye : mythproc.py merge -s 0.006 -l 0.5 -f /beamlines/bl04/inhouse/ff/FlatField/ff_20Nov2024rod8mm60s_17keV.raw -b True -c true -o xye /beamlines/bl04/projects/cycle2025-II/20250340211-lsimonelli/DATA/IS17_D/17_Da_00060.dat
# IsMon = [6744056, 6753864, 6751579]  IsPos = [-1.4999, -2.4885, -3.4988]
# Wave = 0.4962  CalPath /beamlines/bl04/projects/cycle2025-II/20250340211-lsimonelli/DATA/Align/Si_Pos1_25keV_f00001.cal
# Date = 2025-09-24_10:14:59 Dt = 4.8000  Bin = 0.0060  <imon> = 6749833 +/- 4190 (Min/Max) 6744056 / 6753864
# icurr 249.0431  mocoIn 1.7004E-05  mocoOut 0.7981  i15 7.07109e+06  imon 6.74983e+06  i7 5.6667  iEMpd_timer 4.8000  iEMpd_1 3.4782E-08  iEMpd_2 7.8978E-08  iEMpd_3 1.7216E-08  iEMpd_4 4.8106E-08  iEMhp_timer 4.8000  iEMhp_1 4.8681E-06  iEMhp_2 -2.5486E-08  iEMhp_3 -2.4172E-08  iEMhp_4 -2.1904E-08
#      9776
 1.5856  40440.4  206.584
 1.6276  47211.5  219.379
 1.6696  54570.5  235.027
 1.7116  62601.6  252.22
 1.7536  71634  268.653
 1.7956  76408.5  278.155
 1.8376  72675.1  271.704
 1.8796  60898.3  246.893
 1.9216  49490.8  223.453
 1.9636  41693.3  204.256
 2.0056  37383.7  192.662
 2.0476  34983.1  188.416
 2.0896  33417.4  183.072
 2.1316  32310.1  179.148
 2.1736  30986.5  176.832
 2.2156  31190.3  175.989
 2.2576  30197.8  173.787
 2.2996  29124.1  171.296
 2.3416  29276.7  170.372
 2.3836  28725.7  168.866
 2.4256  27853.7  166.825
 2.4676  27317.5  164.977
 2.5096  26904.8  163.78
 2.5516  26366.7  165.834
 2.5936  26664.2  163.393
 2.6356  26101  162.341
 2.6776  25933.8  160.722
 2.7196  25479.9  159.818
 2.7616  25669.6  160.195
 2.8036  25179.1  158.822
 2.8456  25069.4  159.088
 2.8876  24687.2  157.724
 2.9296  24426.2  157.038
 2.9716  24087.4  155.442
 3.0136  23806.9  154.602
 3.0556  23929.6  155.386
 3.0976  23863  154.135
 3.1396  23653.2  154.151
 3.1816  23392.4  153.23
 3.2236  23227.8  152.694
 3.2656  23239.6  151.76
 3.3076  23115.2  152.81
 3.3496  23340.3  152.743
 3.3916  23870.7  154.048
 3.4336  24123.9  155.439
 3.4756  24411.1  156.309
 3.5176  25509.7  159.563
 3.5596  25340.6  161.454
 3.6016  25542.8  159.711
 3.6436  24595.3  157.8
 3.6856  24128.2  154.619
 3.7276  23328.7  153.107
 3.7696  23157  152.743
 3.8116  22644.4  150.935
 3.8536  22783.8  151.334
 3.8956  22765.1  151.096
 3.9376  22645.3  150.949
 3.9796  22563.4  150.19
 4.0216  22791.6  149.973
 4.0636  22633  150.925
 4.1056  22656.6  150.638
 4.1476  22935  151.901
 4.1896  23078.6  152.225
 4.2316  23275.6  152.709
 4.2736  23564.2  153.429
 4.3156  23982.3  155.011
 4.3576  24846.1  157.711
 4.3996  24958.1  158.304
 4.4416  25391  159.271
 4.4836  25840.9  160.818
 4.5256  26273  162.796
 4.5676  26292.3  163.093
 4.6096  26798.6  163.33
 4.6516  27154.5  164.104
 4.6936  27300.2  165.351
 4.7356  27672.7  166.31
 4.7776  27415.6  165.356
 4.8196  27154.2  165.242
 4.8616  26626.6  163.229
 4.9036  26402  162.169
 4.9456  26627.7  163.495
 4.9876  25867.7  161.043
 5.0296  26039.1  161.396
 5.0716  26039.8  162.016
 5.1136  26073.6  161.983
 5.1556  26373.1  162.371
 5.1976  26931.5  164.104
 5.2396  26851.3  163.544
 5.2816  26931  164.259
 5.3236  27162.8  164.655
 5.3656  26653  164.019
 5.4076  26257.7  162.952
 5.4496  26551.5  163.334
 5.4916  26516.3  162.993
 5.5336  26531.5  163.036
 5.5756  26233.4  162.174
 5.6176  26621.1  162.789
 5.6596  26688  163.979
 5.7016  26885.5  163.839
 5.7436  26931.8  164.251
 5.7856  27022.7  164.592
 5.8276  27389.7  165.413
 5.8696  27410.5  165.658
 5.9116  27199.1  165.62
 5.9536  27660.1  166.782
 5.9956  27989.1  167.122
 6.0376  27946.9  167.63
 6.0796  28179.3  168.159
 6.1216  28334.3  168.811
 6.1636  28492.9  168.359
 6.2056  28655.3  169.494
 6.2476  28721  169.572
 6.2896  28949.4  169.926
 6.3316  28894.4  169.953
 6.3736  28914.7  169.892
 6.4156  28934.7  169.859
 6.4576  29224.9  170.3
 6.4996  29412.5  171.316
 6.5416  29410.4  171.46
 6.5836  29508.4  171.96
 6.6256  29570  171.717
 6.6676  30174.4  173.028
 6.7096  29780.2  172.763
 6.7516  30309.3  173.927
 6.7936  30486  173.873
 6.8356  30793.7  174.814
 6.8776  30896.9  175.896
 6.9196  30864.1  176.219
 6.9616  31231.7  176.679
 7.0036  31771.7  177.882
 7.0456  31728.5  177.056
 7.0876  31703.3  178.675
 7.1296  31554.9  177.396
 7.1716  31708.2  177.376
 7.2136  31341.6  176.117
 7.2556  31767.5  177.47
 7.2976  31754.2  177.934
 7.3396  31653.5  177.849
 7.3816  31456.7  177.525
 7.4236  31941.7  178.179
 7.4656  32034.1  177.921
 7.5076  32449.1  179.204
 7.5496  32227.8  179.126
 7.5916  32403.9  179.651
 7.6336  32732.7  180.458
 7.6756  32589.1  179.91
 7.7176  33013.9  181.394
 7.7596  33075.6  182.805
 7.8016  33379.9  185.843
 7.8436  33975.8  184.105
 7.8856  34382.2  184.812
 7.9276  34716.2  186.11
 7.9696  34837.3  186.742
 8.0116  35889.6  188.071
 8.0536  36043.7  188.732
 8.0956  36016.3  189.834
 8.1376  36734.5  191.189
 8.1796  36491.3  191.095
 8.2216  37322.9  192
 8.2636  37442.3  192.554
 8.3056  37643  193.851
 8.3476  38373.6  195.039
 8.3896  37817.6  193.702
 8.4316  38333  195.182
 8.4736  38188.2  194.274
 8.5156  38049.1  194.204
 8.5576  37629.7  194.101
 8.5996  37785.4  193.373
 8.6416  37547.5  194.023
 8.6836  37126.3  192.774
 8.7256  38009.2  194.484
 8.7676  37421.9  195.94
 8.8096  36897.2  191.889
 8.8516  36939.1  191.616
 8.8936  36945.6  191.517
 8.9356  36595  190.971
 8.9776  36929  191.933
 9.0196  36427.5  190.303
 9.0616  36744.4  190.585
 9.1036  36106.6  190.114
 9.1456  36543.9  190.597
 9.1876  36429.3  190.262
 9.2296  36360.7  189.474
 9.2716  35596.7  187.549
 9.3136  35924.6  188.399
 9.3556  36185.7  189.057
 9.3976  34687.8  185.652
 9.4396  35025.7  186.431
 9.4816  34551.2  185.037
 9.5236  34820.1  185.653
 9.5656  34399.5  184.849
 9.6076  34119.4  184.614
 9.6496  34086.6  184.463
 9.6916  34202.9  184.733
 9.7336  34107.2  184.265
 9.7756  34194.1  185.812
 9.8176  33324  182.869
 9.8596  33299.1  181.24
 9.9016  32940  180.257
 9.9436  32596.1  179.227
 9.9856  32255.8  178.511
 10.0276  32070.4  179.113
 10.0696  32020.8  178.005
 10.1116  31317.5  176.304
 10.1536  31480  176.931
 10.1956  30820.9  174.669
 10.2376  30531.4  173.371
 10.2796  30651.3  173.817
 10.3216  30330.9  173.172
 10.3636  30018.1  172.314
 10.4056  29828.5  172.144
 10.4476  29597.3  171.122
 10.4896  30048.3  171.871
 10.5316  29030.9  169.634
 10.5736  28876.5  169.598
 10.6156  28779.1  169.098
 10.6576  28907.1  168.013
 10.6996  28510.4  167.521
 10.7416  28233.1  166.949
 10.7836  28527.6  168.489
 10.8256  27881.7  167.015
 10.8676  28005.4  166.905
 10.9096  27579.6  165.695
 10.9516  27347.9  163.917
 10.9936  27472.4  164.498
 11.0356  27283.8  164.56
 11.0776  27089.7  163.282
 11.1196  26535.1  162.347
 11.1616  26513.7  161.965
 11.2036  26675.4  162.317
 11.2456  26513.4  162.516
 11.2876  26457.9  162.105
 11.3296  26213.1  161.236
 11.3716  26629.6  162.218
 11.4136  26692.5  163.298
 11.4556  27009.5  163.927
 11.4976  27645.5  164.799
 11.5396  27339  164.041
 11.5816  26752.2  162.746
 11.6236  26321  161.874
 11.6656  25945  159.66
 11.7076  25895  160.336
 11.7496  25424  162.806
 11.7916  25523  158.441
 11.8336  25012.3  157.745
 11.8756  25002.9  157.233
 11.9176  25101.1  157.195
 11.9596  24704.9  156.163
 12.0016  24589.1  156.57
 12.0436  24748  156.512
 12.0856  24576.8  156.481
 12.1276  24464.3  156.045
 12.1696  24454.1  155.138
 12.2116  24792.5  156.193
 12.2536  24289.9  155.445
 12.2956  24246.8  154.63
 12.3376  24097.5  154.386
 12.3796  24250.8  155.319
 12.4216  24442.5  155.151
 12.4636  23876.1  154.252
 12.5056  24361.5  155.077
 12.5476  24440.4  154.86
 12.5896  24167.7  154.608
 12.6316  23990.5  154.23
 12.6736  24117.8  155.109
 12.7156  23846  154.114
 12.7576  23853  154.36
 12.7996  24246.7  154.271
 12.8416  24038.9  154.662
 12.8836  24521.7  156.021
 12.9256  24758  155.788
 12.9676  24810.4  156.369
 13.0096  24520.8  156.588
 13.0516  24984.2  157.066
 13.0936  24763.9  156.797
 13.1356  24826.8  155.958
 13.1776  24558.8  156.108
 13.2196  24787.7  156.486
 13.2616  24693.6  156.487
 13.3036  24778.4  156.738
 13.3456  24645.9  156.469
 13.3876  24505.6  155.537
 13.4296  24726.7  156.371
 13.4716  24659  155.771
 13.5136  24639.9  155.855
 13.5556  24684.5  156.604
 13.5976  24711.3  156.839
 13.6396  24977.1  157.041
 13.6816  24500.4  156.034
 13.7236  25215.3  157.935
 13.7656  24427.7  156.002
 13.8076  24723.8  155.711
 13.8496  24389.1  155.269
 13.8916  24311.3  156.008
 13.9336  24373.1  155.424
 13.9756  24373.1  154.783
 14.0176  24183.5  154.845
 14.0596  24238  155.002
 14.1016  23765.6  153.873
 14.1436  23696.1  152.799
 14.1856  23226.1  151.551
 14.2276  22949.2  151.141
 14.2696  23443.3  152.581
 14.3116  23118.7  151.415
 14.3536  22683.7  150.168
 14.3956  22606.2  149.638
 14.4376  22891.6  150.368
 14.4796  22958.6  150.579
 14.5216  22404.4  149.548
 14.5636  22033.3  147.874
 14.6056  22443.2  148.824
 14.6476  22421.3  147.972
 14.6896  21903.1  146.791
 14.7316  21512.5  146.509
 14.7736  21626.2  146.022
 14.8156  21347.6  145.123
 14.8576  21321.6  144.886
 14.8996  20719.9  144.027
 14.9416  20551.6  143.443
 14.9836  20679.1  143.843
 15.0256  20322.5  141.502
 15.0676  20477.2  142.359
 15.1096  20258.7  141.334
 15.1516  19942.5  140.782
 15.1936  20012.6  140.457
 15.2356  19609.9  139.315
 15.2776  19425.9  138.243
 15.3196  19186.8  138.394
 15.3616  19233.2  138.321
 15.4036  18834.4  136.733
 15.4456  19382.5  138.358
 15.4876  18905.7  136.325
 15.5296  18764.3  136.095
 15.5716  18594.7  135.081
 15.6136  18357.1  134.534
 15.6556  18673.8  134.937
 15.6976  18404.4  134.028
 15.7396  18139.3  133.671
 15.7816  18221.7  133.483
 15.8236  17943.9  133.167
 15.8656  18071.7  133.426
 15.9076  17671.9  131.767
 15.9496  17558  134.157
 15.9916  17546.2  134.548
 16.0336  17414.3  130.96
 16.0756  17502  131.588
 16.1176  17485  131.592
 16.1596  16855.9  130.378
 16.2016  17165.6  130.298
 16.2436  17159.5  130.68
 16.2856  16958.2  129.452
 16.3276  16679  128.798
 16.3696  16922.8  129.555
 16.4116  16654.7  128.986
 16.4536  16862  129.569
 16.4956  16622.6  128.391
 16.5376  16661.8  128.72
 16.5796  16590.2  127.796
 16.6216  16611.1  128.188
 16.6636  16690.4  128.636
 16.7056  16487  127.732
 16.7476  16680.8  128.004
 16.7896  16586.3  128.387
 16.8316  16557.4  128.255
 16.8736  16413.9  127.962
 16.9156  16491.4  128.591
 16.9576  16264.6  128.489
 16.9996  16409.9  129.546
 17.0416  16418.8  127.918
 17.0836  16354.3  127.444
 17.1256  16123  126.549
 17.1676  16125  126.541
 17.2096  15905.5  125.562
 17.2516  15926.9  125.429
 17.2936  15844.5  125.429
 17.3356  15518.6  124.149
 17.3776  15578.1  124.567
 17.4196  15741.4  124.894
 17.4616  15458.7  123.7
 17.5036  15361.2  123.658
 17.5456  15111.2  123.304
 17.5876  15152.1  122.518
 17.6296  15247.1  122.72
 17.6716  15092.1  122.662
 17.7136  15056.8  122.681
 17.7556  14951  122.523
 17.7976  14881.5  121.835
 17.8396  14659.2  120.57
 17.8816  14963.3  122.351
 17.9236  14709.7  121.131
 17.9656  14852.2  122.409
 18.0076  14867.5  121.895
 18.0496  14947.1  121.344
 18.0916  14775.5  121.187
 18.1336  14768.4  121.252
 18.1756  15085.2  122.069
 18.2176  14570  120.196
 18.2596  14743.1  120.634
 18.3016  14866.8  121.393
 18.3436  14871.5  121.663
 18.3856  14632.4  120.594
 18.4276  14719.4  120.609
 18.4696  14461.7  119.661
 18.5116  14573.1  120.398
 18.5536  14693.4  121.251
 18.5956  14483.1  119.929
 18.6376  14412.7  120.042
 18.6796  14396.2  119.294
 18.7216  14511  120.339
 18.7636  14360.5  119.647
 18.8056  14238.1  119.059
 18.8476  14204.5  119.544
 18.8896  14308.6  119.314
 18.9316  14448.7  119.705
 18.9736  14370.8  119.254
 19.0156  14153.3  118.745
 19.0576  14197.7  117.816
 19.0996  14351.2  119.155
 19.1416  13950.4  117.879
 19.1836  14199.7  118.518
 19.2256  13991.4  117.856
 19.2676  14068.8  118.276
 19.3096  14236.6  119.212
 19.3516  14044.6  118.374
 19.3936  14036.7  118.236
 19.4356  14116.2  118.463
 19.4776  14007.9  118.089
 19.5196  14111.2  118.373
 19.5616  13944.7  117.932
 19.6036  14101.2  118.084
 19.6456  14020.4  117.867
 19.6876  14198.6  118.249
 19.7296  14084.3  118.251
 19.7716  14073.4  118.203
 19.8136  14349.2  119.734
 19.8556  14566  120.085
 19.8976  14426.6  119.583
 19.9396  14680.6  120.198
 19.9816  14994.3  121.715
 20.0236  14837  121.308
 20.0656  14814.8  121.203
 20.1076  14244.7  119.332
 20.1496  14027.8  118.414
 20.1916  14065.5  118.101
 20.2336  13993.4  117.721
 20.2756  13822.7  117.42
 20.3176  13729.9  116.779
 20.3596  13792.3  117.011
 20.4016  13758.4  116.68
 20.4436  13626  116.684
 20.4856  13586.5  116.304
 20.5276  13456.6  116.195
 20.5696  13394.2  115.4
 20.6116  13378.9  115.602
 20.6536  13385.5  115.183
 20.6956  13284.3  114.825
 20.7376  13356  115.354
 20.7796  13350.7  115.024
 20.8216  13435.7  115.097
 20.8636  13202  114.467
 20.9056  13247.8  114.612
 20.9476  13161.9  114.089
 20.9896  13285.3  114.48
 21.0316  13484.1  115.221
 21.0736  13223.9  114.63
 21.1156  13202.3  114.688
 21.1576  13246.9  114.939
 21.1996  13278.6  115.051
 21.2416  13130.2  114.252
 21.2836  13205.2  114.522
 21.3256  12985.1  113.669
 21.3676  13105.3  113.728
 21.4096  13031.9  113.719
 21.4516  12889  112.975
 21.4936  12740.1  112.565
 21.5356  13043.5  113.851
 21.5776  13160.8  114.193
 21.6196  12812.1  112.699
 21.6616  12877.4  113.076
 21.7036  12922.8  113.063
 21.7456  12956.9  113.277
 21.7876  12887.7  112.729
 21.8296  12864.6  112.483
 21.8716  12875.9  112.767
 21.9136  13028.5  113.634
 21.9556  12714.5  111.924
 21.9976  12794.2  112.293
 22.0396  12717.7  112.21
 22.0816  12807.6  113.148
 22.1236  12892.5  112.98
 22.1656  12844.2  112.931
 22.2076  12762.6  111.986
 22.2496  12698.9  111.726
 22.2916  12708.2  111.642
 22.3336  12850.3  112.988
 22.3756  12711.8  112.117
 22.4176  12635.7  111.635
 22.4596  12567.4  111.924
 22.5016  12874.5  112.763
 22.5436  12857.5  112.579
 22.5856  12716.8  112.207
 22.6276  12726.3  112.382
 22.6696  12657.2  112.433
 22.7116  12534.9  111.396
 22.7536  12697  112.095
 22.7956  12669.9  111.302
 22.8376  12622.2  111.623
 22.8796  12723.1  111.863
 22.9216  12778.4  112.659
 22.9636  12931.8  112.473
 23.0056  12728.6  111.717
 23.0476  12864.9  112.89
 23.0896  13041.8  113.036
 23.1316  13206.5  114.193
 23.1736  12737.9  115.13
 23.2156  13065  113.938
 23.2576  12746.8  112.695
 23.2996  12664.1  112.098
 23.3416  12584.7  112.281
 23.3836  12571.7  111.451
 23.4256  12752.6  112.37
 23.4676  12684.2  111.755
 23.5096  12766.3  112.8
 23.5516  12650.3  111.568
 23.5936  12654  112.477
 23.6356  12884.1  113.174
 23.6776  12585.1  112.046
 23.7196  12465.3  111.105
 23.7616  12728.3  112.179
 23.8036  12733.7  112.257
 23.8456  12618.2  111.307
 23.8876  12305.2  110.277
 23.9296  12348.4  110.961
 23.9716  12348.1  110.15
 24.0136  12434.3  111.435
 24.0556  12363.9  110.852
 24.0976  12298  110.361
 24.1396  12116.7  112.168
 24.1816  12370.3  112.083
 24.2236  12219.2  110.68
 24.2656  12122.4  109.711
 24.3076  12075.7  109.754
 24.3496  12048.5  109.508
 24.3916  12038.7  109.525
 24.4336  11901.7  109.107
 24.4756  11841.9  108.693
 24.5176  11748.3  107.923
 24.5596  11797  108.273
 24.6016  11612  107.706
 24.6436  11772.4  107.946
 24.6856  11557.2  106.71
 24.7276  11680.3  107.582
 24.7696  11745.3  108.005
 24.8116  11590.5  107.46
 24.8536  11505.6  107.069
 24.8956  11489.6  106.737
 24.9376  11497.6  106.713
 24.9796  11317.4  106.225
 25.0216  11178.3  105.693
 25.0636  11474.8  106.723
 25.1056  11383  106.712
 25.1476  11464.5  109.038
 25.1896  11358.5  107.02
 25.2316  11364.6  106.318
 25.2736  11312.9  105.738
 25.3156  11234.1  105.444
 25.3576  11180  105.609
 25.3996  11155.2  105.483
 25.4416  11218.3  105.754
 25.4836  11065.2  105.553
 25.5256  11152.3  105.329
 25.5676  11236.6  105.449
 25.6096  10994.8  104.883
 25.6516  11244.7  105.556
 25.6936  11109.4  105.258
 25.7356  11066.7  105.178
 25.7776  11140  105.136
 25.8196  10917.7  104.313
 25.8616  11169  105.425
 25.9036  11101  104.571
 25.9456  11110.4  105.208
 25.9876  10948.6  104.51
 26.0296  11083.5  104.75
 26.0716  10972.7  104.566
 26.1136  11023.5  104.743
 26.1556  11036.7  104.182
 26.1976  10837.1  104.16
 26.2396  10913.2  103.923
 26.2816  11029  104.847
 26.3236  10880.9  104.287
 26.3656  10970.1  104.454
 26.4076  11043.2  105.005
 26.4496  11428.3  106.328
 26.4916  11044.3  104.504
 26.5336  10970.2  104.477
 26.5756  11088  104.908
 26.6176  10829.2  103.705
 26.6596  10774.1  103.758
 26.7016  10803  103.648
 26.7436  10680.4  103.206
 26.7856  10597.6  102.78
 26.8276  10734.6  103.395
 26.8696  10707.6  103.143
 26.9116  10655.2  102.822
 26.9536  10628.2  102.744
 26.9956  10552.6  102.403
 27.0376  10485.5  102.303
 27.0796  10564.8  102.502
 27.1216  10539.2  102.378
 27.1636  10466.7  102.182
 27.2056  10544.8  102.445
 27.2476  10482.6  102.144
 27.2896  10562.2  102.635
 27.3316  10380.9  101.469
 27.3736  10427.2  101.957
 27.4156  10323.1  101.305
 27.4576  10463.3  102.214
 27.4996  10346.9  101.249
 27.5416  10283.2  101.244
 27.5836  10333.4  101.31
 27.6256  10622.1  102.881
 27.6676  10495.8  102.282
 27.7096  10288.1  101.136
 27.7516  10289.8  101.291
 27.7936  10237.7  101.219
 27.8356  10341  101.338
 27.8776  10162.4  100.512
 27.9196  10152.2  100.294
 27.9616  10234.2  100.902
 28.0036  10280.6  101.098
 28.0456  10228.3  100.964
 28.0876  10142  100.637
 28.1296  10137.3  100.456
 28.1716  9969.11  99.6373
 28.2136  10118.6  100.331
 28.2556  10072.1  100.227
 28.2976  9850.2  99.0933
 28.3396  10089.9  100.089
 28.3816  10134.5  100.301
 28.4236  10093.8  100.246
 28.4656  9824  98.9407
 28.5076  10024.9  99.5835
 28.5496  10086.6  100.151
 28.5916  10104.1  100.044
 28.6336  9980.55  99.7754
 28.6756  10088.6  99.5087
 28.7176  9964.24  99.4406
 28.7596  9889.52  98.9663
 28.8016  9952.39  99.309
 28.8436  9823.41  98.9122
 28.8856  9905.36  99.1746
 28.9276  9891.15  99.3411
 28.9696  9763.59  98.3646
 29.0116  9793.15  98.6961
 29.0536  9724.51  98.556
 29.0956  9876.16  99.0342
 29.1376  9785.31  98.5412
 29.1796  9706.59  98.1912
 29.2216  9685.42  97.9204
 29.2636  9770.59  98.3528
 29.3056  9841.9  98.577
 29.3476  9778.09  98.7803
 29.3896  9856.68  99.2676
 29.4316  9837.3  98.4946
 29.4736  9857.42  98.6624
 29.5156  9780.76  98.1895
 29.5576  9751.79  98.7903
 29.5996  9683.14  97.7026
 29.6416  9631.66  97.5569
 29.6836  9831.3  98.491
 29.7256  9817.39  98.9954
 29.7676  9683.89  97.9796
 29.8096  9541.08  97.197
 29.8516  9474.89  97.1874
 29.8936  9653.33  98.1955
 29.9356  9638.72  97.8753
 29.9776  9630.08  97.9809
 30.0196  9526.18  96.8359
 30.0616  9665.58  97.9272
 30.1036  9628.53  97.5581
 30.1456  9578.31  97.5461
 30.1876  9641.51  97.8392
 30.2296  9577.24  97.4661
 30.2716  9676.19  97.5999
 30.3136  9680.83  98.4861
 30.3556  9619.68  98.2051
 30.3976  9487.87  99.0647
 30.4396  9669.95  97.3421
 30.4816  9645.63  96.8031
 30.5236  9587.16  96.5398
 30.5656  9492.09  96.7002
 30.6076  9513.04  96.2438
 30.6496  9660.26  97.3706
 30.6916  9518.85  96.7404
 30.7336  9465.15  96.627
 30.7756  9394.01  96.3549
 30.8176  9435.44  96.4823
 30.8596  9448.34  96.3154
 30.9016  9422.09  96.5246
 30.9436  9545.43  96.9082
 30.9856  9420.97  96.3891
 31.0276  9484.13  96.3118
 31.0696  9356  96.2287
 31.1116  9281.39  95.8247
 31.1536  9484.94  96.7442
 31.1956  9206.59  95.4086
 31.2376  9197.83  95.3634
 31.2796  9301.15  95.4433
 31.3216  9326.41  95.5189
 31.3636  9325.07  96.19
 31.4056  9428.06  98.0547
 31.4476  9251.86  95.0176
 31.4896  9156  95.0261
 31.5316  9204.31  94.7224
 31.5736  9213.5  94.5462
 31.6156  9179.97  94.3951
 31.6576  9429.61  95.7717
 31.6996  9401.63  95.3008
 31.7416  9076.55  94.6878
 31.7836  9321.66  94.9691
 31.8256  9122.08  94.2932
 31.8676  9424.27  95.751
 31.9096  9078.42  94.3418
 31.9516  8984.59  94.0116
 31.9936  9027.29  94.0509
 32.0356  9168.16  94.8575
 32.0776  9270.41  95.2699
 32.1196  9150.79  94.7413
 32.1616  9319.33  95.0672
 32.2036  9003.49  93.9588
 32.2456  9056.29  94.6028
 32.2876  9197.09  94.6473
 32.3296  8973.17  93.6337
 32.3716  9049.81  94.1267
 32.4136  9042.52  94.3085
 32.4556  9191.73  94.5197
 32.4976  9188.84  94.3466
 32.5396  9031.74  93.6134
 32.5816  9044.06  93.8057
 32.6236  9128.5  94.3065
 32.6656  9236.89  95.4052
 32.7076  9029.13  93.9817
 32.7496  9006.39  93.5194
 32.7916  9122.12  94.0926
 32.8336  9052.77  93.8251
 32.8756  8986.1  93.2164
 32.9176  8830.13  92.8733
 32.9596  8889.23  93.2616
 33.0016  9090.01  94.0924
 33.0436  9107.79  94.3547
 33.0856  8915.67  93.4357
 33.1276  8841.6  92.7732
 33.1696  9048.23  93.6955
 33.2116  8966.2  93.4909
 33.2536  8990.54  93.6342
 33.2956  8998.08  93.7494
 33.3376  8807.81  92.4983
 33.3796  8930.4  93.3417
 33.4216  8938.12  92.9764
 33.4636  8971.72  93.302
 33.5056  8870.54  93.0097
 33.5476  8745.28  92.3548
 33.5896  8987.55  93.3611
 33.6316  8800.84  92.7387
 33.6736  8663.71  92.2379
 33.7156  8708.16  92.5248
 33.7576  8892.91  93.128
 33.7996  8924.21  93.0448
 33.8416  8699.52  92.0637
 33.8836  8803.86  92.381
 33.9256  8751.39  92.1853
 33.9676  8947.64  93.097
 34.0096  8667.15  91.948
 34.0516  8818.15  92.3726
 34.0936  8797.19  92.532
 34.1356  8854.04  92.5622
 34.1776  8664.11  91.5777
 34.2196  8662.86  91.7567
 34.2616  8665.8  91.8949
 34.3036  8651.61  92.088
 34.3456  8722.91  92.21
 34.3876  8734.17  92.2464
 34.4296  8786.4  92.1893
 34.4716  8785.26  92.3447
 34.5136  8639.78  91.7793
 34.5556  8642  92.0378
 34.5976  8666.63  91.9779
 34.6396  8616.63  91.4209
 34.6816  8630.14  91.6131
 34.7236  8660.71  91.5541
 34.7656  8563.1  91.2322
 34.8076  8645.78  91.9953
 34.8496  8604.32  91.6243
 34.8916  8560.81  91.272
 34.9336  8739.98  92.1848
 34.9756  8635.3  91.5481
 35.0176  8660.46  92.2207
 35.0596  8587.41  91.6627
 35.1016  8564.6  91.3002
 35.1436  8679.91  91.5921
 35.1856  8511.56  90.832
 35.2276  8576.22  91.3468
 35.2696  8398.69  90.5882
 35.3116  8467.32  91.0476
 35.3536  8533.2  91.1193
 35.3956  8415.45  90.1967
 35.4376  8431.15  90.8397
 35.4796  8541.52  91.4867
 35.5216  8342.78  90.3747
 35.5636  8231.5  90.5069
 35.6056  8517.11  91.069
 35.6476  8467.23  90.7028
 35.6896  8641.45  91.8065
 35.7316  8392.27  90.3578
 35.7736  8456.2  90.9078
 35.8156  8307.59  90.1085
 35.8576  8401.3  90.8594
 35.8996  8497.86  91.3413
 35.9416  8845.57  92.6227
 35.9836  8416.85  90.7619
 36.0256  8545.23  91.4698
 36.0676  8512.09  90.8315
 36.1096  8393.45  90.5523
 36.1516  8471.62  90.8634
 36.1936  8444.82  90.5632
 36.2356  8360.09  90.748
 36.2776  8309.95  89.9609
 36.3196  8335.72  89.774
 36.3616  8373.84  90.1102
 36.4036  8403.51  90.3187
 36.4456  8454.58  90.815
 36.4876  8272.67  89.7631
 36.5296  8352.12  90.2415
 36.5716  8341.23  90.9657
 36.6136  8446.19  90.2739
 36.6556  8479.89  90.669
 36.6976  8369.02  90.5702
 36.7396  8293.31  89.8867
 36.7816  8308.47  90.3462
 36.8236  8262.3  90.0173
 36.8656  8267.71  90.1275
 36.9076  8345.54  90.5502
 36.9496  8205.84  89.6502
 36.9916  8228.79  89.4048
 37.0336  8352.02  90.3913
 37.0756  8371.39  90.283
 37.1176  8160.46  89.407
 37.1596  8227.14  89.7775
 37.2016  8191.62  89.7586
 37.2436  8332.45  89.8917
 37.2856  8215.54  89.5081
 37.3276  8312.67  89.3861
 37.3696  8223.22  89.7921
 37.4116  8271.74  89.965
 37.4536  8306.35  90.0178
 37.4956  8155.32  89.2422
 37.5376  8176.21  90.9251
 37.5796  8111.47  90.526
 37.6216  8048.71  88.4536
 37.6636  8068.39  88.4745
 37.7056  8138.16  89.0424
 37.7476  8144.57  88.6187
 37.7896  8026.87  88.4469
 37.8316  7995.72  88.4742
 37.8736  8181.12  89.0005
 37.9156  8120.95  88.6813
 37.9576  8120.32  88.5668
 37.9996  7939.27  87.2948
 38.0416  8015.75  88.522
 38.0836  8222.39  89.5625
 38.1256  8036.5  88.4856
 38.1676  7848.99  87.5924
 38.2096  8052.45  88.3524
 38.2516  8151.36  89.0899
 38.2936  8052.49  88.3588
 38.3356  8104.66  88.5533
 38.3776  7966.84  88.0708
 38.4196  8234.7  89.385
 38.4616  8065.15  88.702
 38.5036  8181.24  89.1836
 38.5456  8092.98  89.531
 38.5876  8086.37  89.5193
 38.6296  8032.53  88.2006
 38.6716  7914.84  87.3458
 38.7136  7836.41  86.8549
 38.7556  7897.66  87.6936
 38.7976  7990.41  88.1477
 38.8396  7959.06  88.4266
 38.8816  7926.64  88.0191
 38.9236  7797.23  87.1197
 38.9656  7880.88  87.4977
 39.0076  7937.14  87.2171
 39.0496  7896.62  87.5404
 39.0916  8110.2  88.3373
 39.1336  7947.6  87.8758
 39.1756  7909.62  87.7354
 39.2176  7952.87  88.4968
 39.2596  7945.02  88.3835
 39.3016  8058.36  88.5705
 39.3436  7845.86  87.8248
 39.3856  7948.99  87.8519
 39.4276  7899.97  88.0859
 39.4696  7904.86  87.7268
 39.5116  7877.74  88.0994
 39.5536  7966.13  89.0068
 39.5956  8025.35  88.4235
 39.6376  8007.53  88.3338
 39.6796  7876.92  87.3511
 39.7216  8016.12  88.2175
 39.7636  8001.86  88.7154
 39.8056  8026.61  88.6324
 39.8476  7862.09  87.9705
 39.8896  7862.21  87.6088
 39.9316  7872.98  87.9173
 39.9736  8087.75  88.6674
 40.0156  7875.67  87.3277
 40.0576  7845.57  87.5112
 40.0996  8007.56  87.5948
 40.1416  7912.33  87.8646
 40.1836  8016.99  88.3394
 40.2256  8002.02  88.2992
 40.2676  7962.01  88.1865
 40.3096  8037.38  88.5192
 40.3516  8043.77  88.6602
 40.3936  8027.21  88.134
 40.4356  7958  87.9402
 40.4776  8073.78  89.005
 40.5196  8056.96  89.0359
 40.5616  8061.37  88.7086
 40.6036  7979.12  88.5006
 40.6456  8088.45  88.7102
 40.6876  8100.75  88.7621
 40.7296  8014.25  88.421
 40.7716  7999.47  88.4682
 40.8136  7956.39  88.175
 40.8556  8039.61  88.7826
 40.8976  8073.07  88.8788
 40.9396  7838.29  87.9329
 40.9816  8038.7  88.3212
 41.0236  8021.72  88.006
 41.0656  8108.02  89.028
 41.1076  8079.45  88.6278
 41.1496  8030.96  88.2816
 41.1916  8006.27  88.4639
 41.2336  8015.21  88.5099
 41.2756  7927.32  87.628
 41.3176  7893.68  88.0604
 41.3596  7966.33  88.1853
 41.4016  7960.13  88.4132
 41.4436  7999.27  88.4183
 41.4856  8018.2  88.6783
 41.5276  7925.51  88.1909
 41.5696  7979.67  88.1035
 41.6116  7921.91  88.2049
 41.6536  8005.93  88.5203
 41.6956  7965.99  88.3616
 41.7376  7925.04  88.1543
 41.7796  7916.23  88.0264
 41.8216  8003.48  88.7082
 41.8636  7926.83  88.2136
 41.9056  7866.73  87.6766
 41.9476  7920.17  88.2082
 41.9896  7944.62  88.0152
 42.0316  8014.04  88.4708
 42.0736  7887.82  87.8968
 42.1156  7946.09  88.0498
 42.1576  7916.18  87.9737
 42.1996  7976.42  88.4618
 42.2416  8003.68  88.1798
 42.2836  7820.58  87.2899
 42.3256  7749.95  87.007
 42.3676  7943.43  87.8972
 42.4096  7855.76  87.3639
 42.4516  7899.07  87.6997
 42.4936  7875.19  87.6268
 42.5356  7859.98  87.6695
 42.5776  7841.91  87.5109
 42.6196  7967.16  88.2623
 42.6616  7747.1  87.2119
 42.7036  7951.83  87.7361
 42.7456  7837.18  87.4648
 42.7876  7874.4  87.7657
 42.8296  7803.84  87.2112
 42.8716  7696.48  86.7539
 42.9136  7806.07  87.1648
 42.9556  7846.97  87.5285
 42.9976  7855.15  87.5298
 43.0396  7867.48  87.3354
 43.0816  7804.33  87.3461
 43.1236  7764.09  87.1958
 43.1656  7759.54  86.9996
 43.2076  7836.02  87.5351
 43.2496  7759.06  86.9163
 43.2916  7672.74  86.7948
 43.3336  7764.66  87.1506
 43.3756  7736.06  86.7495
 43.4176  7695.5  86.5993
 43.4596  7722.08  86.604
 43.5016  7697.88  86.8734
 43.5436  7772.43  87.194
 43.5856  7678.94  86.6865
 43.6276  7693.75  86.6686
 43.6696  7704.26  86.8645
 43.7116  7818.1  87.1233
 43.7536  7746.54  87.2072
 43.7956  7481.08  86.8935
 43.8376  7703.67  86.6814
 43.8796  7671.35  86.5855
 43.9216  7736.88  86.8694
 43.9636  7695.89  86.7551
 44.0056  7655.13  86.7529
 44.0476  7617.71  86.1724
 44.0896  7615.66  86.4985
 44.1316  7598.29  86.0705
 44.1736  7577.38  85.9337
 44.2156  7732.95  86.6537
 44.2576  7601.01  86.2472
 44.2996  7678.84  86.6576
 44.3416  7626.71  86.1208
 44.3836  7431.41  85.3418
 44.4256  7438.3  85.0275
 44.4676  7364.44  84.7546
 44.5096  7514.13  85.7583
 44.5516  7586.06  86.1237
 44.5936  7454.1  85.3332
 44.6356  7583.13  85.8038
 44.6776  7569.14  86.0413
 44.7196  7527.91  86.1198
 44.7616  7513.88  87.3739
 44.8036  7491.16  85.6828
 44.8456  7593.68  86.475
 44.8876  7497.99  85.778
 44.9296  7552.15  85.5424
 44.9716  7389.11  85.0402
 45.0136  7549.07  85.8882
 45.0556  7498.14  85.5808
 45.0976  7427.34  85.3275
 45.1396  7435.2  85.1392
 45.1816  7527.87  85.5906
 45.2236  7417.15  84.8691
 45.2656  7288.55  84.6174
 45.3076  7418.5  85.154
 45.3496  7318.25  84.8761
 45.3916  7352.25  85.3454
 45.4336  7384.55  85.391
 45.4756  7329.86  84.9228
 45.5176  7405.9  84.9845
 45.5596  7638.37  86.426
 45.6016  7464.28  85.851
 45.6436  7340.53  84.3212
 45.6856  7360.27  85.0928
 45.7276  7266.01  85.829
 45.7696  7300.27  85.7097
 45.8116  7440.82  85.9668
 45.8536  7332.88  85.2399
 45.8956  7438.71  85.2063
 45.9376  7396.71  84.4321
 45.9796  7502.05  85.7377
 46.0216  7291.34  84.8461
 46.0636  7429.85  84.7879
 46.1056  7440.94  84.8432
 46.1476  7328.12  84.7869
 46.1896  7378.37  85.2267
 46.2316  7226.26  84.2154
 46.2736  7247.55  84.7034
 46.3156  7392.8  85.1337
 46.3576  7285.86  84.7181
 46.3996  7273.52  84.8006
 46.4416  7406.51  85.1499
 46.4836  7183.51  84.2073
 46.5256  7337.5  85.0428
 46.5676  7268.63  84.7606
 46.6096  7325.56  85.0316
 46.6516  7331.43  84.1036
 46.6936  7258.93  84.1739
 46.7356  7377.37  84.968
 46.7776  7294.78  85.3213
 46.8196  7214.87  84.456
 46.8616  7158.49  84.0751
 46.9036  7131.89  83.5717
 46.9456  7261.5  83.9784
 46.9876  7187.01  83.6281
 47.0296  7154.98  84.1188
 47.0716  7045.8  83.3025
 47.1136  7191.41  83.8464
 47.1556  7192.82  83.7148
 47.1976  7230.4  84.0241
 47.2396  7232.13  84.4135
 47.2816  7104.97  83.3705
 47.3236  7185.67  84.2166
 47.3656  7111.82  83.7111
 47.4076  7153.66  83.7661
 47.4496  7073.67  83.3869
 47.4916  7117.74  83.8372
 47.5336  7133.05  83.7446
 47.5756  7235.76  84.4586
 47.6176  7199.61  84.1562
 47.6596  7041.16  82.9332
 47.7016  7164.45  83.4755
 47.7436  7154.45  83.7488
 47.7856  7166.1  83.8384
 47.8276  7149.72  83.7827
 47.8696  7070.43  83.4255
 47.9116  7161.13  83.6719
 47.9536  7082.45  83.1447
 47.9956  7033.16  83.563
 48.0376  7077.86  83.5949
 48.0796  7105.52  83.8909
 48.1216  7145.46  83.9444
 48.1636  7226.67  84.008
 48.2056  7079.86  83.4026
 48.2476  7134.53  84.0352
 48.2896  7015.94  83.2387
 48.3316  7002.6  83.0952
 48.3736  7053.34  83.4281
 48.4156  6962.66  82.7359
 48.4576  7011.62  83.3259
 48.4996  7095.77  83.2781
 48.5416  7044.51  83.3113
 48.5836  7009.64  82.7739
 48.6256  7006.15  82.9671
 48.6676  7044.82  83.6921
 48.7096  6989.71  82.6515
 48.7516  7078  83.3124
 48.7936  6874.96  82.1692
 48.8356  6984.36  82.8765
 48.8776  7000.49  83.4482
 48.9196  7059.27  83.2684
 48.9616  6978.87  83.1584
 49.0036  6996.3  83.6223
 49.0456  6960.15  83.3701
 49.0876  6894.32  82.6173
 49.1296  6868.96  82.5236
 49.1716  6819.59  82.0969
 49.2136  6910.54  82.5811
 49.2556  6946.2  82.8236
 49.2976  6909.95  82.689
 49.3396  6970.58  83.0934
 49.3816  7063.93  83.0833
 49.4236  6887.42  82.4471
 49.4656  6881.63  82.4352
 49.5076  6973.94  82.7401
 49.5496  6904.62  82.3856
 49.5916  6928.13  82.4413
 49.6336  6882.22  82.3771
 49.6756  6967.93  83.1292
 49.7176  6869.56  82.4724
 49.7596  6894.26  82.3894
 49.8016  6925.82  82.4945
 49.8436  6853.38  82.3492
 49.8856  6856.7  82.38
 49.9276  6696.89  81.5072
 49.9696  6803.02  82.145
 50.0116  6814.58  82.3456
 50.0536  6852.18  82.5193
 50.0956  6844.15  82.5388
 50.1376  6814.35  82.064
 50.1796  6843.22  82.5027
 50.2216  6785.27  82.1443
 50.2636  6763.24  81.6359
 50.3056  6679.36  81.2959
 50.3476  6688.15  81.3728
 50.3896  6759.04  81.7768
 50.4316  6790.25  81.7952
 50.4736  6562.37  80.6314
 50.5156  6732.91  81.6611
 50.5576  6812.63  81.9116
 50.5996  6699.1  81.4985
 50.6416  6722.74  81.5664
 50.6836  6732.49  81.6918
 50.7256  6710.6  81.4868
 50.7676  6801.98  82.3082
 50.8096  6792.73  81.839
 50.8516  6634.24  81.2846
 50.8936  6597.67  80.8414
 50.9356  6859.13  82.5388
 50.9776  6809.11  82.3882
 51.0196  6587.27  81.147
 51.0616  6562.15  80.3247
 51.1036  6625.42  81.0671
 51.1456  6749.55  81.7292
 51.1876  6626.57  80.3397
 51.2296  6700.42  81.417
 51.2716  6599.43  80.5068
 51.3136  6514.32  80.4328
 51.3556  6719.69  81.3206
 51.3976  6642.29  80.9976
 51.4396  6601.18  81.0434
 51.4816  6519.18  80.4045
 51.5236  6633.66  81.1821
 51.5656  6535.79  80.1997
 51.6076  6635.8  80.8874
 51.6496  6534.02  80.4577
 51.6916  6660.01  81.5797
 51.7336  6623.57  81.452
 51.7756  6636.19  81.2266
 51.8176  6604.79  81.1408
 51.8596  6511.41  80.5818
 51.9016  6695.68  81.3207
 51.9436  6571.5  82.0425
 51.9856  6526.23  82.1737
 52.0276  6608.51  81.2141
 52.0696  6549.65  80.921
 52.1116  6501.22  80.7232
 52.1536  6437.48  80.2303
 52.1956  6536.79  80.3078
 52.2376  6750.31  81.7849
 52.2796  6702.52  81.3005
 52.3216  6434.69  80.3388
 52.3636  6548.99  80.6372
 52.4056  6415.91  79.6717
 52.4476  6402.01  79.9461
 52.4896  6487.27  80.5287
 52.5316  6475.85  80.5022
 52.5736  6453.9  80.0852
 52.6156  6483.28  80.6454
 52.6576  6619.1  80.9344
 52.6996  6376.66  80.3955
 52.7416  6530.6  81.2024
 52.7836  6566.27  81.3255
 52.8256  6532.07  80.3405
 52.8676  6284.59  79.3537
 52.9096  6500.09  80.7985
 52.9516  6469.27  80.9577
 52.9936  6332.17  80.4852
 53.0356  6323.37  79.4506
 53.0776  6296.06  79.5672
 53.1196  6351.33  80.0093
 53.1616  6329.3  79.9158
 53.2036  6302.47  79.6965
 53.2456  6340.12  80.0347
 53.2876  6285.11  79.4015
 53.3296  6414.55  80.5416
 53.3716  6390.99  80.1515
 53.4136  6397.57  80.3263
 53.4556  6301.4  79.7531
 53.4976  6223.38  79.1106
 53.5396  6344.13  80.2543
 53.5816  6467.37  80.6727
 53.6236  6244.76  79.6089
 53.6656  6280.67  79.4709
 53.7076  6339.26  79.8033
 53.7496  6326.54  79.8496
 53.7916  6394.34  80.3952
 53.8336  6214.26  79.16
 53.8756  6190.2  79.5396
 53.9176  6266.71  79.376
 53.9596  6320.83  80.4863
 54.0016  6250.08  79.3659
 54.0436  6228.41  79.4428
 54.0856  6338.5  79.5793
 54.1276  6356.48  79.8934
 54.1696  6244.18  79.3492
 54.2116  6295.95  79.4422
 54.2536  6294.34  79.2441
 54.2956  6365.74  79.7287
 54.3376  6251.21  79.4944
 54.3796  6279.51  79.5674
 54.4216  6362.74  80.1418
 54.4636  6267.69  79.5086
 54.5056  6346.1  79.8263
 54.5476  6211.54  79.301
 54.5896  6281.2  79.5827
 54.6316  6379.28  80.0547
 54.6736  6347.99  79.8773
 54.7156  6241.43  79.279
 54.7576  6215.82  79.1077
 54.7996  6361.2  80.1681
 54.8416  6316.96  79.9419
 54.8836  6219.45  79.4409
 54.9256  6168.37  78.8647
 54.9676  6274.7  79.3947
 55.0096  6210.73  79.056
 55.0516  6241.62  79.4106
 55.0936  6194.24  78.8205
 55.1356  6156.43  78.6142
 55.1776  6191.68  79.1162
 55.2196  6151.84  78.6369
 55.2616  6262.79  79.5651
 55.3036  6146.4  78.9723
 55.3456  6246.7  79.7576
 55.3876  6210.72  79.2776
 55.4296  6216  79.2836
 55.4716  6289.71  79.79
 55.5136  6251.98  79.3041
 55.5556  6282.05  79.5772
 55.5976  6239.75  79.3625
 55.6396  6213.59  79.1446
 55.6816  6302.04  79.5792
 55.7236  6278.46  79.47
 55.7656  6310.06  79.4269
 55.8076  6228.11  78.8887
 55.8496  6183.96  78.9306
 55.8916  6226.69  79.3741
 55.9336  6232.39  79.2652
 55.9756  6198.85  78.9402
 56.0176  6108.38  78.5105
 56.0596  6067.98  78.2375
 56.1016  6231.96  79.3212
 56.1436  6107.53  78.7612
 56.1856  6244.74  79.3768
 56.2276  6197.48  79.1418
 56.2696  6219.61  79.2517
 56.3116  6186.76  79.451
 56.3536  6221.25  79.3227
 56.3956  6269.98  79.6239
 56.4376  6258.57  79.5843
 56.4796  6168.79  78.8068
 56.5216  6131.63  78.9442
 56.5636  6180.81  78.8502
 56.6056  6138.7  78.8231
 56.6476  6217.42  78.9458
 56.6896  6177.43  79.147
 56.7316  6147.48  78.8534
 56.7736  6133.45  78.7672
 56.8156  6114.42  78.6406
 56.8576  6071.44  78.2966
 56.8996  6141.56  78.6897
 56.9416  6158.28  79.1017
 56.9836  6158.99  78.6295
 57.0256  6139.58  78.8175
 57.0676  6101.05  78.6956
 57.1096  6179.89  78.9902
 57.1516  6197.88  79.1218
 57.1936  6158.54  78.6617
 57.2356  6201.78  79.252
 57.2776  6200.11  79.2079
 57.3196  6182.9  79.4657
 57.3616  6124.46  78.5836
 57.4036  6075.84  78.3317
 57.4456  6153.97  78.804
 57.4876  6153.88  78.6616
 57.5296  6080.96  78.4305
 57.5716  6060.78  78.3866
 57.6136  6162.62  78.8565
 57.6556  6153.66  78.9374
 57.6976  6165.01  78.8428
 57.7396  6052.61  78.4864
 57.7816  6045.26  78.7934
 57.8236  6112.84  79.0322
 57.8656  6217.77  79.3616
 57.9076  6090.53  78.5738
 57.9496  6164.48  79.4001
 57.9916  6126.32  78.6649
 58.0336  6113.06  78.8569
 58.0756  6156.91  78.7641
 58.1176  6160.18  78.7926
 58.1596  6026.42  78.4941
 58.2016  6178.36  78.687
 58.2436  6141.72  78.8648
 58.2856  6037.67  78.1148
 58.3276  6156.53  79.2504
 58.3696  6115.79  78.7271
 58.4116  5996.14  77.8257
 58.4536  6227.57  79.2002
 58.4956  6054.34  78.2767
 58.5376  6121.54  78.2796
 58.5796  6175.82  79.0525
 58.6216  6169.7  78.8283
 58.6636  6183.05  79.1307
 58.7056  6145.19  78.7412
 58.7476  6126.76  79.0692
 58.7896  6135.64  78.7674
 58.8316  6018.05  78.0048
 58.8736  6148.42  78.8578
 58.9156  6194.6  79.1934
 58.9576  6294.17  80.1562
 58.9996  6252.56  79.1237
 59.0416  6271.78  79.6232
 59.0836  6061.69  78.1987
 59.1256  6065.04  78.9167
 59.1676  6229.79  80.2937
 59.2096  6316.45  80.1541
 59.2516  6148.12  78.6562
 59.2936  6242.48  79.591
 59.3356  6088.13  78.4781
 59.3776  6155.35  79.0807
 59.4196  6146.15  78.9574
 59.4616  6152.93  78.8593
 59.5036  6095.99  78.5289
 59.5456  6121.19  78.3825
 59.5876  6275.57  79.5596
 59.6296  6060.68  78.2549
 59.6716  6139.61  78.8212
 59.7136  6167.14  78.9859
 59.7556  6229.35  79.5219
 59.7976  6129.84  78.6244
 59.8396  6306.48  79.6412
 59.8816  6199.81  79.516
 59.9236  6084.14  78.4144
 59.9656  6160.18  79.1652
 60.0076  6126.09  78.2996
 60.0496  6129.79  78.8306
 60.0916  6240.47  78.9479
 60.1336  6049.74  78.8402
 60.1756  6172.13  80.8308
 60.1996  0.0000000E+00  0.0000000E+00