File: docs/examples/opeando_xrd/IS17_D/Data/IS17_D/17_Da_f00148.xye
# /beamlines/bl04/projects/cycle2025-II/20250340211-lsimonelli/DATA/IS17_D/17_Da_f00148.xye : mythproc.py merge -s 0.006 -l 0.5 -f /beamlines/bl04/inhouse/ff/FlatField/ff_20Nov2024rod8mm60s_17keV.raw -b True -c true -o xye /beamlines/bl04/projects/cycle2025-II/20250340211-lsimonelli/DATA/IS17_D/17_Da_00148.dat
# IsMon = [6757301, 6761173, 6764335]  IsPos = [-1.4999, -2.4883, -3.4989]
# Wave = 0.4962  CalPath /beamlines/bl04/projects/cycle2025-II/20250340211-lsimonelli/DATA/Align/Si_Pos1_25keV_f00001.cal
# Date = 2025-09-25_10:48:35 Dt = 4.8000  Bin = 0.0060  <imon> = 6760936 +/- 2876 (Min/Max) 6757301 / 6764335
# icurr 250.6432  mocoIn 1.7089E-05  mocoOut 0.8021  i15 7.07955e+06  imon 6.76094e+06  i7 5.3333  iEMpd_timer 4.8000  iEMpd_1 3.3768E-08  iEMpd_2 7.8026E-08  iEMpd_3 1.6918E-08  iEMpd_4 4.7514E-08  iEMhp_timer 4.8000  iEMhp_1 4.8952E-06  iEMhp_2 -2.5019E-08  iEMhp_3 -2.4178E-08  iEMhp_4 -2.1204E-08
#      9776
 1.5856  40758.7  207.363
 1.6276  48095.3  221.388
 1.6696  54749  235.373
 1.7116  63079.3  253.14
 1.7536  72259.2  269.78
 1.7956  77114.9  279.394
 1.8376  72994.1  272.257
 1.8796  61569.6  248.205
 1.9216  49770.8  224.049
 1.9636  41932.5  204.807
 2.0056  37891.2  193.934
 2.0476  35040.1  188.54
 2.0896  33889.1  184.33
 2.1316  32437.9  179.473
 2.1736  31125.5  177.2
 2.2156  31461.7  176.725
 2.2576  30390.6  174.314
 2.2996  29058.2  171.074
 2.3416  29628.6  171.364
 2.3836  29256.3  170.391
 2.4256  28016.2  167.284
 2.4676  28101.8  167.302
 2.5096  27366.3  165.152
 2.5516  26818.7  167.247
 2.5936  26743.3  163.647
 2.6356  26077.9  162.281
 2.6776  25887.3  160.595
 2.7196  25871.5  160.68
 2.7616  25893.6  160.902
 2.8036  25395  159.516
 2.8456  25548.5  160.613
 2.8876  24813.1  158.153
 2.9296  24339.9  156.77
 2.9716  24027.5  155.259
 3.0136  24141.1  155.692
 3.0556  24163.4  156.159
 3.0976  24018  154.632
 3.1396  23746.2  154.45
 3.1816  23685.7  153.921
 3.2236  23640.5  154.048
 3.2656  23559.7  152.824
 3.3076  23330.7  153.53
 3.3496  23566.5  153.24
 3.3916  24088  154.758
 3.4336  24271.6  155.924
 3.4756  24772.3  157.45
 3.5176  25599.6  159.848
 3.5596  25300.5  161.325
 3.6016  25592.5  159.866
 3.6436  24898.6  158.783
 3.6856  24264.8  155.052
 3.7276  23487  153.634
 3.7696  23337.9  153.327
 3.8116  22901  151.787
 3.8536  23060.9  152.25
 3.8956  23011.3  151.91
 3.9376  22992.4  152.103
 3.9796  22850.3  151.141
 4.0216  22911  150.376
 4.0636  22702.4  151.16
 4.1056  22891.7  151.43
 4.1476  23077.5  152.372
 4.1896  23231.1  152.724
 4.2316  23499.1  153.428
 4.2736  23997.6  154.833
 4.3156  24121.2  155.454
 4.3576  24833.3  157.663
 4.3996  25092.4  158.744
 4.4416  25389.2  159.268
 4.4836  26107.6  161.658
 4.5256  26550.4  163.646
 4.5676  26421.1  163.492
 4.6096  26871.5  163.544
 4.6516  27482  165.094
 4.6936  27585.1  166.209
 4.7356  27662.2  166.277
 4.7776  27774.2  166.439
 4.8196  27242.4  165.5
 4.8616  26961.5  164.119
 4.9036  26798.4  163.377
 4.9456  26534  163.202
 4.9876  26109  161.794
 5.0296  26220.3  161.956
 5.0716  26223.8  162.734
 5.1136  26316.1  162.736
 5.1556  26712.4  163.418
 5.1976  26914.4  164.045
 5.2396  27127.9  164.384
 5.2816  27063.9  164.656
 5.3236  27305.9  165.088
 5.3656  26876.2  164.702
 5.4076  26551.6  163.86
 5.4496  26730  163.881
 5.4916  26833.1  163.963
 5.5336  26811.3  163.988
 5.5756  26810.8  163.941
 5.6176  27025.6  164.021
 5.6596  27167.5  165.442
 5.7016  27656.3  166.171
 5.7436  27681  166.124
 5.7856  27416.9  165.777
 5.8276  27862.1  166.837
 5.8696  28026.8  167.508
 5.9116  28118.6  168.092
 5.9536  28283.5  168.645
 5.9956  28674.5  169.156
 6.0376  28445.6  169.121
 6.0796  28762.7  169.891
 6.1216  28811.5  170.278
 6.1636  28979.3  169.79
 6.2056  28959.5  170.397
 6.2476  28789.7  169.772
 6.2896  29348.3  171.092
 6.3316  28997.4  170.244
 6.3736  29170.5  170.639
 6.4156  29110.6  170.371
 6.4576  29497.4  171.095
 6.4996  29538.5  171.689
 6.5416  29404.8  171.443
 6.5836  29667.7  172.289
 6.6256  29674.6  172.02
 6.6676  30269.1  173.301
 6.7096  29935.2  173.205
 6.7516  30620.1  174.816
 6.7936  30781.3  174.701
 6.8356  30885.5  175.077
 6.8776  31381.6  177.276
 6.9196  31127.1  176.967
 6.9616  31655.9  177.904
 7.0036  31936.1  178.338
 7.0456  32147.6  178.223
 7.0876  31737.8  178.773
 7.1296  32162.1  179.095
 7.1716  31904.1  177.911
 7.2136  31681.2  177.07
 7.2556  31972.8  178.044
 7.2976  31680.2  177.727
 7.3396  31827.2  178.351
 7.3816  31731.1  178.297
 7.4236  32224.5  178.965
 7.4656  32236  178.48
 7.5076  32476.7  179.28
 7.5496  32489.3  179.845
 7.5916  32507.2  179.938
 7.6336  32679.5  180.397
 7.6756  32819  180.542
 7.7176  33354.7  182.329
 7.7596  33365.2  183.607
 7.8016  33578.9  186.385
 7.8436  34188  184.84
 7.8856  34335.9  184.701
 7.9276  34965.7  186.78
 7.9696  35145.3  187.579
 8.0116  35900.9  188.111
 8.0536  36266.4  189.326
 8.0956  36244.6  190.457
 8.1376  36759.2  191.27
 8.1796  36828.3  192.001
 8.2216  37771.4  192.877
 8.2636  37876.8  193.715
 8.3056  37809.2  194.282
 8.3476  38624.4  195.69
 8.3896  37687.4  193.383
 8.4316  38325.2  195.179
 8.4736  38445.7  194.946
 8.5156  38087.4  194.317
 8.5576  37641  194.782
 8.5996  37986.4  193.897
 8.6416  37857.3  194.852
 8.6836  37507.7  193.765
 8.7256  38067.1  194.662
 8.7676  37338.5  195.707
 8.8096  37457.2  193.316
 8.8516  37179.5  192.21
 8.8936  36989.4  191.604
 8.9356  36879.3  191.683
 8.9776  36903  191.831
 9.0196  36664.9  190.897
 9.0616  36921.1  191.08
 9.1036  36305.6  190.614
 9.1456  36534.1  190.543
 9.1876  36395.4  190.147
 9.2296  36694.3  190.307
 9.2716  35921.1  188.368
 9.3136  36099.9  188.822
 9.3556  36397.2  189.584
 9.3976  34768.9  185.841
 9.4396  35696.3  188.181
 9.4816  34768.6  185.59
 9.5236  35058.1  186.257
 9.5656  34603.6  185.367
 9.6076  34626  185.955
 9.6496  34392.4  185.262
 9.6916  34407.9  185.258
 9.7336  34250.9  184.629
 9.7756  34474.6  186.49
 9.8176  33778.6  184.121
 9.8596  33439.9  181.637
 9.9016  32909.2  180.184
 9.9436  32928.1  180.147
 9.9856  32551  179.335
 10.0276  32303.8  179.736
 10.0696  32541.4  179.461
 10.1116  31637.8  177.215
 10.1536  31398.3  176.712
 10.1956  31142.3  175.583
 10.2376  30422.8  173.057
 10.2796  30958.1  174.696
 10.3216  30462.2  173.566
 10.3636  30260.9  173.013
 10.4056  30114.5  172.987
 10.4476  29994.4  172.277
 10.4896  30479.8  173.248
 10.5316  29489.6  170.986
 10.5736  29608.8  171.746
 10.6156  29132.4  170.131
 10.6576  29623.8  170.099
 10.6996  28801.8  168.397
 10.7416  28499.7  167.749
 10.7836  28723.7  169.077
 10.8256  28549.4  168.993
 10.8676  28593.9  168.662
 10.9096  28149.6  167.387
 10.9516  27905.5  165.578
 10.9936  27975.8  165.981
 11.0356  27638.1  165.626
 11.0776  27971.9  165.92
 11.1196  27200  164.362
 11.1616  27105.3  163.769
 11.2036  26995.2  163.289
 11.2456  27139.6  164.438
 11.2876  27044.2  163.891
 11.3296  26767.4  162.931
 11.3716  27234.2  164.035
 11.4136  27212.4  164.884
 11.4556  27485.7  165.361
 11.4976  27623.1  164.735
 11.5396  27898.5  165.723
 11.5816  27248.6  164.25
 11.6236  26814.4  163.154
 11.6656  26532.2  161.447
 11.7076  26150  161.123
 11.7496  25706.6  162.885
 11.7916  25963.2  159.8
 11.8336  25484.2  159.205
 11.8756  25288.9  158.133
 11.9176  25238.7  157.635
 11.9596  24953.3  156.933
 12.0016  25240.5  158.344
 12.0436  24966.9  157.192
 12.0856  24612.4  156.593
 12.1276  24653.3  156.517
 12.1696  24706  155.936
 12.2116  25042.2  156.984
 12.2536  24544.6  156.254
 12.2956  24554.9  155.499
 12.3376  24384.7  155.3
 12.3796  24407.9  155.82
 12.4216  24357.4  154.876
 12.4636  24190.1  155.264
 12.5056  24516.7  155.638
 12.5476  24528.6  155.139
 12.5896  24560.1  155.867
 12.6316  24190.8  154.868
 12.6736  24215.2  155.606
 12.7156  24109.1  154.956
 12.7576  24331.8  155.905
 12.7996  24451.9  154.923
 12.8416  24223.8  155.251
 12.8836  24600.5  156.186
 12.9256  25057.3  156.722
 12.9676  24879.1  156.593
 13.0096  24645.1  156.975
 13.0516  24999.6  157.118
 13.0936  24856.5  157.084
 13.1356  25270.2  157.345
 13.1776  24952.7  157.349
 13.2196  25032.8  157.252
 13.2616  24964.3  157.346
 13.3036  25001.9  157.444
 13.3456  24786.9  157.306
 13.3876  24964  156.972
 13.4296  24766  156.496
 13.4716  25123.6  157.224
 13.5136  24938.6  156.8
 13.5556  25213.1  157.91
 13.5976  24821.4  157.189
 13.6396  25157.9  157.61
 13.6816  24857.7  157.174
 13.7236  25549.5  158.984
 13.7656  24663  156.747
 13.8076  24939.4  156.385
 13.8496  24645.7  156.074
 13.8916  24783.1  157.518
 13.9336  24712  156.502
 13.9756  24436.7  154.986
 14.0176  24244  154.956
 14.0596  24331.5  155.3
 14.1016  24022.1  154.706
 14.1436  23911.8  153.484
 14.1856  23796.1  153.397
 14.2276  23403.1  152.568
 14.2696  23784.2  153.693
 14.3116  23318.1  152.07
 14.3536  22961.1  151.091
 14.3956  22998.4  150.937
 14.4376  23100.6  151.05
 14.4796  23043.7  150.855
 14.5216  22581.3  150.137
 14.5636  22476.5  149.347
 14.6056  22683.1  149.606
 14.6476  22501.1  148.232
 14.6896  22140.1  147.585
 14.7316  21847.4  147.636
 14.7736  21782.4  146.563
 14.8156  21434.1  145.42
 14.8576  21544.1  145.639
 14.8996  21072  145.25
 14.9416  20665.1  143.837
 14.9836  20864.4  144.483
 15.0256  20699.6  142.822
 15.0676  20975.8  144.154
 15.1096  20564.5  142.408
 15.1516  20237.4  141.835
 15.1936  20055.5  140.616
 15.2356  19959.8  140.446
 15.2776  19892.2  140.326
 15.3196  19512.2  139.574
 15.3616  19467.7  139.163
 15.4036  19493.5  139.114
 15.4456  19641.9  139.291
 15.4876  19179.6  137.318
 15.5296  18965.6  136.84
 15.5716  18866.8  136.079
 15.6136  18776.6  136.087
 15.6556  18726.9  135.504
 15.6976  18600.2  134.979
 15.7396  18533.2  135.122
 15.7816  18318.5  133.841
 15.8236  18189.8  134.027
 15.8656  18380.3  134.571
 15.9076  17912.7  132.674
 15.9496  17862.9  135.305
 15.9916  17833.4  135.622
 16.0336  17661.4  131.865
 16.0756  17553.1  131.759
 16.1176  17535.1  131.763
 16.1596  17128.2  131.406
 16.2016  17425.1  131.269
 16.2436  17077.9  130.349
 16.2856  17136.3  130.112
 16.3276  16917.6  129.689
 16.3696  16878.8  129.368
 16.4116  16873  129.81
 16.4536  16838.4  129.452
 16.4956  16788.1  129.014
 16.5376  16823.8  129.324
 16.5796  16701.4  128.209
 16.6216  16845.3  129.072
 16.6636  16531.4  128.007
 16.7056  16714.9  128.595
 16.7476  16841.8  128.594
 16.7896  16593.6  128.408
 16.8316  16443.9  127.789
 16.8736  16622.1  128.748
 16.9156  16602.9  129.006
 16.9576  16417.2  129.09
 16.9996  16554.6  130.12
 17.0416  16618.7  128.717
 17.0836  16394.2  127.609
 17.1256  16084.3  126.408
 17.1676  16161.1  126.698
 17.2096  16077.5  126.247
 17.2516  16047.2  125.907
 17.2936  15909.1  125.7
 17.3356  15837.8  125.429
 17.3776  15782.8  125.385
 17.4196  15791.4  125.112
 17.4616  15676.4  124.577
 17.5036  15389.7  123.792
 17.5456  15180.4  123.593
 17.5876  15408.3  123.558
 17.6296  15357.6  123.173
 17.6716  15450.8  124.12
 17.7136  15072.8  122.744
 17.7556  15178  123.457
 17.7976  15185.2  123.229
 17.8396  15020.9  122.057
 17.8816  15042.6  122.687
 17.9236  15133.1  122.868
 17.9656  15154.6  123.489
 18.0076  15207.3  123.275
 18.0496  15228.5  122.48
 18.0916  14976.2  121.928
 18.1336  15024.2  122.296
 18.1756  15379.2  123.249
 18.2176  15015.9  122.021
 18.2596  14948  121.48
 18.3016  15222.2  122.853
 18.3436  15036.4  122.1
 18.3856  14958.2  122.112
 18.4276  14894.1  121.326
 18.4696  14746.5  120.825
 18.5116  14980.9  122.069
 18.5536  15030.7  122.633
 18.5956  14727.7  120.941
 18.6376  14635.7  120.973
 18.6796  14602  120.152
 18.7216  14783.1  121.388
 18.7636  14504.4  120.227
 18.8056  14619.4  120.645
 18.8476  14559.5  121.023
 18.8896  14648.5  120.718
 18.9316  14708.5  120.95
 18.9736  14460.4  119.624
 19.0156  14489  120.156
 19.0576  14409.8  118.683
 19.0996  14612.5  120.37
 19.1416  14266.8  119.205
 19.1836  14391.6  119.306
 19.2256  14268.9  119.103
 19.2676  14464  119.922
 19.3096  14427.2  120.018
 19.3516  14364.5  119.719
 19.3936  14325.2  119.453
 19.4356  14383  119.56
 19.4776  14262  119.157
 19.5196  14288.1  119.114
 19.5616  14163.6  118.852
 19.6036  14145.3  118.264
 19.6456  14347.6  119.231
 19.6876  14466.1  119.364
 19.7296  14263  118.988
 19.7716  14243.1  119.066
 19.8136  14417.4  120.01
 19.8556  14788.9  121.004
 19.8976  14422  119.564
 19.9396  14694.3  120.26
 19.9816  14881.7  121.33
 20.0236  14953.9  121.783
 20.0656  14997.2  121.948
 20.1076  14466.2  120.251
 20.1496  14395.9  119.956
 20.1916  14224.6  118.756
 20.2336  14193.4  118.553
 20.2756  13914.1  117.814
 20.3176  13692.3  116.621
 20.3596  13891  117.434
 20.4016  13952  117.498
 20.4436  13751.9  117.113
 20.4856  13619.1  116.441
 20.5276  13661.6  117.079
 20.5696  13553  116.072
 20.6116  13573.9  116.44
 20.6536  13704.7  116.454
 20.6956  13450.7  115.542
 20.7376  13471.5  115.859
 20.7796  13229.9  114.506
 20.8216  13482.3  115.298
 20.8636  13460.3  115.583
 20.9056  13295.8  114.819
 20.9476  13258.2  114.496
 20.9896  13552.9  115.625
 21.0316  13457  115.105
 21.0736  13346.5  115.16
 21.1156  13224.4  114.788
 21.1576  13328.2  115.292
 21.1996  13399.7  115.576
 21.2416  13170.9  114.428
 21.2836  13386.8  115.317
 21.3256  13136.5  114.364
 21.3676  13298.8  114.568
 21.4096  13246.2  114.654
 21.4516  13036.4  113.621
 21.4936  13014.1  113.776
 21.5356  13177.6  114.434
 21.5776  13079.1  113.834
 21.6196  13001.1  113.526
 21.6616  13072.3  113.931
 21.7036  13032.9  113.54
 21.7456  13160.3  114.167
 21.7876  12959.7  113.038
 21.8296  12869.9  112.507
 21.8716  12979.8  113.224
 21.9136  13077.7  113.849
 21.9556  12890.3  112.703
 21.9976  12927.2  112.873
 22.0396  12866.9  112.867
 22.0816  13005.5  114.018
 22.1236  12969.3  113.313
 22.1656  12909.2  113.534
 22.2076  12998  113.023
 22.2496  13015.9  113.129
 22.2916  12957.7  112.754
 22.3336  12831  112.935
 22.3756  12781.1  112.431
 22.4176  12908.3  112.843
 22.4596  12740.5  112.693
 22.5016  12874.4  112.778
 22.5436  12899.9  112.885
 22.5856  13064.9  113.741
 22.6276  12862.7  113.029
 22.6696  12824.2  113.183
 22.7116  12736.9  112.308
 22.7536  12885.8  112.934
 22.7956  12912  112.377
 22.8376  12722.2  112.067
 22.8796  12855.9  112.453
 22.9216  12816.2  112.828
 22.9636  12813.5  111.965
 23.0056  12766.1  111.894
 23.0476  12889  113.004
 23.0896  13226.3  113.841
 23.1316  12961.6  113.135
 23.1736  12836.7  115.375
 23.2156  12963.1  113.47
 23.2576  12830.6  113.045
 23.2996  12733.8  112.388
 23.3416  12698.9  112.772
 23.3836  12881.9  112.796
 23.4256  12908.6  113.043
 23.4676  12769.4  112.12
 23.5096  12844.1  113.126
 23.5516  12589.5  111.285
 23.5936  12820  113.21
 23.6356  12769.1  112.644
 23.6776  12674.8  112.438
 23.7196  12577.6  111.573
 23.7616  13028.8  113.478
 23.8036  12859.7  112.798
 23.8456  12607.6  111.091
 23.8876  12505  111.156
 23.9296  12519  111.709
 23.9716  12505.7  110.822
 24.0136  12567.2  112.012
 24.0556  12424.9  111.109
 24.0976  12303.2  110.368
 24.1396  12300.5  113.029
 24.1816  12392.9  111.852
 24.2236  12292.4  111.017
 24.2656  12038.7  109.34
 24.3076  12070.1  109.732
 24.3496  12242.9  110.402
 24.3916  12173.9  110.144
 24.4336  12114.8  110.087
 24.4756  12055.8  109.691
 24.5176  11929.8  108.76
 24.5596  11828.7  108.426
 24.6016  11736  108.282
 24.6436  11805.6  108.097
 24.6856  12027.9  108.867
 24.7276  11849.5  108.372
 24.7696  11732.5  107.953
 24.8116  11645.3  107.725
 24.8536  11598.6  107.512
 24.8956  11700.8  107.721
 24.9376  11478.2  106.629
 24.9796  11321.7  106.252
 25.0216  11240.2  105.981
 25.0636  11565.6  107.153
 25.1056  11125.7  105.795
 25.1476  11533.7  109.385
 25.1896  11497.3  107.678
 25.2316  11486.5  106.882
 25.2736  11384.4  106.068
 25.3156  11402.2  106.225
 25.3576  11323.1  106.278
 25.3996  11292  106.114
 25.4416  11253.5  105.919
 25.4836  11107.5  105.755
 25.5256  11370.1  106.354
 25.5676  11280  105.659
 25.6096  11058.9  105.19
 25.6516  11228.6  105.491
 25.6936  11091.9  105.16
 25.7356  11160.6  105.626
 25.7776  11240.5  105.602
 25.8196  11070.9  105.04
 25.8616  11230.7  105.708
 25.9036  11076.6  104.457
 25.9456  11139.5  105.35
 25.9876  11072.5  105.098
 26.0296  11243.7  105.414
 26.0716  10995.9  104.668
 26.1136  11191.4  105.532
 26.1556  11249.3  105.176
 26.1976  11045.1  105.156
 26.2396  11164.3  104.862
 26.2816  11134.2  105.336
 26.3236  11213.4  105.877
 26.3656  11040.7  104.782
 26.4076  11087.8  105.189
 26.4496  11575.2  106.981
 26.4916  11174.8  105.121
 26.5336  11165.9  105.482
 26.5756  11662.7  107.528
 26.6176  10966.8  104.341
 26.6596  10929.1  104.502
 26.7016  10934.3  104.283
 26.7436  10814  103.848
 26.7856  10749.2  103.51
 26.8276  10835.4  103.881
 26.8696  10818.4  103.667
 26.9116  10864.1  103.829
 26.9536  10626.2  102.737
 26.9956  10751.2  103.362
 27.0376  10687.7  103.284
 27.0796  10695.8  103.051
 27.1216  10636.9  102.848
 27.1636  10460  102.15
 27.2056  10601.4  102.719
 27.2476  10689.6  103.147
 27.2896  10562.5  102.664
 27.3316  10440.3  101.758
 27.3736  10480.2  102.217
 27.4156  10475.1  102.044
 27.4576  10447.5  102.135
 27.4996  10454.1  101.768
 27.5416  10404  101.836
 27.5836  10447.4  101.862
 27.6256  10858.8  104.004
 27.6676  10705.1  103.294
 27.7096  10306.5  101.223
 27.7516  10343.6  101.465
 27.7936  10349.2  101.761
 27.8356  10423.1  101.738
 27.8776  10375.7  101.556
 27.9196  10230  100.687
 27.9616  10281.4  101.132
 28.0036  10419  101.778
 28.0456  10349.1  101.562
 28.0876  10168.6  100.771
 28.1296  10153.7  100.471
 28.1716  10127.6  100.417
 28.2136  10344.5  101.451
 28.2556  10166.9  100.693
 28.2976  10068.2  100.184
 28.3396  10169.8  100.446
 28.3816  10190.7  100.579
 28.4236  10153.5  100.547
 28.4656  10026.2  99.9531
 28.5076  10027.9  99.5944
 28.5496  10002.1  99.7289
 28.5916  10145.1  100.246
 28.6336  9973.91  99.7478
 28.6756  10145.9  99.7883
 28.7176  9943.25  99.227
 28.7596  9911.35  99.0747
 28.8016  10083.6  99.9684
 28.8436  9840.43  98.9979
 28.8856  9947.9  99.4305
 28.9276  9961.39  99.699
 28.9696  10074.3  99.9198
 29.0116  9953.25  99.4986
 29.0536  9784.56  98.8563
 29.0956  9865.17  98.9754
 29.1376  9843.12  98.8323
 29.1796  9781.9  98.5684
 29.2216  9776.26  98.3762
 29.2636  9849.62  98.8334
 29.3056  9840.2  98.5692
 29.3476  9768.76  98.7345
 29.3896  9967.33  99.8243
 29.4316  9862.58  98.6287
 29.4736  9810.37  98.428
 29.5156  9964  99.1153
 29.5576  9788.65  98.9909
 29.5996  9862.02  98.6066
 29.6416  9846.02  98.6454
 29.6836  9880.64  98.731
 29.7256  9787.12  98.6158
 29.7676  9729.08  98.2106
 29.8096  9813.11  98.5807
 29.8516  9759.37  98.6351
 29.8936  9736.91  98.6277
 29.9356  9916.09  99.2731
 29.9776  9588.99  97.7844
 30.0196  9608.91  97.5442
 30.0616  9729.03  98.2542
 30.1036  9738.83  98.1322
 30.1456  9659.11  97.9565
 30.1876  9778.61  98.5472
 30.2296  9778.18  98.4857
 30.2716  9721.9  97.8355
 30.3136  9903.69  99.6215
 30.3556  9655.81  98.3921
 30.3976  9531.05  99.2795
 30.4396  9849.53  98.2273
 30.4816  9782.3  97.4715
 30.5236  9641.55  96.7973
 30.5656  9586.68  97.1701
 30.6076  9633.19  96.8324
 30.6496  9684.72  97.4778
 30.6916  9606.33  97.1708
 30.7336  9615.78  97.3787
 30.7756  9509.97  96.9295
 30.8176  9508.01  96.8392
 30.8596  9520.79  96.6743
 30.9016  9408.22  96.4411
 30.9436  9598.88  97.1614
 30.9856  9541.18  96.9843
 31.0276  9411.6  95.9256
 31.0696  9411.42  96.5039
 31.1116  9523.63  97.0531
 31.1536  9493.61  96.7713
 31.1956  9294.85  95.8515
 31.2376  9317.02  95.969
 31.2796  9401.29  95.9442
 31.3216  9365.25  95.7017
 31.3636  9406.08  96.61
 31.4056  9427.16  98.0433
 31.4476  9284.25  95.1943
 31.4896  9261.93  95.5829
 31.5316  9435.39  95.8609
 31.5736  9466.02  95.8476
 31.6156  9325.41  95.1481
 31.6576  9348.28  95.3602
 31.6996  9494.47  95.7708
 31.7416  9311.76  95.9116
 31.7836  9224.62  94.4793
 31.8256  9241.91  94.8434
 31.8676  9372.92  95.5043
 31.9096  9339.41  95.6894
 31.9516  9275.42  95.5288
 31.9936  9313.64  95.5439
 32.0356  9467.73  96.4034
 32.0776  9231.7  95.0759
 32.1196  9304.56  95.5376
 32.1616  9386.47  95.4142
 32.2036  9173.6  94.8409
 32.2456  9136.84  95.0291
 32.2876  9256.04  95.1404
 32.3296  9206.04  94.8469
 32.3716  9112.44  94.4514
 32.4136  9169.31  94.9611
 32.4556  9303.37  95.0286
 32.4976  9260.62  94.7173
 32.5396  9233.19  94.6489
 32.5816  9065.41  93.9125
 32.6236  9182.68  94.584
 32.6656  9138.18  94.8899
 32.7076  9122.66  94.4677
 32.7496  9115.03  94.0889
 32.7916  9241.44  94.7015
 32.8336  9174.29  94.4525
 32.8756  9217.06  94.3947
 32.9176  8982.88  93.6707
 32.9596  9085.71  94.2787
 33.0016  9029.82  93.7809
 33.0436  9188.48  94.5045
 33.0856  9032.29  94.0398
 33.1276  9026.89  93.7476
 33.1696  9060.89  93.7674
 33.2116  9163.08  94.5199
 33.2536  9114.65  94.273
 33.2956  9006.38  93.7906
 33.3376  9050.83  93.7619
 33.3796  9103.52  94.2384
 33.4216  9014.99  93.3736
 33.4636  9015.56  93.5289
 33.5056  8888.74  93.1086
 33.5476  8888.2  93.104
 33.5896  9068.8  93.8113
 33.6316  8859.61  93.037
 33.6736  8886.36  93.4189
 33.7156  8846.03  92.9752
 33.7576  8999.46  93.6845
 33.7996  9127.67  94.1052
 33.8416  8834.89  92.7734
 33.8836  8808.78  92.5529
 33.9256  8888  92.8949
 33.9676  9005.57  93.395
 34.0096  8803.56  92.6644
 34.0516  8858.94  92.5861
 34.0936  8876.29  92.8451
 34.1356  8899.87  92.8066
 34.1776  8788.65  92.2263
 34.2196  8758.1  92.2593
 34.2616  8736.39  92.2789
 34.3036  8808.87  92.9189
 34.3456  8839.95  92.8283
 34.3876  8857.74  92.8895
 34.4296  8770.68  92.1163
 34.4716  8830.27  92.5302
 34.5136  8797.16  92.6113
 34.5556  8758.69  92.6587
 34.5976  8863.11  93.0153
 34.6396  8704.76  92.0178
 34.6816  8760.94  92.3046
 34.7236  8721.11  91.8747
 34.7656  8747.25  92.2081
 34.8076  8667.01  92.1066
 34.8496  8788.29  92.6721
 34.8916  8707.2  92.0518
 34.9336  8712.12  92.0384
 34.9756  8713.9  91.9664
 35.0176  8742.49  92.6572
 35.0596  8602.47  91.7432
 35.1016  8635.47  91.6786
 35.1436  8726.95  91.8422
 35.1856  8581.23  91.2037
 35.2276  8669.62  91.8439
 35.2696  8571.94  91.5199
 35.3116  8646.03  92.0015
 35.3536  8546.05  91.1879
 35.3956  8511.49  90.7101
 35.4376  8578.63  91.6329
 35.4796  8511.35  91.3235
 35.5216  8588.89  91.6974
 35.5636  8344.13  91.1202
 35.6056  8613.06  91.5853
 35.6476  8671.97  91.7921
 35.6896  8612.36  91.5697
 35.7316  8446.92  90.6585
 35.7736  8427.27  90.7522
 35.8156  8401.14  90.6011
 35.8576  8567.85  91.754
 35.8996  8577.61  91.7676
 35.9416  8471.58  90.7154
 35.9836  8456.59  90.9713
 36.0256  8611.89  91.8325
 36.0676  8574.43  91.3854
 36.1096  8437.38  90.7876
 36.1516  8585.87  91.4746
 36.1936  8470.35  90.702
 36.2356  8535.77  91.7023
 36.2776  8445.28  90.6858
 36.3196  8499.8  90.6497
 36.3616  8478.39  90.6258
 36.4036  8539.08  91.0499
 36.4456  8404.82  90.5437
 36.4876  8387.39  90.3853
 36.5296  8418.58  90.5985
 36.5716  8430.61  91.2062
 36.6136  8608.56  91.1526
 36.6556  8550.13  91.0406
 36.6976  8413.46  90.8176
 36.7396  8350.96  90.3828
 36.7816  8321.1  90.4241
 36.8236  8325.61  90.3777
 36.8656  8366.55  90.658
 36.9076  8252.26  89.9243
 36.9496  8366.88  90.5295
 36.9916  8414.73  90.4161
 37.0336  8524.52  91.3226
 37.0756  8360.56  90.2315
 37.1176  8211.72  89.6949
 37.1596  8341.07  90.4034
 37.2016  8359.11  90.7305
 37.2436  8396.74  90.2418
 37.2856  8241.77  89.6662
 37.3276  8369.56  89.8687
 37.3696  8374.82  90.6289
 37.4116  8312.06  90.186
 37.4536  8247.79  89.5587
 37.4956  8070.58  88.9873
 37.5376  8274.45  91.4694
 37.5796  8204.13  91.0402
 37.6216  8100.69  88.7349
 37.6636  8209.58  89.2292
 37.7056  8210.56  89.4246
 37.7476  8226.86  89.0509
 37.7896  8183.48  89.3084
 37.8316  7949.96  88.2088
 37.8736  8341.04  89.8536
 37.9156  8149.06  88.8219
 37.9576  8153.38  88.7258
 37.9996  8048.81  87.8848
 38.0416  8143.73  89.2175
 38.0836  8281.68  89.8633
 38.1256  8183.76  89.2892
 38.1676  7987.17  88.3527
 38.2096  8052.93  88.3419
 38.2516  8184.18  89.2565
 38.2936  8076.72  88.4816
 38.3356  8246.24  89.2981
 38.3776  8057.65  88.5594
 38.4196  8092.8  88.6006
 38.4616  8229.16  89.5852
 38.5036  8339.62  90.0263
 38.5456  8006.27  89.0485
 38.5876  8062.07  89.5546
 38.6296  7909.07  87.5255
 38.6716  7990.12  87.7648
 38.7136  7982.7  87.6674
 38.7556  7992.25  88.2209
 38.7976  7942.37  87.8885
 38.8396  7940.53  88.1303
 38.8816  7984.99  88.3589
 38.9236  8021.57  88.3694
 38.9656  7956.8  87.9253
 39.0076  8014.69  87.6491
 39.0496  8076.98  88.5391
 39.0916  8159.74  88.6108
 39.1336  8044.14  88.4149
 39.1756  7935.86  87.8809
 39.2176  7962.26  88.5594
 39.2596  7828.49  87.7346
 39.3016  7870.35  87.4719
 39.3436  7843.53  87.8196
 39.3856  8056.11  88.4473
 39.4276  8019.79  88.7472
 39.4696  7801.57  87.156
 39.5116  7908.84  88.2686
 39.5536  8065.65  89.5611
 39.5956  8090.4  88.7862
 39.6376  8112.69  88.911
 39.6796  8048.5  88.2963
 39.7216  8151.46  88.9561
 39.7636  8100.78  89.2655
 39.8056  8056.57  88.7941
 39.8476  7981.13  88.6351
 39.8896  8056.71  88.6848
 39.9316  7989.05  88.5574
 39.9736  8075.66  88.6822
 40.0156  7996.89  87.9903
 40.0576  7966.97  88.1921
 40.0996  8117.2  88.1954
 40.1416  8052.68  88.6511
 40.1836  8046.26  88.4963
 40.2256  8033.72  88.4721
 40.2676  8012.51  88.4627
 40.3096  8085.41  88.7881
 40.3516  8160.56  89.3107
 40.3936  8233.5  89.2617
 40.4356  7924.18  87.7667
 40.4776  8204.01  89.7183
 40.5196  8077.44  89.0675
 40.5616  8183.01  89.3712
 40.6036  8043.54  88.8589
 40.6456  8140.15  88.9868
 40.6876  8141.83  88.9839
 40.7296  8139.66  88.9914
 40.7716  7990.83  88.4289
 40.8136  8000.68  88.4268
 40.8556  8125.61  89.2529
 40.8976  8116.06  89.1139
 40.9396  8026.74  88.9804
 40.9816  8006.63  88.1474
 41.0236  8234.27  89.162
 41.0656  8106.91  89.0198
 41.1076  8014.84  88.2808
 41.1496  8126.28  88.8044
 41.1916  8060.5  88.7687
 41.2336  7981.7  88.3246
 41.2756  8006  88.0624
 41.3176  8015.83  88.7361
 41.3596  8007.44  88.4166
 41.4016  8049.09  88.9042
 41.4436  8127.96  89.1258
 41.4856  8125.14  89.2681
 41.5276  8059.49  88.9281
 41.5696  8069.59  88.6109
 41.6116  7985.12  88.5516
 41.6536  8115.5  89.125
 41.6956  8119.25  89.1998
 41.7376  8054.9  88.876
 41.7796  7940.43  88.1143
 41.8216  8075.73  89.1082
 41.8636  8052.25  88.9146
 41.9056  7964.8  88.2184
 41.9476  7896.15  87.9707
 41.9896  7992.51  88.2806
 42.0316  8039.6  88.6137
 42.0736  7882.91  87.8652
 42.1156  7865.6  87.601
 42.1576  7930.98  88.0314
 42.1996  8021.85  88.7119
 42.2416  8094.85  88.5997
 42.2836  7952.31  88.0178
 42.3256  7878.2  87.7224
 42.3676  8039.46  88.4264
 42.4096  7985.67  88.0868
 42.4516  7920.87  87.8703
 42.4936  7920.93  87.8857
 42.5356  7857.32  87.6597
 42.5776  8023.37  88.5258
 42.6196  7957.4  88.2158
 42.6616  7820.12  87.6228
 42.7036  7906.91  87.4861
 42.7456  7921.56  87.9308
 42.7876  7903.65  87.9333
 42.8296  7979.72  88.1799
 42.8716  7914.51  87.9829
 42.9136  7857  87.4491
 42.9556  7916.51  87.9173
 42.9976  7979.87  88.2247
 43.0396  7779.1  86.8423
 43.0816  7829.73  87.5037
 43.1236  7803.55  87.4173
 43.1656  7954  88.0847
 43.2076  7841.63  87.5594
 43.2496  7761.63  86.9251
 43.2916  7761.63  87.2939
 43.3336  7906.13  87.9406
 43.3756  7857.62  87.426
 43.4176  7701.77  86.6319
 43.4596  7822.81  87.1629
 43.5016  7727.82  87.0416
 43.5436  7758.94  87.1126
 43.5856  7831.66  87.5459
 43.6276  7682.45  86.6044
 43.6696  7846.14  87.7352
 43.7116  7786.07  86.9425
 43.7536  7832.94  87.705
 43.7956  7677.97  88.0221
 43.8376  7765.36  87.0457
 43.8796  7569.84  86.0182
 43.9216  7692.23  86.6307
 43.9636  7719.95  86.8919
 44.0056  7616.86  86.5433
 44.0476  7642.13  86.4348
 44.0896  7651.18  86.7119
 44.1316  7744.87  86.7575
 44.1736  7709.02  86.6779
 44.2156  7720.72  86.6063
 44.2576  7653.22  86.5502
 44.2996  7707.53  86.8278
 44.3416  7752.1  86.83
 44.3836  7483.62  85.6493
 44.4256  7563.33  85.7417
 44.4676  7679.97  86.5617
 44.5096  7553.61  85.9893
 44.5516  7687  86.7071
 44.5936  7407.29  85.0708
 44.6356  7438.15  84.9881
 44.6776  7635.86  86.3502
 44.7196  7486.45  85.8855
 44.7616  7528.62  87.4632
 44.8036  7465.86  85.5208
 44.8456  7593.49  86.4596
 44.8876  7641.41  86.6916
 44.9296  7706.8  86.4045
 44.9716  7533.58  85.8617
 45.0136  7504.48  85.6238
 45.0556  7642.61  86.3884
 45.0976  7462.18  85.5263
 45.1396  7266.57  84.1602
 45.1816  7439.69  85.0777
 45.2236  7535.51  85.5318
 45.2656  7431.44  85.4322
 45.3076  7405.98  85.0811
 45.3496  7443.05  85.5878
 45.3916  7513.57  86.2672
 45.4336  7434.22  85.6597
 45.4756  7237.33  84.3648
 45.5176  7538.2  85.7273
 45.5596  7460.92  85.4017
 45.6016  7378.52  85.3465
 45.6436  7408.07  84.7016
 45.6856  7420.14  85.42
 45.7276  7364.2  86.4244
 45.7696  7421.21  86.4212
 45.8116  7448.07  86.0205
 45.8536  7291.67  85.0066
 45.8956  7456.92  85.3156
 45.9376  7444.3  84.708
 45.9796  7346.39  84.8252
 46.0216  7390.82  85.4293
 46.0636  7440.2  84.8623
 46.1056  7418.51  84.7202
 46.1476  7480.59  85.6691
 46.1896  7279.1  84.6554
 46.2316  7307.9  84.689
 46.2736  7283.28  84.9152
 46.3156  7407.36  85.2224
 46.3576  7353.64  85.1167
 46.3996  7450.89  85.833
 46.4416  7368.5  84.9382
 46.4836  7348.27  85.1787
 46.5256  7341.17  85.072
 46.5676  7353.5  85.2604
 46.6096  7338.67  85.108
 46.6516  7428.76  84.6706
 46.6936  7465.61  85.375
 46.7356  7391.76  85.0593
 46.7776  7172.12  84.6585
 46.8196  7287.81  84.8836
 46.8616  7103.88  83.7494
 46.9036  7200.15  83.974
 46.9456  7185.58  83.5317
 46.9876  7275.91  84.145
 47.0296  7255.01  84.6204
 47.0716  7125.83  83.7746
 47.1136  7161.54  83.6717
 47.1556  7091.93  83.1191
 47.1976  7343.8  84.6731
 47.2396  7183.48  84.1361
 47.2816  7191.52  83.8841
 47.3236  7130.05  83.895
 47.3656  7195.62  84.2113
 47.4076  7106.02  83.4831
 47.4496  7260.34  84.4848
 47.4916  7090.49  83.6795
 47.5336  7179.91  84.0165
 47.5756  7256.18  84.5751
 47.6176  7025.28  83.1288
 47.6596  7099.7  83.2806
 47.7016  7302.3  84.2786
 47.7436  7142.63  83.6904
 47.7856  7143.61  83.7125
 47.8276  7121.41  83.6371
 47.8696  7087.91  83.5238
 47.9116  7131.11  83.4957
 47.9536  7129.25  83.4215
 47.9956  7049.02  83.6558
 48.0376  7095.88  83.7091
 48.0796  7195.37  84.4194
 48.1216  7239.36  84.4827
 48.1636  7272.71  84.2714
 48.2056  7190.78  84.0545
 48.2476  7135.72  84.0239
 48.2896  7080.39  83.6228
 48.3316  7026.27  83.2417
 48.3736  7034  83.3138
 48.4156  6974.65  82.9187
 48.4576  6986.43  83.1727
 48.4996  7090.16  83.2514
 48.5416  7200.08  84.2231
 48.5836  7048.95  83.009
 48.6256  7035.22  83.1407
 48.6676  7011.59  83.5011
 48.7096  7055.9  83.0356
 48.7516  7086.33  83.3634
 48.7936  6907.16  82.4636
 48.8356  7057.71  83.3097
 48.8776  7005.45  83.5696
 48.9196  7059.21  83.2669
 48.9616  7021.05  83.4121
 49.0036  6961.93  83.41
 49.0456  6957.87  83.3591
 49.0876  6951.67  82.8566
 49.1296  6884.82  82.6307
 49.1716  6751.02  81.9147
 49.2136  7076.66  83.5801
 49.2556  6959.64  83.012
 49.2976  6951.69  82.9289
 49.3396  6930.82  82.8545
 49.3816  6969.35  82.667
 49.4236  7057.64  83.4732
 49.4656  6880.61  82.3906
 49.5076  6971.61  82.7228
 49.5496  6848.81  82.0546
 49.5916  6961.32  82.6411
 49.6336  6903.52  82.5083
 49.6756  6906.14  82.7535
 49.7176  6916.75  82.7553
 49.7596  6863.35  82.2052
 49.8016  6977.4  82.808
 49.8436  6840.92  82.2822
 49.8856  6892.48  82.6004
 49.9276  6853.92  82.4668
 49.9696  6984.14  83.2298
 50.0116  6865.11  82.6408
 50.0536  6938.59  83.037
 50.0956  6872.15  82.7058
 50.1376  6878.11  82.4473
 50.1796  6791.46  82.1903
 50.2216  6772.52  82.0764
 50.2636  6789.05  81.791
 50.3056  6717.41  81.5328
 50.3476  6787.52  81.9753
 50.3896  6743.27  81.6809
 50.4316  6908.1  82.5111
 50.4736  6784.98  81.9892
 50.5156  6837.94  82.2926
 50.5576  6766.84  81.6323
 50.5996  6799.65  82.2237
 50.6416  6758.39  81.7892
 50.6836  6762.84  81.8788
 50.7256  6839  82.2565
 50.7676  6777.98  82.2114
 50.8096  6765.49  81.6712
 50.8516  6808.31  82.3439
 50.8936  6710.16  81.5256
 50.9356  6844.74  82.4464
 50.9776  6826.01  82.4878
 51.0196  6590.07  81.1708
 51.0616  6655.37  80.9061
 51.1036  6806.48  82.1719
 51.1456  6770.58  81.8694
 51.1876  6703.31  80.807
 51.2296  6682.76  81.4298
 51.2716  6597.36  80.4925
 51.3136  6645.98  81.2511
 51.3556  6653.57  80.9235
 51.3976  6710.27  81.4212
 51.4396  6496.24  80.4139
 51.4816  6648.46  81.2004
 51.5236  6773.56  82.0662
 51.5656  6690.71  81.1505
 51.6076  6639.79  80.9232
 51.6496  6643.89  81.1342
 51.6916  6634.99  81.4397
 51.7336  6717.99  82.0305
 51.7756  6683.45  81.5252
 51.8176  6602.31  81.132
 51.8596  6609.85  81.1946
 51.9016  6856.44  82.2997
 51.9436  6533.66  81.7706
 51.9856  6518.91  82.1135
 52.0276  6650.73  81.4601
 52.0696  6565.03  81.0048
 52.1116  6581.26  81.2046
 52.1536  6591.93  81.1728
 52.1956  6646.14  80.9628
 52.2376  6715.12  81.5596
 52.2796  6652.44  80.9909
 52.3216  6445.51  80.4035
 52.3636  6546.34  80.6072
 52.4056  6344.03  79.2096
 52.4476  6539.3  80.784
 52.4896  6376.96  79.8278
 52.5316  6491  80.5893
 52.5736  6500.8  80.3697
 52.6156  6539.63  80.9915
 52.6576  6623.11  80.9459
 52.6996  6445.55  80.8215
 52.7416  6505.32  81.1185
 52.7836  6547.95  81.1969
 52.8256  6645.53  81.011
 52.8676  6415.43  80.174
 52.9096  6422.62  80.2969
 52.9516  6441.16  80.7891
 52.9936  6484.57  81.4475
 53.0356  6516.93  80.6624
 53.0776  6371.09  80.0118
 53.1196  6447.62  80.6178
 53.1616  6345.33  80.0232
 53.2036  6276.27  79.5386
 53.2456  6267.96  79.5937
 53.2876  6310.04  79.5614
 53.3296  6432.66  80.6603
 53.3716  6420.56  80.3316
 53.4136  6303.04  79.7414
 53.4556  6323.3  79.8951
 53.4976  6376.33  80.0817
 53.5396  6357.67  80.3516
 53.5816  6343.15  79.9008
 53.6236  6302.1  79.9091
 53.6656  6347.66  79.9008
 53.7076  6419.72  80.313
 53.7496  6302.03  79.6942
 53.7916  6335.14  80.0259
 53.8336  6320.26  79.83
 53.8756  6157.51  79.3356
 53.9176  6483.91  80.7492
 53.9596  6393.27  80.9403
 54.0016  6298.04  79.6756
 54.0436  6284.61  79.7991
 54.0856  6368.27  79.7616
 54.1276  6285.87  79.4412
 54.1696  6281.59  79.5846
 54.2116  6332.99  79.6729
 54.2536  6383.53  79.804
 54.2956  6469.83  80.3258
 54.3376  6392.62  80.3886
 54.3796  6333.79  79.9138
 54.4216  6472.65  80.6444
 54.4636  6353.04  80.101
 54.5056  6305.49  79.5697
 54.5476  6344.67  80.1482
 54.5896  6310.56  79.7641
 54.6316  6296.48  79.5317
 54.6736  6346.84  79.9247
 54.7156  6305.39  79.6872
 54.7576  6275.55  79.4958
 54.7996  6415.05  80.5044
 54.8416  6292.75  79.6992
 54.8836  6277.12  79.7994
 54.9256  6238.17  79.3066
 54.9676  6323.18  79.6976
 55.0096  6291.1  79.5661
 55.0516  6298.99  79.8431
 55.0936  6299.75  79.486
 55.1356  6225.23  79.0543
 55.1776  6283.26  79.6963
 55.2196  6327.14  79.8085
 55.2616  6284.87  79.7024
 55.3036  6318.11  80.0695
 55.3456  6247.95  79.7628
 55.3876  6320.61  79.9787
 55.4296  6201.97  79.2322
 55.4716  6229.66  79.4074
 55.5136  6330.76  79.8082
 55.5556  6328.72  79.8702
 55.5976  6197.1  79.0879
 55.6396  6168.4  78.8575
 55.6816  6206.35  78.9724
 55.7236  6264.37  79.3756
 55.7656  6391.1  79.9387
 55.8076  6337.16  79.5777
 55.8496  6236.24  79.2648
 55.8916  6187.53  79.158
 55.9336  6271.86  79.5127
 55.9756  6236.35  79.1768
 56.0176  6238.89  79.345
 56.0596  6239.04  79.3255
 56.1016  6255.37  79.4429
 56.1436  6206.55  79.4
 56.1856  6221.01  79.2273
 56.2276  6258.14  79.529
 56.2696  6240.57  79.4136
 56.3116  6217.3  79.6392
 56.3536  6273.23  79.6528
 56.3956  6199.63  79.1763
 56.4376  6218.66  79.3266
 56.4796  6323.84  79.7894
 56.5216  6110.58  78.8158
 56.5636  6307.11  79.6525
 56.6056  6130.55  78.768
 56.6476  6188.92  78.7668
 56.6896  6210.39  79.3548
 56.7316  6220.98  79.3295
 56.7736  6201.5  79.1725
 56.8156  6264.68  79.5988
 56.8576  6199.61  79.1214
 56.8996  6245.68  79.3557
 56.9416  6203.8  79.3934
 56.9836  6072.59  78.0726
 57.0256  6202.9  79.2225
 57.0676  6217.52  79.4425
 57.1096  6225.26  79.2709
 57.1516  6248.67  79.4818
 57.1936  6152.72  78.6237
 57.2356  6198.57  79.2374
 57.2776  6220.47  79.332
 57.3196  6269.53  79.8104
 57.3616  6247.41  79.366
 57.4036  6246.32  79.4228
 57.4456  6140.15  78.7139
 57.4876  6250.82  79.2687
 57.5296  6109.88  78.7141
 57.5716  6199.58  79.2747
 57.6136  6162.51  78.8603
 57.6556  6170.5  79.0506
 57.6976  6243.83  79.244
 57.7396  6112.44  78.8735
 57.7816  6120.19  79.2834
 57.8236  6110.23  79.0568
 57.8656  6084.24  78.5043
 57.9076  6217.72  79.3866
 57.9496  6176.35  79.4795
 57.9916  6146.31  78.8001
 58.0336  6134.25  78.993
 58.0756  6202.55  79.0672
 58.1176  6136.36  78.64
 58.1596  6162.28  79.3678
 58.2016  6225.25  78.9851
 58.2436  6206.3  79.2848
 58.2856  6314.41  79.8833
 58.3276  6163.25  79.3028
 58.3696  6115.98  78.7533
 58.4116  6191.4  79.0887
 58.4536  6110.91  78.4678
 58.4956  6077.26  78.4271
 58.5376  6186.76  78.8302
 58.5796  6167.61  79.0043
 58.6216  6157.95  78.7533
 58.6636  6136.65  78.8333
 58.7056  6072.24  78.2793
 58.7476  6159.77  79.2872
 58.7896  6155.21  78.9025
 58.8316  6074.31  78.4848
 58.8736  6271.76  79.6463
 58.9156  6061.83  78.3522
 58.9576  6188.27  79.4831
 58.9996  6315.93  79.539
 59.0416  6362.91  80.2002
 59.0836  6158.38  78.8203
 59.1256  6047.98  78.8133
 59.1676  6071.27  79.263
 59.2096  6244.18  79.6845
 59.2516  6196.27  78.954
 59.2936  5977.06  77.8711
 59.3356  6090.6  78.4844
 59.3776  6136.14  78.9477
 59.4196  6264.49  79.7026
 59.4616  6174.17  78.9856
 59.5036  6150.82  78.8715
 59.5456  6354.65  79.8535
 59.5876  6195.78  79.0425
 59.6296  6215.46  79.2382
 59.6716  6268.46  79.6343
 59.7136  6133.04  78.7576
 59.7556  6130.38  78.878
 59.7976  6105.56  78.459
 59.8396  6038.68  77.9224
 59.8816  6227.83  79.6874
 59.9236  6243.82  79.427
 59.9656  6181.23  79.2917
 60.0076  6247.41  79.0615
 60.0496  6199.52  78.783
 60.0916  6320.99  79.4459
 60.1336  6180.53  79.6782
 60.1756  6164.02  80.7678
 60.1996  6224.44  83.4326