File: docs/examples/opeando_xrd/IS17_D/Data/IS17_D/17_Da_f00071.xye
# /beamlines/bl04/projects/cycle2025-II/20250340211-lsimonelli/DATA/IS17_D/17_Da_f00071.xye : mythproc.py merge -s 0.006 -l 0.5 -f /beamlines/bl04/inhouse/ff/FlatField/ff_20Nov2024rod8mm60s_17keV.raw -b True -c true -o xye /beamlines/bl04/projects/cycle2025-II/20250340211-lsimonelli/DATA/IS17_D/17_Da_00071.dat
# IsMon = [6784119, 6789758, 6787131]  IsPos = [-1.5000, -2.4884, -3.4988]
# Wave = 0.4962  CalPath /beamlines/bl04/projects/cycle2025-II/20250340211-lsimonelli/DATA/Align/Si_Pos1_25keV_f00001.cal
# Date = 2025-09-24_13:19:32 Dt = 4.8000  Bin = 0.0060  <imon> = 6787003 +/- 2304 (Min/Max) 6784119 / 6789758
# icurr 252.7282  mocoIn 1.7239E-05  mocoOut 0.8089  i15 7.10952e+06  imon 6.787e+06  i7 4.3333  iEMpd_timer 4.8000  iEMpd_1 3.5527E-08  iEMpd_2 7.8976E-08  iEMpd_3 1.6609E-08  iEMpd_4 4.7385E-08  iEMhp_timer 4.8000  iEMhp_1 4.9361E-06  iEMhp_2 -2.4449E-08  iEMhp_3 -2.3381E-08  iEMhp_4 -2.0238E-08
#      9776
 1.5856  39816.7  204.941
 1.6276  46658.8  218.044
 1.6696  53300.6  232.226
 1.7116  62012  250.975
 1.7536  71590.2  268.513
 1.7956  76256.8  277.819
 1.8376  71711.3  269.839
 1.8796  60430.5  245.887
 1.9216  48484  221.121
 1.9636  41198.5  203.51
 2.0056  36489.2  190.302
 2.0476  34034.6  185.805
 2.0896  32674.2  180.986
 2.1316  31797.2  177.682
 2.1736  30529.6  175.486
 2.2156  30524.5  174.062
 2.2576  29522  171.796
 2.2996  29061.9  171.076
 2.3416  28878  169.173
 2.3836  28221.1  167.34
 2.4256  27181.3  164.764
 2.4676  27118.8  164.341
 2.5096  27463.6  165.437
 2.5516  33299.9  186.326
 2.5936  132854  364.695
 2.6356  29178.7  171.638
 2.6776  25896.9  160.603
 2.7196  25510.6  159.909
 2.7616  25157.3  158.579
 2.8036  24810.4  157.649
 2.8456  24564.6  157.471
 2.8876  24148.1  155.998
 2.9296  23702.9  154.686
 2.9716  23512  153.566
 3.0136  23601.9  153.925
 3.0556  23227  153.085
 3.0976  23300  152.287
 3.1396  23145.5  152.472
 3.1816  22806.7  151.291
 3.2236  22716.3  150.987
 3.2656  22777  150.241
 3.3076  22471.1  150.657
 3.3496  22765.3  150.589
 3.3916  23304.1  152.201
 3.4336  23783.2  154.328
 3.4756  24022.8  155.04
 3.5176  24802.3  157.321
 3.5596  24541.8  159.427
 3.6016  25148.7  158.475
 3.6436  24168.4  156.431
 3.6856  23766.1  153.451
 3.7276  22763.6  151.246
 3.7696  22671.6  150.942
 3.8116  22212  149.487
 3.8536  22279.2  149.654
 3.8956  22369.2  149.778
 3.9376  23050.8  152.294
 3.9796  22068.6  148.532
 4.0216  22405.4  148.703
 4.0636  22124.9  149.219
 4.1056  22250.6  149.287
 4.1476  22369.7  150.011
 4.1896  22482.4  150.243
 4.2316  22677.5  150.727
 4.2736  23273.5  152.479
 4.3156  23451.2  153.292
 4.3576  24164.7  155.532
 4.3996  24447.7  156.685
 4.4416  25115.3  158.406
 4.4836  26664.1  163.364
 4.5256  26050.9  162.096
 4.5676  25999.7  162.183
 4.6096  26429.8  162.544
 4.6516  27185.5  164.198
 4.6936  27106.9  164.768
 4.7356  28120.5  167.65
 4.7776  27363.3  165.202
 4.8196  26759.8  164.025
 4.8616  26555.5  162.868
 4.9036  26055.2  161.095
 4.9456  26508.4  163.128
 4.9876  25706.8  160.546
 5.0296  25671.7  160.257
 5.0716  25589.5  160.771
 5.1136  25834.4  161.247
 5.1556  26174.1  161.763
 5.1976  35011.6  187.088
 5.2396  26662.1  162.962
 5.2816  26482.5  162.876
 5.3236  26540.9  162.759
 5.3656  26060  162.18
 5.4076  25906  161.857
 5.4496  26094.6  161.925
 5.4916  25997.4  161.393
 5.5336  26023.5  161.476
 5.5756  25718.9  160.571
 5.6176  26055.8  161.05
 5.6596  26425.7  163.008
 5.7016  26520.4  162.722
 5.7436  26633  163.337
 5.7856  26413.4  162.717
 5.8276  27036.9  164.35
 5.8696  26908.4  164.03
 5.9116  26883.3  164.655
 5.9536  27253.2  165.543
 5.9956  27342.8  165.18
 6.0376  27529.9  166.376
 6.0796  27712.6  166.754
 6.1216  27758.8  167.091
 6.1636  28295.8  167.774
 6.2056  28031.6  167.64
 6.2476  28190.6  167.826
 6.2896  28602.5  168.905
 6.3316  28241  168.012
 6.3736  28650.7  169.115
 6.4156  28378.5  168.26
 6.4576  28827.7  169.142
 6.4996  29000.8  170.119
 6.5416  28987  170.22
 6.5836  29503.6  171.956
 6.6256  29017  170.101
 6.6676  29481.9  171.032
 6.7096  29408.2  171.671
 6.7516  29800.9  172.464
 6.7936  30991.4  175.303
 6.8356  31613.8  177.129
 6.8776  31186.2  176.728
 6.9196  30649.4  175.606
 6.9616  30915.1  175.802
 7.0036  31503.3  177.128
 7.0456  31516.4  176.463
 7.0876  31359.1  177.63
 7.1296  31377  176.896
 7.1716  31232.8  176.037
 7.2136  31105.1  175.45
 7.2556  31410.3  176.473
 7.2976  31110.1  176.119
 7.3396  31189.7  176.545
 7.3816  31291.3  177.056
 7.4236  31621.2  177.282
 7.4656  31642.4  176.828
 7.5076  32123.2  178.302
 7.5496  31911.4  178.25
 7.5916  32080.7  178.753
 7.6336  32833  180.731
 7.6756  32729.4  180.299
 7.7176  32908.9  181.1
 7.7596  32551.4  181.355
 7.8016  38189.6  198.786
 7.8436  33949.2  184.054
 7.8856  34101.6  184.064
 7.9276  34777.4  186.293
 7.9696  35013  187.232
 8.0116  35940.8  188.226
 8.0536  36472.9  189.873
 8.0956  38988.1  197.522
 8.1376  36631.4  190.942
 8.1796  36670.5  191.582
 8.2216  38023.4  193.812
 8.2636  38988.3  196.509
 8.3056  37870.3  194.459
 8.3476  39951.7  199.031
 8.3896  38808.3  196.245
 8.4316  38144.2  194.723
 8.4736  38299.3  194.581
 8.5156  37878.5  193.788
 8.5576  37605.1  194.061
 8.5996  37516.7  192.704
 8.6416  37513.6  193.956
 8.6836  37560  193.919
 8.7256  38046.3  194.603
 8.7676  40477.5  203.772
 8.8096  40477.3  200.98
 8.8516  37390.9  192.832
 8.8936  39904.8  199.046
 8.9356  37036.3  192.096
 8.9776  37211  192.651
 9.0196  36772.1  191.185
 9.0616  37281  191.956
 9.1036  39585.1  199.06
 9.1456  37034.6  191.875
 9.1876  36381.8  190.131
 9.2296  36465.9  189.744
 9.2716  35765  187.982
 9.3136  35442.6  187.11
 9.3556  36051.1  188.689
 9.3976  34489.8  185.098
 9.4396  34967.1  186.262
 9.4816  34259.8  184.238
 9.5236  34417.2  184.567
 9.5656  34449.4  184.968
 9.6076  33952.6  184.164
 9.6496  33865.3  183.854
 9.6916  34021.9  184.247
 9.7336  33967.2  183.88
 9.7756  33961.8  184.972
 9.8176  33181.6  182.467
 9.8596  33010.7  180.448
 9.9016  32863.9  180.038
 9.9436  32686.7  179.287
 9.9856  32899.2  180.28
 10.0276  31693.6  178.047
 10.0696  31905.7  177.681
 10.1116  31488.8  176.778
 10.1536  31105.2  175.381
 10.1956  30884.4  174.839
 10.2376  30383.9  172.928
 10.2796  30606.5  173.678
 10.3216  30506.8  173.514
 10.3636  30112.8  172.572
 10.4056  33018.3  181.11
 10.4476  33012.6  180.714
 10.4896  37448.2  191.857
 10.5316  35050.3  186.036
 10.5736  30253.6  173.585
 10.6156  29690.7  171.738
 10.6576  34870.2  184.526
 10.6996  29670.5  170.885
 10.7416  28867.8  168.808
 10.7836  29929.6  172.585
 10.8256  27876.5  166.999
 10.8676  28112.9  167.232
 10.9096  28063.1  167.137
 10.9516  27604.9  164.685
 10.9936  28703.7  168.14
 11.0356  28242  167.424
 11.0776  29188.8  169.492
 11.1196  29304.4  170.607
 11.1616  27422.8  164.719
 11.2036  28535.7  167.886
 11.2456  29866.2  172.502
 11.2876  26813.5  163.178
 11.3296  26975.8  163.563
 11.3716  27493.4  164.851
 11.4136  26905.8  163.954
 11.4556  27539.3  165.533
 11.4976  28704.6  167.925
 11.5396  28372.8  167.11
 11.5816  26301.7  161.365
 11.6236  25920  160.399
 11.6656  26136.3  160.242
 11.7076  25552.9  159.274
 11.7496  25975.4  164.568
 11.7916  26258.4  160.708
 11.8336  25123.3  158.081
 11.8756  25577.2  159.037
 11.9176  25229.6  157.594
 11.9596  24667.2  156.03
 12.0016  24797.1  157.231
 12.0436  24750.2  156.502
 12.0856  24225.1  155.357
 12.1276  24431.7  155.934
 12.1696  24480.2  155.224
 12.2116  25103  157.174
 12.2536  27191.1  164.447
 12.2956  25058.5  157.202
 12.3376  24599.3  155.979
 12.3796  24508.4  156.148
 12.4216  24617.3  155.705
 12.4636  25643.1  159.863
 12.5056  24181.5  154.509
 12.5476  24211  154.132
 12.5896  24319.3  155.102
 12.6316  23843.7  153.754
 12.6736  24010.9  154.758
 12.7156  24370.9  155.791
 12.7576  24227.9  155.568
 12.7996  24282  154.382
 12.8416  24695.8  156.76
 12.8836  25447.7  158.947
 12.9256  24981.1  156.494
 12.9676  24917.8  156.715
 13.0096  24412.1  156.226
 13.0516  24780.5  156.427
 13.0936  24593.7  155.954
 13.1356  24917.3  156.242
 13.1776  24826.1  156.947
 13.2196  24554.7  155.749
 13.2616  24532.6  155.982
 13.3036  24325.9  155.472
 13.3456  24400.7  155.887
 13.3876  24804  156.471
 13.4296  24644.6  156.112
 13.4716  24816.1  156.258
 13.5136  24848.2  156.514
 13.5556  24846.3  157.116
 13.5976  24667.4  156.705
 13.6396  25334.5  158.159
 13.6816  24373.9  155.515
 13.7236  25312.5  158.247
 13.7656  24680.3  156.801
 13.8076  25686.3  158.712
 13.8496  24776.1  156.665
 13.8916  24735.1  157.363
 13.9336  24316.8  155.249
 13.9756  24164.3  154.117
 14.0176  24182.5  154.85
 14.0596  25285.2  158.315
 14.1016  23906.6  154.329
 14.1436  23449.2  151.991
 14.1856  23510  152.475
 14.2276  23660.5  153.452
 14.2696  23952.7  154.241
 14.3116  23121.9  151.429
 14.3536  22741.3  150.358
 14.3956  22497.5  149.281
 14.4376  22738.8  149.866
 14.4796  22551.8  149.244
 14.5216  22322.7  149.272
 14.5636  22750.3  150.264
 14.6056  22263  148.22
 14.6476  22145.3  147.048
 14.6896  21833.4  146.558
 14.7316  21373  146.027
 14.7736  21446.7  145.426
 14.8156  21226  144.705
 14.8576  21091.1  144.103
 14.8996  21037.9  145.133
 14.9416  20450.3  143.09
 14.9836  20738  144.054
 15.0256  20339.7  141.581
 15.0676  20265.3  141.636
 15.1096  20251.7  141.324
 15.1516  19783.3  140.228
 15.1936  19783.3  139.663
 15.2356  19703.5  139.663
 15.2776  19730.8  139.339
 15.3196  19428.7  139.279
 15.3616  19306.9  138.601
 15.4036  19104.5  137.716
 15.4456  19528.4  138.893
 15.4876  18914.7  136.369
 15.5296  18689.8  135.841
 15.5716  18462.7  134.618
 15.6136  18523.5  135.165
 15.6556  20612.5  141.783
 15.6976  18924.5  136.146
 15.7396  18505.5  135.03
 15.7816  18614.5  134.922
 15.8236  18028.1  133.493
 15.8656  18114  133.597
 15.9076  17688.7  131.842
 15.9496  18531.7  137.832
 15.9916  17610.8  134.783
 16.0336  17348  130.696
 16.0756  17549.9  131.761
 16.1176  17443  131.271
 16.1596  17164.7  131.555
 16.2016  17141.6  130.207
 16.2436  16887.7  129.631
 16.2856  16910  129.257
 16.3276  16518.2  128.167
 16.3696  16909.7  129.498
 16.4116  16347.5  127.793
 16.4536  16961.4  129.94
 16.4956  17551.2  131.915
 16.5376  16979.4  129.942
 16.5796  16646.2  128.002
 16.6216  16476.9  127.664
 16.6636  16749.3  128.87
 16.7056  16520.8  127.852
 16.7476  16658.4  127.91
 16.7896  16580.3  128.367
 16.8316  16494.8  128.004
 16.8736  16747.9  129.24
 16.9156  16572.9  128.898
 16.9576  16265.8  128.49
 16.9996  16426.9  129.612
 17.0416  16322.3  127.545
 17.0836  16065.4  126.299
 17.1256  15919.1  125.741
 17.1676  16527.2  128.105
 17.2096  16198  126.704
 17.2516  16074.5  126.307
 17.2936  15538.6  124.205
 17.3356  15361.8  123.504
 17.3776  15364  123.698
 17.4196  15404  123.544
 17.4616  15430  123.578
 17.5036  16163.9  126.849
 17.5456  15192  123.626
 17.5876  15239.1  122.861
 17.6296  15093.8  122.087
 17.6716  15247.9  123.289
 17.7136  15850.6  125.859
 17.7556  15241  123.702
 17.7976  15328.1  123.793
 17.8396  15062.2  122.209
 17.8816  15009.9  122.528
 17.9236  14799.4  121.485
 17.9656  15086.3  123.201
 18.0076  15703.7  125.275
 18.0496  16429  127.218
 18.0916  20361.4  142.252
 18.1336  18030.5  133.978
 18.1756  16129.6  126.227
 18.2176  16359.4  127.367
 18.2596  15107.9  122.121
 18.3016  15666.5  124.624
 18.3436  16191.9  126.688
 18.3856  15238.3  123.052
 18.4276  15006.7  121.788
 18.4696  15243.3  122.838
 18.5116  15121.8  122.639
 18.5536  15001  122.509
 18.5956  14854.7  121.463
 18.6376  15094.5  122.847
 18.6796  14512.5  119.788
 18.7216  15064  122.531
 18.7636  14488.6  120.164
 18.8056  14450.7  119.947
 18.8476  14133.6  119.249
 18.8896  14209.1  118.901
 18.9316  14520.1  120.182
 18.9736  14332.4  119.092
 19.0156  14738.3  121.175
 19.0576  14574  119.36
 19.0996  14434.1  119.498
 19.1416  14347.2  119.537
 19.1836  14040.4  117.849
 19.2256  14011.8  117.942
 19.2676  14038.1  118.146
 19.3096  14167.6  118.93
 19.3516  14072.4  118.319
 19.3936  14190  118.881
 19.4356  14174.3  118.694
 19.4776  14037.8  118.218
 19.5196  14065.8  118.185
 19.5616  14188.8  118.961
 19.6036  14132.4  118.214
 19.6456  14190  118.579
 19.6876  14634.9  120.059
 19.7296  14133.2  118.446
 19.7716  14059.2  118.292
 19.8136  14299.9  119.524
 19.8556  14791.5  121.014
 19.8976  14983.2  121.868
 19.9396  14624.3  119.971
 19.9816  14900.9  121.341
 20.0236  14873.7  121.458
 20.0656  14223.5  118.765
 20.1076  13742.3  117.207
 20.1496  13814.2  117.511
 20.1916  13993.1  117.743
 20.2336  13819.9  116.989
 20.2756  13638.7  116.643
 20.3176  13473.9  115.684
 20.3596  13688.9  116.58
 20.4016  13603.6  116.016
 20.4436  13700.5  116.987
 20.4856  13411.1  115.552
 20.5276  13458.5  116.207
 20.5696  13367.2  115.373
 20.6116  13309.6  115.296
 20.6536  13397.5  115.185
 20.6956  13251.6  114.676
 20.7376  13400  115.552
 20.7796  13166  114.229
 20.8216  13563.4  115.644
 20.8636  13635.6  116.327
 20.9056  14684.3  120.656
 20.9476  13592.9  115.938
 20.9896  14403.8  119.201
 21.0316  13619.1  115.793
 21.0736  13648.3  116.455
 21.1156  13909  117.724
 21.1576  13448.5  115.807
 21.1996  13282.2  115.07
 21.2416  13141.9  114.301
 21.2836  13347.3  115.147
 21.3256  13034.5  113.877
 21.3676  13499.7  115.43
 21.4096  13675.8  116.551
 21.4516  13109  113.935
 21.4936  12926.8  113.386
 21.5356  13133  114.24
 21.5776  13350.6  115.011
 21.6196  13322.8  114.923
 21.6616  13134.4  114.201
 21.7036  13064.3  113.681
 21.7456  12932.6  113.178
 21.7876  12801.4  112.352
 21.8296  12765.5  112.051
 21.8716  12746.8  112.2
 21.9136  13076  113.841
 21.9556  13214.3  114.109
 21.9976  12912.1  112.809
 22.0396  12887.8  112.96
 22.0816  12800.4  113.118
 22.1236  13225.6  114.429
 22.1656  13159.9  114.268
 22.2076  12904.6  112.619
 22.2496  12842.1  112.368
 22.2916  12878.8  112.416
 22.3336  12928.5  113.358
 22.3756  12903.8  112.973
 22.4176  12663.6  111.773
 22.4596  12514.3  111.7
 22.5016  12792.9  112.42
 22.5436  12978.9  113.118
 22.5856  12798.6  112.577
 22.6276  12659.5  112.098
 22.6696  12752.4  112.862
 22.7116  12679.1  112.05
 22.7536  12846.6  112.766
 22.7956  12849.3  112.098
 22.8376  12572.8  111.418
 22.8796  12820.2  112.302
 22.9216  12688.5  112.275
 22.9636  12913.7  112.406
 23.0056  12721.4  111.701
 23.0476  12938.8  113.223
 23.0896  13285.9  114.101
 23.1316  13100.6  113.745
 23.1736  12612.8  114.569
 23.2156  12778.4  112.687
 23.2576  12757.8  112.727
 23.2996  12787.2  112.64
 23.3416  12538.1  112.057
 23.3836  12719.1  112.092
 23.4256  12733  112.277
 23.4676  12561.3  111.211
 23.5096  12670.5  112.37
 23.5516  12770  112.089
 23.5936  12691.2  112.644
 23.6356  12850.6  113.023
 23.6776  12733.5  112.71
 23.7196  12569.5  111.787
 23.7616  12640  111.785
 23.8036  12640.7  111.848
 23.8456  12539.7  110.954
 23.8876  12286.5  110.185
 23.9296  12269.7  110.599
 23.9716  12458.3  110.631
 24.0136  12499.2  111.721
 24.0556  12414  111.072
 24.0976  12176.3  109.814
 24.1396  12152.1  112.325
 24.1816  12290.7  111.393
 24.2236  12309.7  111.082
 24.2656  12299.1  110.503
 24.3076  12213  110.359
 24.3496  12484.6  111.469
 24.3916  12452  111.374
 24.4336  12158.6  110.27
 24.4756  12180.7  110.244
 24.5176  11899.1  108.605
 24.5596  11774  108.362
 24.6016  11785.1  108.5
 24.6436  11902.1  108.534
 24.6856  11927.7  108.4
 24.7276  11998.4  109.03
 24.7696  11843.8  108.451
 24.8116  11777.2  108.321
 24.8536  11827.4  108.55
 24.8956  11811.9  108.218
 24.9376  11572.7  107.303
 24.9796  11594.4  107.511
 25.0216  11604.7  107.673
 25.0636  11583.3  107.219
 25.1056  11269.3  106.463
 25.1476  11523.9  109.334
 25.1896  11522.9  107.791
 25.2316  11558.5  107.225
 25.2736  11502.5  106.607
 25.3156  11380.5  106.13
 25.3576  11244.1  105.909
 25.3996  11279.8  106.061
 25.4416  11329.5  106.272
 25.4836  11280.8  106.576
 25.5256  11303.2  106.04
 25.5676  11410.8  106.263
 25.6096  11191.3  105.821
 25.6516  11331.5  105.963
 25.6936  11116.7  105.282
 25.7356  11130.9  105.482
 25.7776  11326.7  106.084
 25.8196  11217.2  105.728
 25.8616  11154.4  105.358
 25.9036  11346.8  105.723
 25.9456  11164.7  105.462
 25.9876  11006.8  104.65
 26.0296  11241.2  105.398
 26.0716  11140.7  105.361
 26.1136  11434.4  106.677
 26.1556  11505.1  106.372
 26.1976  11039.7  105.126
 26.2396  11078.4  104.461
 26.2816  11101.8  105.195
 26.3236  11178.4  105.71
 26.3656  10963.8  104.422
 26.4076  11095  105.25
 26.4496  11591.2  107.065
 26.4916  11218.4  105.329
 26.5336  11018.4  104.707
 26.5756  11232.7  105.588
 26.6176  11168.8  105.326
 26.6596  10903.3  104.382
 26.7016  10772.5  103.505
 26.7436  10708.8  103.341
 26.7856  10690.8  103.23
 26.8276  10726  103.354
 26.8696  10773.9  103.459
 26.9116  10795.1  103.502
 26.9536  10601.9  102.616
 26.9956  10675.8  103.004
 27.0376  10627.9  102.991
 27.0796  10801.6  103.555
 27.1216  10690.2  103.103
 27.1636  10555.7  102.616
 27.2056  10563.2  102.535
 27.2476  10645.9  102.938
 27.2896  10472.5  102.2
 27.3316  10478  101.934
 27.3736  10513.2  102.372
 27.4156  10442.8  101.878
 27.4576  10666.5  103.198
 27.4996  10488.2  101.932
 27.5416  10493.9  102.275
 27.5836  10459.2  101.924
 27.6256  10773.4  103.615
 27.6676  10672.6  103.142
 27.7096  10549.4  102.417
 27.7516  11173.4  105.55
 27.7936  10773.8  103.827
 27.8356  10782.3  103.476
 27.8776  10575.1  102.524
 27.9196  10462.9  101.824
 27.9616  10683.8  103.087
 28.0036  10553.2  102.434
 28.0456  10305.7  101.344
 28.0876  10296.8  101.401
 28.1296  10276.3  101.138
 28.1716  10388.5  101.699
 28.2136  10314.5  101.303
 28.2556  10161.2  100.668
 28.2976  10181.2  100.753
 28.3396  10406.5  101.613
 28.3816  10310  101.166
 28.4236  10432.5  101.919
 28.4656  10027.9  99.9622
 28.5076  10038.9  99.6495
 28.5496  9933.73  99.3895
 28.5916  10105.9  100.051
 28.6336  10020.7  99.9794
 28.6756  10060.8  99.3717
 28.7176  9985.77  99.5481
 28.7596  9939.92  99.2196
 28.8016  9953.69  99.3169
 28.8436  9838.9  98.9875
 28.8856  10008.1  99.6867
 28.9276  10004.2  99.9147
 28.9696  9880.06  98.9526
 29.0116  9962.15  99.5457
 29.0536  9925.88  99.5672
 29.0956  10000.6  99.6596
 29.1376  9874.77  98.9916
 29.1796  9781.6  98.564
 29.2216  9770.41  98.3518
 29.2636  9787.55  98.5169
 29.3056  9776.25  98.248
 29.3476  9949.79  99.6456
 29.3896  9912.19  99.5565
 29.4316  9953.41  99.0849
 29.4736  9831.14  98.5407
 29.5156  10049.7  99.5384
 29.5576  9890.1  99.4986
 29.5996  9854.53  98.5741
 29.6416  9763.88  98.2357
 29.6836  9715.32  97.92
 29.7256  9723.15  98.5241
 29.7676  9805.79  98.6074
 29.8096  9876.26  98.8981
 29.8516  9644.62  98.0721
 29.8936  9776.3  98.8284
 29.9356  9827.88  98.8417
 29.9776  9640.11  98.048
 30.0196  9773.01  98.0962
 30.0616  9853  98.883
 30.1036  9724.96  98.0592
 30.1456  9613.94  97.7368
 30.1876  9674.09  98.011
 30.2296  9736.54  98.286
 30.2716  9714.14  97.8001
 30.3136  9584.63  98.0081
 30.3556  9741.86  98.8309
 30.3976  9554.66  99.4034
 30.4396  9829.68  98.1276
 30.4816  9683.12  96.989
 30.5236  9603.95  96.6151
 30.5656  9692.48  97.7141
 30.6076  9676.96  97.4067
 30.6496  9633.7  97.2314
 30.6916  9543.46  96.8662
 30.7336  9498.05  96.7894
 30.7756  9629.42  97.5509
 30.8176  9486.22  96.7373
 30.8596  9653.28  97.35
 30.9016  9394.49  95.9097
 30.9436  9574.61  97.0453
 30.9856  9574.33  97.1616
 31.0276  9532.53  96.5498
 31.0696  9457.87  96.7475
 31.1116  9455.57  96.715
 31.1536  9565.25  97.1529
 31.1956  9357.88  96.1852
 31.2376  9210.37  95.4293
 31.2796  9369.35  95.7898
 31.3216  9416.45  95.9747
 31.3636  9488.57  97.0279
 31.4056  9403.32  97.9139
 31.4476  9339.11  95.4617
 31.4896  9379  96.1715
 31.5316  9608.66  96.7286
 31.5736  10050.7  98.7508
 31.6156  9902.69  98.0352
 31.6576  9596.88  96.6132
 31.6996  9670.42  96.6415
 31.7416  9388.01  96.1505
 31.7836  9410.21  95.4122
 31.8256  9279.62  95.0261
 31.8676  9436.8  95.8106
 31.9096  9367.02  95.6785
 31.9516  9199.41  95.1218
 31.9936  9176.94  94.8259
 32.0356  9266.56  95.3592
 32.0776  9336.16  95.6017
 32.1196  9294.42  95.3971
 32.1616  9246.61  94.6898
 32.2036  9167.45  94.8
 32.2456  9135.66  95.0111
 32.2876  9212.31  94.8978
 32.3296  9194.42  94.7739
 32.3716  9202.43  94.915
 32.4136  9262.74  95.4503
 32.4556  9260.92  94.8072
 32.4976  9339.05  95.1651
 32.5396  9117.42  94.0548
 32.5816  9045.84  93.8106
 32.6236  9167.66  94.5056
 32.6656  9210.04  95.2676
 32.7076  9098.59  94.3428
 32.7496  9192.55  94.4886
 32.7916  9204.67  94.5157
 32.8336  9165.9  94.4073
 32.8756  9155.75  94.0863
 32.9176  9114.86  94.3489
 32.9596  9155.2  94.6403
 33.0016  9157.24  94.4469
 33.0436  9134.65  94.5004
 33.0856  8983.72  93.7877
 33.1276  8990.58  93.5516
 33.1696  9154.22  94.2436
 33.2116  9042.28  93.8868
 33.2536  9024.77  93.8076
 33.2956  9095.06  94.2533
 33.3376  8971.38  93.4286
 33.3796  9058.54  94.0088
 33.4216  8965.24  93.117
 33.4636  8985.7  93.3684
 33.5056  8953.21  93.4397
 33.5476  8882.9  93.0737
 33.5896  9030.69  93.602
 33.6316  8912.79  93.3218
 33.6736  8788.55  92.9083
 33.7156  8900.46  93.5418
 33.7576  8990.41  93.6368
 33.7996  9094  93.9322
 33.8416  8755.15  92.3487
 33.8836  8937.64  93.0816
 33.9256  8892.84  92.9236
 33.9676  8963.19  93.1728
 34.0096  8722.51  92.2402
 34.0516  8760.57  92.0697
 34.0936  8790.82  92.4963
 34.1356  8921.58  92.9151
 34.1776  8812.99  92.3592
 34.2196  8717.45  92.0416
 34.2616  8726.21  92.2196
 34.3036  8674.54  92.2065
 34.3456  8694.82  92.0641
 34.3876  8762.78  92.4766
 34.4296  8845.57  92.5021
 34.4716  8826.82  92.5544
 34.5136  8706.45  92.1313
 34.5556  8704.58  92.377
 34.5976  8843.81  92.9497
 34.6396  8693.91  91.8367
 34.6816  8722.86  92.1042
 34.7236  8853.96  92.5716
 34.7656  8754.81  92.2519
 34.8076  8761.02  92.6128
 34.8496  8685.59  92.0574
 34.8916  8687.74  91.9459
 34.9336  8830.74  92.6591
 34.9756  8738.51  92.1296
 35.0176  8764.01  92.7763
 35.0596  8554.89  91.4787
 35.1016  8687.89  91.9558
 35.1436  8597.29  91.1591
 35.1856  8554.62  91.0622
 35.2276  8622.11  91.5911
 35.2696  8662.01  91.9995
 35.3116  8630.92  91.9267
 35.3536  8485.32  90.8974
 35.3956  8567.38  90.9987
 35.4376  8563.97  91.5465
 35.4796  8688.07  92.2693
 35.5216  8631.08  91.924
 35.5636  8436.59  91.6274
 35.6056  8573.02  91.3731
 35.6476  8602.81  91.4321
 35.6896  8604.17  91.5203
 35.7316  8485.5  90.8643
 35.7736  8483.1  91.0509
 35.8156  8358.96  90.3862
 35.8576  8623.36  92.0506
 35.8996  8611.2  91.9529
 35.9416  8740.42  92.0743
 35.9836  8561.63  91.6417
 36.0256  8655.81  92.066
 36.0676  8509.93  91.0342
 36.1096  8333.67  90.2321
 36.1516  8495.36  90.9876
 36.1936  8455.21  90.6188
 36.2356  8488.53  91.4501
 36.2776  8506.03  91.0102
 36.3196  8522.98  90.774
 36.3616  8460.25  90.5699
 36.4036  8469.12  90.6781
 36.4456  8442.29  90.7459
 36.4876  8396.09  90.4363
 36.5296  8386.49  90.4276
 36.5716  8496.06  91.8054
 36.6136  8700.12  91.6321
 36.6556  8662.17  91.648
 36.6976  8386.21  90.6717
 36.7396  8351.8  90.213
 36.7816  8427.28  91.0023
 36.8236  8457.75  91.081
 36.8656  8345.7  90.5506
 36.9076  8451.89  91.0025
 36.9496  8312.32  90.2385
 36.9916  8334.38  89.9865
 37.0336  8595.42  91.7088
 37.0756  8481.58  90.8844
 37.1176  8335.62  90.3716
 37.1596  8309.47  90.2341
 37.2016  8364.28  90.7607
 37.2436  8524.25  90.9244
 37.2856  8387.19  90.4518
 37.3276  8373.5  89.7175
 37.3696  8315.49  90.3035
 37.4116  8397.2  90.6522
 37.4536  8250.82  89.7221
 37.4956  8266.89  89.8624
 37.5376  8212.4  91.1181
 37.5796  8262.18  91.3603
 37.6216  7985.28  88.0991
 37.6636  8226.65  89.3292
 37.7056  8251.18  89.6541
 37.7476  8162.37  88.7005
 37.7896  8125.79  89.0033
 37.8316  8077.18  88.9096
 37.8736  8234.61  89.291
 37.9156  8283.36  89.5595
 37.9576  8144.44  88.6956
 37.9996  8062.29  87.9619
 38.0416  8169.97  89.3673
 38.0836  8195.35  89.4091
 38.1256  8246.92  89.6421
 38.1676  8128.47  89.1405
 38.2096  8313.56  89.7652
 38.2516  8229.54  89.5112
 38.2936  8182.32  89.0617
 38.3356  8168.33  88.8895
 38.3776  8008.75  88.2987
 38.4196  8299.54  89.7348
 38.4616  8084.37  88.8089
 38.5036  8284.47  89.7338
 38.5456  8147.99  89.8335
 38.5876  8177.37  90.0205
 38.6296  8099.42  88.5625
 38.6716  7991.34  87.7583
 38.7136  8040.88  87.9755
 38.7556  8078.1  88.6876
 38.7976  8096.71  88.7279
 38.8396  8026.83  88.7974
 38.8816  8038.15  88.6326
 38.9236  7893.37  87.6473
 38.9656  8004.8  88.1793
 39.0076  8106.25  88.1361
 39.0496  8005.24  88.1338
 39.0916  7949.53  87.4622
 39.1336  8039.86  88.3798
 39.1756  8018.61  88.3326
 39.2176  8018.08  88.8587
 39.2596  7980.58  88.5754
 39.3016  7890.58  87.6384
 39.3436  7845.26  87.8188
 39.3856  8118.14  88.7748
 39.4276  8017.4  88.7216
 39.4696  7933.3  87.8812
 39.5116  7981.69  88.6672
 39.5536  8089.68  89.6951
 39.5956  8124.91  88.9731
 39.6376  8091.33  88.7985
 39.6796  7966.19  87.8415
 39.7216  8016.52  88.2245
 39.7636  8065.05  89.0639
 39.8056  8060.95  88.8221
 39.8476  8004.43  88.7655
 39.8896  7977.72  88.2436
 39.9316  7929.82  88.2309
 39.9736  8146.63  88.9886
 40.0156  8070.85  88.401
 40.0576  8050.97  88.6497
 40.0996  8218.34  88.7409
 40.1416  8062.63  88.6922
 40.1836  8157.93  89.1056
 40.2256  8137.16  89.0388
 40.2676  7911.57  87.9674
 40.3096  8060.6  88.6502
 40.3516  8049.99  88.7038
 40.3936  8130.12  88.6979
 40.4356  8099.99  88.7256
 40.4776  8114.98  89.066
 40.5196  8115.15  89.3584
 40.5616  8111.76  88.9821
 40.6036  7984.81  88.5348
 40.6456  8087.77  88.7054
 40.6876  8199.81  89.3003
 40.7296  8069.9  88.7343
 40.7716  8069.99  88.8677
 40.8136  7942.17  88.0957
 40.8556  8069.69  88.9422
 40.8976  8109.87  89.0832
 40.9396  8025.11  88.9665
 40.9816  8152.41  88.9451
 41.0236  8130.44  88.6032
 41.0656  8200  89.5259
 41.1076  8184.02  89.2066
 41.1496  8179.89  89.0927
 41.1916  8124  89.1108
 41.2336  7980.81  88.3206
 41.2756  8078.13  88.4531
 41.3176  8027.86  88.8012
 41.3596  8083.84  88.8323
 41.4016  8033.38  88.8196
 41.4436  8128.47  89.1209
 41.4856  8223.79  89.8091
 41.5276  8079.39  89.0397
 41.5696  8090.56  88.7278
 41.6116  8028.78  88.7932
 41.6536  8038.76  88.7021
 41.6956  8103.74  89.0404
 41.7376  8080.96  89.0206
 41.7796  7982.45  88.3526
 41.8216  8051.22  88.9736
 41.8636  8077.49  89.0513
 41.9056  7915.18  87.9452
 41.9476  7998.58  88.6385
 41.9896  8094.56  88.8431
 42.0316  8031.95  88.5735
 42.0736  8040.14  88.7634
 42.1156  8087.82  88.8313
 42.1576  7991.06  88.393
 42.1996  8148.95  89.4133
 42.2416  8036.99  88.3695
 42.2836  7953.45  88.024
 42.3256  7945.16  88.0958
 42.3676  7970.56  88.0403
 42.4096  7998.19  88.1537
 42.4516  7993.79  88.222
 42.4936  7943.06  88.0082
 42.5356  7964.87  88.254
 42.5776  7953.56  88.1363
 42.6196  8044.31  88.6894
 42.6616  7871.69  87.91
 42.7036  8049.04  88.2669
 42.7456  7925.71  87.9534
 42.7876  7957.48  88.2283
 42.8296  8015.63  88.3853
 42.8716  7837.62  87.5489
 42.9136  7833.18  87.2748
 42.9556  7916.47  87.9163
 42.9976  8049.44  88.6037
 43.0396  7890.21  87.46
 43.0816  7916.37  87.9824
 43.1236  7791.9  87.3522
 43.1656  7892.99  87.7449
 43.2076  7855.75  87.647
 43.2496  7858.8  87.4647
 43.2916  7783.96  87.4188
 43.3336  7841.16  87.5775
 43.3756  7840.25  87.3264
 43.4176  7654  86.3651
 43.4596  7777.34  86.9133
 43.5016  7786.37  87.3708
 43.5436  7764.95  87.1512
 43.5856  7773.77  87.2266
 43.6276  7862.07  87.6047
 43.6696  7823.54  87.6598
 43.7116  7934.37  87.7677
 43.7536  7895.15  88.0443
 43.7956  7628.7  87.7391
 43.8376  7883.77  87.6985
 43.8796  7737.93  86.97
 43.9216  7788.87  87.1737
 43.9636  7837.71  87.5581
 44.0056  7685.81  86.9363
 44.0476  7681.84  86.5425
 44.0896  7670.85  86.826
 44.1316  7835.33  87.2676
 44.1736  7817.52  87.2892
 44.2156  7769.56  86.8749
 44.2576  7717.57  86.915
 44.2996  7623.87  86.3539
 44.3416  7721.82  86.6737
 44.3836  7481.43  85.6337
 44.4256  7459.38  85.1594
 44.4676  7633.69  86.3025
 44.5096  7708.17  86.8672
 44.5516  7636.76  86.4245
 44.5936  7421.31  85.1548
 44.6356  7621.57  86.031
 44.6776  7651.76  86.52
 44.7196  7651.38  86.8332
 44.7616  7534.95  87.4957
 44.8036  7506.48  85.9695
 44.8456  7586.21  86.4325
 44.8876  7510.61  85.8462
 44.9296  7632.43  85.9919
 44.9716  7570.65  86.0661
 45.0136  7557.75  85.9328
 45.0556  7608.79  86.3047
 45.0976  7496.16  85.7232
 45.1396  7377.11  84.7999
 45.1816  7456.67  85.189
 45.2236  7558  85.6673
 45.2656  7440.64  85.4966
 45.3076  7438.98  85.2789
 45.3496  7405.03  85.379
 45.3916  7387.09  85.5458
 45.4336  7392.35  85.4258
 45.4756  7478.06  85.7766
 45.5176  7551.77  85.8094
 45.5596  7416.97  85.1597
 45.6016  7387.2  85.4043
 45.6436  7554.42  85.5342
 45.6856  7334.55  84.9368
 45.7276  7381.2  86.5162
 45.7696  7411.19  86.3581
 45.8116  7451.76  86.025
 45.8536  7498.95  86.198
 45.8956  7472.57  85.3906
 45.9376  7382.22  84.341
 45.9796  7343.84  84.8023
 46.0216  7443.51  85.7211
 46.0636  7404.14  84.6434
 46.1056  7469.06  84.9972
 46.1476  7463.8  85.5632
 46.1896  7351.02  85.0626
 46.2316  7415.2  85.3062
 46.2736  7386.96  85.3539
 46.3156  7415.41  85.2544
 46.3576  7398.3  85.3646
 46.3996  7304.81  84.983
 46.4416  7345.04  84.769
 46.4836  7329.37  85.0552
 46.5256  7477.96  85.8537
 46.5676  7258.85  84.6986
 46.6096  7383.31  85.3469
 46.6516  7478.5  84.9414
 46.6936  7402.46  84.9932
 46.7356  7454.83  85.4016
 46.7776  7350.55  85.654
 46.8196  7281.6  84.9856
 46.8616  7084.61  83.64
 46.9036  7182.54  83.8715
 46.9456  7207.08  83.6505
 46.9876  7318.06  84.3875
 47.0296  7244.08  84.6446
 47.0716  7193.02  84.1678
 47.1136  7162.6  83.6748
 47.1556  7323.33  84.4705
 47.1976  7257.34  84.2438
 47.2396  7181.24  84.1165
 47.2816  7257.82  84.2673
 47.3236  7164.05  84.0964
 47.3656  7308.35  84.8602
 47.4076  7280.78  84.4392
 47.4496  7139.03  83.7723
 47.4916  7166.47  84.1282
 47.5336  7235.52  84.3445
 47.5756  7393.36  85.379
 47.6176  7086.91  83.495
 47.6596  7182.17  83.7625
 47.7016  7298.02  84.2434
 47.7436  7185.75  83.9299
 47.7856  7223.46  84.1863
 47.8276  7123.56  83.6527
 47.8696  7137.4  83.8163
 47.9116  7200.17  83.8996
 47.9536  7156.66  83.5848
 47.9956  7120.74  84.0817
 48.0376  7112.7  83.8027
 48.0796  7193.12  84.4093
 48.1216  7194.57  84.2325
 48.1636  7218.15  83.9503
 48.2056  7235.72  84.3148
 48.2476  7166.51  84.2231
 48.2896  7087.47  83.6624
 48.3316  7016.33  83.1848
 48.3736  7034.78  83.32
 48.4156  7045.25  83.2323
 48.4576  6994.91  83.2249
 48.4996  7157.74  83.6431
 48.5416  7141.82  83.8763
 48.5836  7048.69  83.007
 48.6256  7071.36  83.3362
 48.6676  7027.71  83.5998
 48.7096  7126.86  83.4539
 48.7516  7103.27  83.4659
 48.7936  7034.39  83.1185
 48.8356  7095.82  83.5333
 48.8776  7160.96  84.4882
 48.9196  7089.68  83.4387
 48.9616  7073.5  83.7204
 49.0036  7109.84  84.2893
 49.0456  6952.94  83.3328
 49.0876  7021.02  83.2768
 49.1296  6896.8  82.6943
 49.1716  6973.7  83.0292
 49.2136  7041.03  83.3457
 49.2556  7095.57  83.711
 49.2976  7017.96  83.3262
 49.3396  6908.43  82.717
 49.3816  7081.24  83.1801
 49.4236  7030.23  83.3145
 49.4656  6933.96  82.7518
 49.5076  6958.25  82.6459
 49.5496  6939.39  82.5928
 49.5916  7085.99  83.3752
 49.6336  6916.38  82.5857
 49.6756  6971.3  83.1428
 49.7176  6930.87  82.8386
 49.7596  6913.59  82.5077
 49.8016  7026.24  83.0938
 49.8436  6938.26  82.8541
 49.8856  6878.44  82.5158
 49.9276  6718.52  81.6448
 49.9696  6937.42  82.9515
 50.0116  6879.95  82.7367
 50.0536  6896.82  82.7834
 50.0956  6827.66  82.4437
 50.1376  6848.57  82.2701
 50.1796  6780.89  82.1242
 50.2216  6822.2  82.3708
 50.2636  6861.23  82.2283
 50.3056  6845.22  82.3005
 50.3476  6838.36  82.2875
 50.3896  6856.53  82.3641
 50.4316  6902.66  82.4761
 50.4736  6667.24  81.2748
 50.5156  6911.31  82.7408
 50.5576  6923.73  82.5712
 50.5996  6868.02  82.517
 50.6416  6730.41  81.6183
 50.6836  6811.89  82.1665
 50.7256  6996.07  83.2072
 50.7676  6704.64  81.7617
 50.8096  6816.94  81.9858
 50.8516  6733.8  81.8938
 50.8936  6720.35  81.5868
 50.9356  6804.11  82.2066
 50.9776  6867.11  82.7398
 51.0196  6576  81.0777
 51.0616  6816.77  81.8773
 51.1036  6761.22  81.9026
 51.1456  6801.97  82.0539
 51.1876  6735.54  81.0017
 51.2296  6745.8  81.7011
 51.2716  6636.77  80.7482
 51.3136  6599.31  80.9626
 51.3556  6667.69  81.0165
 51.3976  6536.64  80.356
 51.4396  6589.68  80.9851
 51.4816  6661.66  81.2873
 51.5236  6648.52  81.2855
 51.5656  6705.76  81.2445
 51.6076  6652.37  80.9991
 51.6496  6649.58  81.1717
 51.6916  6553.68  80.9329
 51.7336  6685.24  81.8394
 51.7756  6581.74  80.9054
 51.8176  6695.96  81.7012
 51.8596  6638.45  81.3729
 51.9016  6847.29  82.2473
 51.9436  6622.37  82.3406
 51.9856  6501.78  82.004
 52.0276  6741.72  82.0246
 52.0696  6631.02  81.4142
 52.1116  6625.15  81.4892
 52.1536  6608.36  81.2233
 52.1956  6750.67  81.609
 52.2376  6736.61  81.697
 52.2796  6573.57  80.5209
 52.3216  6382.07  80.0083
 52.3636  6623.43  81.0903
 52.4056  6504.19  80.207
 52.4476  6556.29  80.9002
 52.4896  6503.58  80.6262
 52.5316  6545.87  80.9345
 52.5736  6578.96  80.8638
 52.6156  6565.43  81.1476
 52.6576  6603.18  80.8316
 52.6996  6479.4  81.0442
 52.7416  6542.14  81.2834
 52.7836  6481.63  80.7684
 52.8256  6550.38  80.432
 52.8676  6537.8  80.9378
 52.9096  6539.02  81.0345
 52.9516  6550.13  81.4693
 52.9936  6444.29  81.194
 53.0356  6372.25  79.7521
 53.0776  6396.73  80.164
 53.1196  6288.55  79.6083
 53.1616  6398.82  80.3475
 53.2036  6419.43  80.433
 53.2456  6361.94  80.1786
 53.2876  6401.94  80.1334
 53.3296  6428.59  80.6248
 53.3716  6394.42  80.1601
 53.4136  6399.76  80.3387
 53.4556  6352.95  80.0752
 53.4976  6367.3  80.0151
 53.5396  6284.62  79.875
 53.5816  6319.54  79.7407
 53.6236  6358.84  80.3243
 53.6656  6357.86  79.9539
 53.7076  6521.16  80.9354
 53.7496  6442.49  80.5697
 53.7916  6334.65  80.0137
 53.8336  6312.76  79.7732
 53.8756  6221.09  79.7346
 53.9176  6258.61  79.3234
 53.9596  6452.15  81.3166
 54.0016  6309.61  79.7458
 54.0436  6294.62  79.8674
 54.0856  6432.91  80.1683
 54.1276  6398.19  80.155
 54.1696  6247.54  79.37
 54.2116  6362.9  79.8584
 54.2536  6367.79  79.7028
 54.2956  6362.35  79.7116
 54.3376  6343.18  80.0791
 54.3796  6365.34  80.1113
 54.4216  6379.3  80.2514
 54.4636  6356.37  80.0613
 54.5056  6415.8  80.2628
 54.5476  6265.82  79.6476
 54.5896  6369.73  80.132
 54.6316  6324.09  79.709
 54.6736  6408.61  80.3087
 54.7156  6326.71  79.8203
 54.7576  6248.52  79.3206
 54.7996  6241.69  79.4316
 54.8416  6272.49  79.6599
 54.8836  6175.23  79.156
 54.9256  6259.45  79.4413
 54.9676  6339.79  79.8106
 55.0096  6274.06  79.4616
 55.0516  6281.87  79.7409
 55.0936  6373.35  79.9443
 55.1356  6244.97  79.1787
 55.1776  6241.66  79.4313
 55.2196  6360.62  79.9599
 55.2616  6314.52  79.887
 55.3036  6241.94  79.5806
 55.3456  6234.71  79.6826
 55.3876  6324.52  80.0034
 55.4296  6325.77  79.983
 55.4716  6397.09  80.4719
 55.5136  6337.5  79.8451
 55.5556  6256.36  79.4127
 55.5976  6282.03  79.6282
 55.6396  6235.51  79.1996
 55.6816  6318.94  79.6868
 55.7236  6225.81  79.1392
 55.7656  6391.96  79.94
 55.8076  6367.55  79.7721
 55.8496  6207.02  79.1951
 55.8916  6204.44  79.2651
 55.9336  6258.5  79.4253
 55.9756  6223.67  79.0983
 56.0176  6170.85  78.912
 56.0596  6306  79.7498
 56.1016  6183.62  78.9869
 56.1436  6176.11  79.2059
 56.1856  6230.88  79.2895
 56.2276  6265.73  79.5681
 56.2696  6285.41  79.6663
 56.3116  6180.39  79.4032
 56.3536  6276.25  79.674
 56.3956  6194.66  79.1441
 56.4376  6236.78  79.4427
 56.4796  6296.18  79.6219
 56.5216  6282.28  79.9145
 56.5636  6304.9  79.6414
 56.6056  6234.64  79.4324
 56.6476  6216.93  78.9455
 56.6896  6226.01  79.4534
 56.7316  6238.67  79.4402
 56.7736  6223.54  79.3428
 56.8156  6308.04  79.872
 56.8576  6229.19  79.3176
 56.8996  6271.12  79.5162
 56.9416  6171.57  79.1851
 56.9836  6125.8  78.4146
 57.0256  6144.42  78.8437
 57.0676  6250.78  79.6537
 57.1096  6249.61  79.431
 57.1516  6195.35  79.1506
 57.1936  6147.75  78.5938
 57.2356  6187.58  79.1626
 57.2776  6222.14  79.3407
 57.3196  6288.29  80.1415
 57.3616  6226.73  79.2361
 57.4036  6228.98  79.311
 57.4456  6154.06  78.8017
 57.4876  6298.53  79.574
 57.5296  6132.69  78.8632
 57.5716  6096.64  78.6157
 57.6136  6181.34  78.9764
 57.6556  6208.17  79.2782
 57.6976  6156.42  78.7865
 57.7396  6091.47  78.7396
 57.7816  6162.4  79.5594
 57.8236  6210.48  79.6579
 57.8656  6171.17  79.0647
 57.9076  6139.35  78.8922
 57.9496  6154.81  79.3314
 57.9916  6202.49  79.1494
 58.0336  6088.12  78.6969
 58.0756  6267.99  79.4578
 58.1176  6253.38  79.3871
 58.1596  6161.26  79.375
 58.2016  6322.62  79.6086
 58.2436  6160.33  78.9926
 58.2856  6288.27  79.7307
 58.3276  6136.8  79.1344
 58.3696  6157.52  79.0157
 58.4116  6200.63  79.1547
 58.4536  6188.4  78.9609
 58.4956  6197.71  79.2052
 58.5376  6140.4  78.4084
 58.5796  6172.9  79.0439
 58.6216  6175.4  78.8749
 58.6636  6305.25  79.9191
 58.7056  6279.08  79.6036
 58.7476  6220.48  79.6823
 58.7896  6136.65  78.7851
 58.8316  6282.53  79.705
 58.8736  6216.36  79.3022
 58.9156  6117.14  78.7055
 58.9576  6217.78  79.6758
 58.9996  6333.67  79.6417
 59.0416  6257.8  79.5409
 59.0836  6226.05  79.2597
 59.1256  6170  79.6052
 59.1676  6152.33  79.802
 59.2096  6231.47  79.6226
 59.2516  6233.05  79.2071
 59.2936  6239.05  79.5786
 59.3356  6245.73  79.4969
 59.3776  6184.38  79.2765
 59.4196  6118.07  78.7862
 59.4616  6394.76  80.4037
 59.5036  6167.53  78.9979
 59.5456  6391.59  80.1047
 59.5876  6217.6  79.2008
 59.6296  6087.86  78.4396
 59.6716  6227.03  79.3899
 59.7136  6120.19  78.6941
 59.7556  6203.27  79.3647
 59.7976  6290.92  79.6603
 59.8396  6226.49  79.1439
 59.8816  6260.08  79.9103
 59.9236  6112.31  78.6051
 59.9656  6261.31  79.8228
 60.0076  6173.51  78.6115
 60.0496  6228.37  79.4715
 60.0916  6212.94  78.783
 60.1336  6155.31  79.5347
 60.1756  6047.06  80.0172
 60.1996  0.0000000E+00  0.0000000E+00