File: docs/examples/opeando_xrd/IS17_D/Data/IS17_D/17_Db_f00087.xye
# /beamlines/bl04/projects/cycle2025-II/20250340211-lsimonelli/DATA/IS17_D/17_Db_f00087.xye : mythproc.py merge -s 0.006 -l 0.5 -f /beamlines/bl04/inhouse/ff/FlatField/ff_20Nov2024rod8mm60s_17keV.raw -b True -c true -o xye /beamlines/bl04/projects/cycle2025-II/20250340211-lsimonelli/DATA/IS17_D/17_Db_00087.dat
# IsMon = [6743782, 6742588, 6744669]  IsPos = [-1.4999, -2.4884, -3.4988]
# Wave = 0.4962  CalPath /beamlines/bl04/projects/cycle2025-II/20250340211-lsimonelli/DATA/Align/Si_Pos1_25keV_f00001.cal
# Date = 2025-09-24_17:55:30 Dt = 4.8000  Bin = 0.0060  <imon> = 6743680 +/- 853 (Min/Max) 6742588 / 6744669
# icurr 249.0098  mocoIn 1.6998E-05  mocoOut 0.7968  i15 7.06606e+06  imon 6.74368e+06  i7 5.3333  iEMpd_timer 4.8000  iEMpd_1 3.2807E-08  iEMpd_2 7.7536E-08  iEMpd_3 1.6377E-08  iEMpd_4 4.5851E-08  iEMhp_timer 4.8000  iEMhp_1 4.8661E-06  iEMhp_2 -2.3890E-08  iEMhp_3 -2.3700E-08  iEMhp_4 -2.0779E-08
#      9776
 1.5856  43694.2  214.641
 1.6276  50346.5  226.447
 1.6696  55939.9  237.853
 1.7116  63943.7  254.798
 1.7536  71674.9  268.613
 1.7956  75330.7  276.064
 1.8376  72074.8  270.462
 1.8796  61977.1  248.956
 1.9216  51180.7  227.137
 1.9636  43873.7  209.437
 2.0056  40193.6  199.684
 2.0476  37548.4  195.118
 2.0896  35497.9  188.603
 2.1316  35020.5  186.429
 2.1736  33775.2  184.537
 2.2156  34144.5  184.054
 2.2576  32461.6  180.105
 2.2996  31293.2  177.483
 2.3416  31657.1  177.088
 2.3836  31147.6  175.764
 2.4256  30001.1  173.061
 2.4676  29410.3  171.106
 2.5096  29172.2  170.467
 2.5516  29021.4  173.84
 2.5936  28504.1  168.918
 2.6356  27662.6  167.107
 2.6776  27381.4  165.166
 2.7196  27039.6  164.617
 2.7616  27039  164.405
 2.8036  26570.2  163.129
 2.8456  26886.4  164.749
 2.8876  25755.9  161.115
 2.9296  25746.7  161.206
 2.9716  25426.8  159.694
 3.0136  25092.1  158.705
 3.0556  25435.7  160.176
 3.0976  25268.5  158.544
 3.1396  24821.3  157.883
 3.1816  24603.7  157.125
 3.2236  24410.9  156.509
 3.2656  24187.4  154.837
 3.3076  23997.9  155.689
 3.3496  24194.8  155.251
 3.3916  24835.8  157.119
 3.4336  25024.2  158.291
 3.4756  25693.8  160.338
 3.5176  25962.8  160.933
 3.5596  26038.6  163.621
 3.6016  25770.8  160.421
 3.6436  25114.1  159.469
 3.6856  24787  156.727
 3.7276  23791.5  154.627
 3.7696  23574.1  154.108
 3.8116  23409.3  153.452
 3.8536  23415.9  153.407
 3.8956  23237.9  152.641
 3.9376  23238.2  152.917
 3.9796  23218.4  152.342
 4.0216  23084.1  150.943
 4.0636  23105.9  152.479
 4.1056  23268.1  152.657
 4.1476  23525.2  153.801
 4.1896  23654.1  154.086
 4.2316  23786  154.344
 4.2736  24074.5  155.082
 4.3156  24223.2  155.785
 4.3576  25284.5  159.074
 4.3996  25172.4  158.988
 4.4416  25785.6  160.505
 4.4836  26102.5  161.649
 4.5256  26789.1  164.365
 4.5676  26605.8  164.062
 4.6096  27170.8  164.442
 4.6516  27500.2  165.13
 4.6936  27668.9  166.471
 4.7356  27855.9  166.852
 4.7776  27744.8  166.354
 4.8196  27586.4  166.522
 4.8616  27046.7  164.385
 4.9036  26944.2  163.795
 4.9456  26714.3  163.755
 4.9876  26091.1  161.731
 5.0296  26334  162.318
 5.0716  26179.5  162.596
 5.1136  26484.1  163.262
 5.1556  26466.7  162.667
 5.1976  27123.1  164.664
 5.2396  27257.4  164.765
 5.2816  27362  165.552
 5.3236  27213.4  164.799
 5.3656  26721.7  164.235
 5.4076  26480.4  163.629
 5.4496  26514.9  163.234
 5.4916  26778.3  163.79
 5.5336  26766.8  163.77
 5.5756  26761.4  163.764
 5.6176  26864.6  163.523
 5.6596  27206  165.548
 5.7016  27065.4  164.379
 5.7436  27341.3  165.498
 5.7856  27202  165.142
 5.8276  27455.5  165.619
 5.8696  27694.2  166.514
 5.9116  27516.3  166.579
 5.9536  27924.1  167.549
 5.9956  28132.5  167.565
 6.0376  28117.9  168.143
 6.0796  28432.4  168.906
 6.1216  28184.8  168.372
 6.1636  28562.7  168.536
 6.2056  28341  168.574
 6.2476  28591.2  169.18
 6.2896  28935.6  169.874
 6.3316  29084.5  170.483
 6.3736  28825.7  169.617
 6.4156  29068.9  170.219
 6.4576  29072.5  169.849
 6.4996  28944.8  169.959
 6.5416  29082.3  170.477
 6.5836  28903.2  170.197
 6.6256  29307.6  170.941
 6.6676  29679.7  171.595
 6.7096  29809.9  172.827
 6.7516  29909.9  172.774
 6.7936  30163.4  172.903
 6.8356  30212.8  173.143
 6.8776  30246.3  174.041
 6.9196  30488.3  175.134
 6.9616  30763.8  175.376
 7.0036  31262.8  176.445
 7.0456  31290  175.823
 7.0876  31200.4  177.25
 7.1296  31211.9  176.416
 7.1716  31207.3  175.946
 7.2136  30794.3  174.553
 7.2556  31157.2  175.744
 7.2976  31198  176.35
 7.3396  31122.5  176.365
 7.3816  31205.1  176.804
 7.4236  31463.4  176.834
 7.4656  31508.9  176.414
 7.5076  31749.6  177.242
 7.5496  31453.2  176.951
 7.5916  31673  177.614
 7.6336  32082.8  178.645
 7.6756  32335.8  179.191
 7.7176  32524.8  180.047
 7.7596  32503  181.203
 7.8016  33136.6  185.18
 7.8436  32737.7  180.754
 7.8856  32891.5  180.799
 7.9276  33365.4  182.483
 7.9696  33497.4  183.149
 8.0116  34619.5  184.754
 8.0536  34728.6  185.291
 8.0956  34681.3  186.334
 8.1376  35070.9  186.853
 8.1796  35207.9  187.749
 8.2216  36092.7  188.83
 8.2636  36225.7  189.442
 8.3056  36008.5  189.626
 8.3476  36427  190.06
 8.3896  36331.8  189.892
 8.4316  36416.1  190.282
 8.4736  36755.9  190.644
 8.5156  36305.6  189.739
 8.5576  36087.9  190.129
 8.5996  36056  188.939
 8.6416  35967.9  189.954
 8.6836  35586.9  188.772
 8.7256  36187.9  189.824
 8.7676  35987.6  192.167
 8.8096  36519.9  190.894
 8.8516  36013.6  189.13
 8.8936  35811.7  188.566
 8.9356  36106.4  189.671
 8.9776  35811  188.966
 9.0196  36312.6  189.961
 9.0616  35737.2  187.957
 9.1036  35438.3  188.322
 9.1456  35144.6  186.869
 9.1876  35617.3  188.064
 9.2296  35185.6  186.379
 9.2716  34982.3  185.882
 9.3136  34791.3  185.362
 9.3556  35217.5  186.471
 9.3976  34344.9  184.666
 9.4396  34508.7  185.006
 9.4816  34258  184.199
 9.5236  34240  184.035
 9.5656  33882.1  183.429
 9.6076  32725.7  180.789
 9.6496  33278.6  182.2
 9.6916  32857.3  181.003
 9.7336  33323.1  182.063
 9.7756  32814.8  181.927
 9.8176  32929.3  181.748
 9.8596  32684.2  179.529
 9.9016  32167.5  178.104
 9.9436  31900.2  177.276
 9.9856  31661  176.881
 10.0276  31251.7  176.803
 10.0696  31641.5  176.917
 10.1116  30514.9  174.019
 10.1536  30694.9  174.686
 10.1956  30267.3  173.084
 10.2376  30156.7  172.271
 10.2796  29952.9  171.807
 10.3216  29927.8  172.019
 10.3636  29529.8  170.892
 10.4056  29062.5  169.931
 10.4476  29620.1  171.169
 10.4896  29752.4  171.009
 10.5316  28891.6  169.226
 10.5736  29041.7  170.085
 10.6156  28996.6  169.696
 10.6576  29057  168.438
 10.6996  28541.5  167.643
 10.7416  28085.8  166.514
 10.7836  27798.4  166.32
 10.8256  27208.5  164.968
 10.8676  27414.6  165.147
 10.9096  27218.6  164.576
 10.9516  26849.7  162.411
 10.9936  26863.4  162.653
 11.0356  26780.8  163.009
 11.0776  26444.6  161.33
 11.1196  26126.6  161.115
 11.1616  25851.3  159.941
 11.2036  25901.2  159.94
 11.2456  25871.2  160.556
 11.2876  26213.4  161.324
 11.3296  25546.9  159.186
 11.3716  26085.6  160.537
 11.4136  25983.7  161.109
 11.4556  26139.3  161.255
 11.4976  26528.8  161.44
 11.5396  26704.2  162.149
 11.5816  26223.1  161.115
 11.6236  25670.1  159.641
 11.6656  25774.7  159.105
 11.7076  24966.9  157.425
 11.7496  24829.7  160.973
 11.7916  24757.4  156.025
 11.8336  24283.4  155.404
 11.8756  24334.7  155.128
 11.9176  24215  154.419
 11.9596  24397.9  155.171
 12.0016  24220  155.373
 12.0436  24376.6  155.318
 12.0856  23915  154.343
 12.1276  23842.4  154.06
 12.1696  23904.5  153.382
 12.2116  23814.5  153.092
 12.2536  23680  153.471
 12.2956  23499.8  152.228
 12.3376  23799  153.403
 12.3796  23585  153.196
 12.4216  23487.1  152.076
 12.4636  23308.3  152.428
 12.5056  23483.1  152.266
 12.5476  23644.3  152.303
 12.5896  23380.6  152.096
 12.6316  23537.4  152.743
 12.6736  23197  152.127
 12.7156  23471  152.853
 12.7576  23534  153.309
 12.7996  23498  151.853
 12.8416  23322.8  152.319
 12.8836  23501.5  152.745
 12.9256  23990.1  153.36
 12.9676  23780.9  153.087
 13.0096  24060.9  155.095
 13.0516  23956.7  153.794
 13.0936  24289.2  155.268
 13.1356  24339.9  154.402
 13.1776  23963.6  154.211
 13.2196  23801.3  153.334
 13.2616  23741.9  153.458
 13.3036  23987.6  154.21
 13.3456  23800  153.95
 13.3876  24332.6  154.936
 13.4296  23951  153.886
 13.4716  24101.8  153.995
 13.5136  24057.5  153.978
 13.5556  23907.8  154.134
 13.5976  24072.7  154.832
 13.6396  24082.8  154.224
 13.6816  23988.9  154.396
 13.7236  24511.8  155.638
 13.7656  25934.5  160.545
 13.8076  26603.1  161.219
 13.8496  26206.6  160.702
 13.8916  24300.7  155.902
 13.9336  23676.1  153.163
 13.9756  23636.6  152.421
 14.0176  23320.9  152.078
 14.0596  23442.5  152.398
 14.1016  23305.3  152.365
 14.1436  23315  151.538
 14.1856  22702.8  149.818
 14.2276  22837.7  150.754
 14.2696  22776.8  150.409
 14.3116  22269.7  148.632
 14.3536  22023.8  147.971
 14.3956  21970.3  147.519
 14.4376  22226.9  148.167
 14.4796  22074.9  147.658
 14.5216  21784.4  147.456
 14.5636  21534.6  146.187
 14.6056  21876.6  146.906
 14.6476  21553.1  145.072
 14.6896  21312.4  144.796
 14.7316  21167.4  145.338
 14.7736  20776.9  143.145
 14.8156  20720.9  142.966
 14.8576  20840.9  143.242
 14.8996  20108.9  141.876
 14.9416  19858.6  141.006
 14.9836  20052.4  141.677
 15.0256  19388.5  138.245
 15.0676  19326.3  138.33
 15.1096  19428.6  138.438
 15.1516  19036.7  137.585
 15.1936  18866.1  136.404
 15.2356  18622  135.789
 15.2776  18536.8  135.075
 15.3196  18327.4  135.289
 15.3616  18123  134.292
 15.4036  18240.5  134.585
 15.4456  18297.7  134.459
 15.4876  18165.9  133.661
 15.5296  17970.7  133.227
 15.5716  17586.6  131.402
 15.6136  17796.3  132.508
 15.6556  17766.3  131.645
 15.6976  17433.1  130.698
 15.7396  17275.5  130.475
 15.7816  17361.3  130.323
 15.8236  17175.6  130.301
 15.8656  17115.5  129.874
 15.9076  16891.8  128.853
 15.9496  17597.4  134.296
 15.9916  17481.9  134.259
 16.0336  17484.3  131.14
 16.0756  17306.2  130.807
 16.1176  17104.5  130.113
 16.1596  16792.3  130.097
 16.2016  16632.4  128.249
 16.2436  16737  129.022
 16.2856  16747.1  128.556
 16.3276  16355  127.506
 16.3696  16622.7  128.372
 16.4116  16433.5  128.069
 16.4536  16482.2  128.07
 16.4956  16561.6  128.12
 16.5376  16340.9  127.455
 16.5796  16321.9  126.75
 16.6216  16385.7  127.263
 16.6636  15918.3  125.621
 16.7056  16392.1  127.337
 16.7476  16400.9  126.901
 16.7896  16337  127.397
 16.8316  16131.1  126.569
 16.8736  16313.9  127.531
 16.9156  16142  127.192
 16.9576  16061.6  127.666
 16.9996  16024.5  127.971
 17.0416  16180  127.002
 17.0836  16170.1  126.723
 17.1256  15882.1  125.594
 17.1676  15920  125.701
 17.2096  15523.1  124.03
 17.2516  15621.5  124.206
 17.2936  15655.7  124.695
 17.3356  15624.1  124.55
 17.3776  15255.8  123.265
 17.4196  15258.1  122.975
 17.4616  15203.9  122.669
 17.5036  15000.5  122.21
 17.5456  15083.2  123.157
 17.5876  14860.9  121.315
 17.6296  15320.6  123.01
 17.6716  14984.1  122.228
 17.7136  14956.9  122.243
 17.7556  15011.8  122.759
 17.7976  14765  121.484
 17.8396  14822.3  121.225
 17.8816  14690.3  121.249
 17.9236  14717.1  121.14
 17.9656  14700.7  121.598
 18.0076  14584  120.709
 18.0496  14586.9  119.863
 18.0916  14647.9  120.653
 18.1336  14682  120.893
 18.1756  14908.5  121.372
 18.2176  14450.1  119.701
 18.2596  14606.2  120.078
 18.3016  14847.4  121.327
 18.3436  14731.3  120.856
 18.3856  14696.9  120.843
 18.4276  14480.3  119.639
 18.4696  14577.2  120.121
 18.5116  14627  120.606
 18.5536  14468.3  120.315
 18.5956  14172.8  118.64
 18.6376  14132.3  118.863
 18.6796  14263.9  118.74
 18.7216  14201.4  118.972
 18.7636  14127.5  118.662
 18.8056  14073  118.355
 18.8476  13849.1  118.033
 18.8896  14026.2  118.129
 18.9316  14064.9  118.273
 18.9736  14020.3  117.771
 19.0156  13837.7  117.428
 19.0576  14097.3  117.37
 19.0996  14030.1  117.806
 19.1416  13878.7  117.559
 19.1836  13825.3  116.938
 19.2256  13814.8  117.112
 19.2676  13766.8  117
 19.3096  13695.9  116.942
 19.3516  13777.4  117.241
 19.3936  13685  116.742
 19.4356  13827.8  117.233
 19.4776  13690.5  116.743
 19.5196  13810.1  117.109
 19.5616  13675.2  116.789
 19.6036  13681.7  116.316
 19.6456  13763  116.776
 19.6876  13767.3  116.438
 19.7296  13896.6  117.445
 19.7716  13731.5  116.917
 19.8136  14013.2  118.305
 19.8556  13990.7  117.695
 19.8976  14063.2  118.056
 19.9396  14163.8  118.064
 19.9816  14110.2  118.093
 20.0236  14568.1  120.188
 20.0656  14308  119.105
 20.1076  14224.1  119.236
 20.1496  13811  117.486
 20.1916  13839.6  117.131
 20.2336  13503.7  115.632
 20.2756  13505.5  116.057
 20.3176  13214.8  114.556
 20.3596  13243.5  114.673
 20.4016  13254.5  114.517
 20.4436  13115.6  114.468
 20.4856  13208.4  114.67
 20.5276  13035.7  114.371
 20.5696  13214.6  114.6
 20.6116  12976.9  113.85
 20.6536  13005.2  113.484
 20.6956  13042.8  113.783
 20.7376  12941.8  113.544
 20.7796  12945.1  113.257
 20.8216  13105.4  113.671
 20.8636  13043.8  113.777
 20.9056  12865.4  112.936
 20.9476  12977.9  113.275
 20.9896  13000.1  113.238
 21.0316  12907.9  112.733
 21.0736  12879.6  113.131
 21.1156  12790.2  112.893
 21.1576  12843  113.163
 21.1996  12867.1  113.256
 21.2416  12867.1  113.083
 21.2836  12875.1  113.091
 21.3256  12778.9  112.744
 21.3676  12849.5  112.594
 21.4096  12769.7  112.562
 21.4516  12595  111.663
 21.4936  12550.5  111.733
 21.5356  12695.2  112.32
 21.5776  12771.3  112.493
 21.6196  12539.5  111.503
 21.6616  12619  111.94
 21.7036  12668.2  111.919
 21.7456  12799.1  112.583
 21.7876  12493.9  110.994
 21.8296  12359.7  110.245
 21.8716  12531.7  111.242
 21.9136  12626.8  111.863
 21.9556  12520.1  111.065
 21.9976  12399.7  110.558
 22.0396  12387.4  110.754
 22.0816  12390.7  111.289
 22.1236  12473.4  111.129
 22.1656  12407.8  110.975
 22.2076  12313.8  110.019
 22.2496  12122  109.19
 22.2916  12032.2  108.668
 22.3336  12172.5  110.014
 22.3756  12234.9  110.018
 22.4176  11995.8  108.796
 22.4596  11797.7  108.46
 22.5016  12116.8  109.431
 22.5436  12169.7  109.546
 22.5856  12326.7  110.494
 22.6276  12420.5  111.051
 22.6696  12353.4  111.104
 22.7116  12124  109.586
 22.7536  12334.7  110.509
 22.7956  12188  109.193
 22.8376  11979.8  108.762
 22.8796  12116.8  109.19
 22.9216  12174.9  109.984
 22.9636  12115.5  108.888
 23.0056  12218.6  109.484
 23.0476  12157.1  109.762
 23.0896  12298.4  109.788
 23.1316  12280.5  110.137
 23.1736  12292.8  113.108
 23.2156  12527.8  111.559
 23.2576  12623  112.121
 23.2996  12300.6  110.457
 23.3416  12743.3  112.961
 23.3836  12355.1  110.458
 23.4256  12624.2  111.777
 23.4676  12322.9  110.132
 23.5096  12420.7  111.219
 23.5516  12327.3  110.109
 23.5936  12429.9  111.473
 23.6356  12547.5  111.663
 23.6776  12231.4  110.461
 23.7196  12197.4  109.886
 23.7616  12344.2  110.465
 23.8036  12615.9  111.726
 23.8456  12189.5  109.383
 23.8876  12311.9  110.287
 23.9296  12059.2  109.632
 23.9716  12213.9  109.539
 24.0136  12192.9  110.341
 24.0556  12192.5  110.055
 24.0976  11922.9  108.652
 24.1396  11932.2  111.283
 24.1816  12090.8  110.45
 24.2236  12069  109.988
 24.2656  11908.4  108.724
 24.3076  12032.8  109.562
 24.3496  11723.5  108.027
 24.3916  11913.7  108.951
 24.4336  11766.7  108.475
 24.4756  11900  108.972
 24.5176  11805.9  108.166
 24.5596  11609.9  107.368
 24.6016  11567.6  107.491
 24.6436  11780.2  107.977
 24.6856  11531.6  106.583
 24.7276  11565.5  107.062
 24.7696  11594.4  107.304
 24.8116  11389.5  106.531
 24.8536  11535.2  107.21
 24.8956  11389.2  106.261
 24.9376  11373.4  106.118
 24.9796  11233.5  105.822
 25.0216  11176.8  105.662
 25.0636  11155.7  105.227
 25.1056  11034.7  105.329
 25.1476  11133.8  107.446
 25.1896  11043.3  105.525
 25.2316  10889.6  104.072
 25.2736  10967.1  104.101
 25.3156  10959.4  104.132
 25.3576  10927.1  104.409
 25.3996  10925.8  104.39
 25.4416  11008.5  104.76
 25.4836  10789.1  104.216
 25.5256  10912.5  104.182
 25.5676  10845  103.599
 25.6096  10808.7  103.987
 25.6516  10751.2  103.224
 25.6936  10890.5  104.206
 25.7356  10657.4  103.212
 25.7776  10826.1  103.627
 25.8196  10725.2  103.382
 25.8616  10737.8  103.377
 25.9036  10874.6  103.492
 25.9456  10788.7  103.683
 25.9876  10511.8  102.398
 26.0296  10841.8  103.518
 26.0716  10813.7  103.798
 26.1136  10780.9  103.579
 26.1556  10778  102.952
 26.1976  10689.7  103.452
 26.2396  10716.8  102.74
 26.2816  10733.5  103.422
 26.3236  10633.5  103.095
 26.3656  10817.6  103.71
 26.4076  10566.1  102.69
 26.4496  10922.2  104.014
 26.4916  10898.1  103.785
 26.5336  11187.9  105.501
 26.5756  11471.3  106.712
 26.6176  10793.8  103.544
 26.6596  10639.6  103.097
 26.7016  10601.9  102.665
 26.7436  10731.5  103.433
 26.7856  10460  102.108
 26.8276  10514.4  102.326
 26.8696  10531.8  102.287
 26.9116  10499.8  102.069
 26.9536  10412.5  101.694
 26.9956  10199.8  100.685
 27.0376  10458.1  102.172
 27.0796  10304  101.149
 27.1216  10426.5  101.813
 27.1636  10246.6  101.094
 27.2056  10318.6  101.33
 27.2476  10222.9  100.854
 27.2896  10171.6  100.709
 27.3316  10194.1  100.545
 27.3736  10016.7  99.9283
 27.4156  10221.8  100.79
 27.4576  10190  100.854
 27.4996  10156  100.293
 27.5416  10057.9  100.111
 27.5836  10117.8  100.247
 27.6256  10152.2  100.601
 27.6676  10014.4  99.9043
 27.7096  10168.2  100.549
 27.7516  9959.13  99.6581
 27.7936  10391.6  101.939
 27.8356  10113.6  100.173
 27.8776  10282.7  101.084
 27.9196  10099.8  100.04
 27.9616  10184.1  100.657
 28.0036  9957.49  99.4928
 28.0456  9945.4  99.569
 28.0876  9869.81  99.2637
 28.1296  9952.55  99.5236
 28.1716  10017.1  99.8648
 28.2136  10050  99.9915
 28.2556  9968.08  99.6921
 28.2976  9801.02  98.8564
 28.3396  9781.58  98.5177
 28.3816  9818.01  98.6992
 28.4236  9782.06  98.6829
 28.4656  9738.19  98.5038
 28.5076  9756.1  98.2358
 28.5496  9838.14  98.8964
 28.5916  9773.69  98.3873
 28.6336  9663.12  98.1638
 28.6756  9784.85  97.995
 28.7176  9711.74  98.1754
 28.7596  9603.05  97.5148
 28.8016  9637.43  97.73
 28.8436  9573.57  97.6428
 28.8856  9657.12  97.9209
 28.9276  9624.18  97.9987
 28.9696  9556.32  97.3151
 29.0116  9625.72  97.8475
 29.0536  9515.37  97.4899
 29.0956  9576.78  97.495
 29.1376  9586.1  97.5296
 29.1796  9597.1  97.6262
 29.2216  9565.12  97.3086
 29.2636  9515.9  97.1351
 29.3056  9485.84  96.7571
 29.3476  9478.87  97.2508
 29.3896  9521.12  97.5798
 29.4316  9500.18  96.8111
 29.4736  9184.11  95.2482
 29.5156  9361.8  96.0918
 29.5576  9244.04  96.208
 29.5996  9224.5  95.3815
 29.6416  9342.44  96.1096
 29.6836  9403.81  96.3488
 29.7256  9281.08  96.2747
 29.7676  9232.55  95.6862
 29.8096  9245.55  95.7004
 29.8516  9079.57  95.1582
 29.8936  9173.64  95.7453
 29.9356  9164.37  95.4576
 29.9776  9056.34  95.0387
 30.0196  9139.65  94.8813
 30.0616  9102.57  95.0533
 30.1036  9199.89  95.3891
 30.1456  9099.15  95.0874
 30.1876  9098.05  95.0677
 30.2296  8967.84  94.3291
 30.2716  9213.52  95.2569
 30.3136  9235.07  96.2132
 30.3556  9390.36  97.0144
 30.3976  9247.64  97.7408
 30.4396  9501.62  96.4488
 30.4816  9457.37  95.8297
 30.5236  9507.25  96.0791
 30.5656  9333.26  95.8658
 30.6076  9338.59  95.3028
 30.6496  9438.36  96.2126
 30.6916  9280.45  95.4996
 30.7336  9301.93  95.7533
 30.7756  9313.18  95.8961
 30.8176  9297.16  95.741
 30.8596  9266.87  95.3415
 30.9016  9297.91  95.8393
 30.9436  9365.29  95.9417
 30.9856  9429.6  96.377
 31.0276  9281.36  95.261
 31.0696  9139.15  95.0718
 31.1116  9281.77  95.7987
 31.1536  9122.89  94.8512
 31.1956  9078.86  94.6851
 31.2376  9048.75  94.5737
 31.2796  9137.13  94.5803
 31.3216  9105.13  94.3252
 31.3636  9092.99  94.96
 31.4056  9093.54  96.2679
 31.4476  9259.15  95.0544
 31.4896  9227.82  95.3928
 31.5316  9118.31  94.2364
 31.5736  9336.73  95.1884
 31.6156  9205.86  94.5235
 31.6576  9321.69  95.1998
 31.6996  9286.24  94.6775
 31.7416  9073.03  94.6691
 31.7836  9218.42  94.4316
 31.8256  9258.73  94.8925
 31.8676  9268.56  94.9331
 31.9096  9080.82  94.3404
 31.9516  9062.39  94.4087
 31.9936  8993.21  93.8705
 32.0356  9088.88  94.4123
 32.0776  9005.35  93.8864
 32.1196  9228.47  95.1484
 32.1616  9083.78  93.8471
 32.2036  9075.48  94.3144
 32.2456  9076.21  94.6965
 32.2876  9078.45  94.2094
 32.3296  8993.88  93.7366
 32.3716  8844.49  93.0664
 32.4136  8814.27  93.1019
 32.4556  8938.01  93.1402
 32.4976  8893.68  92.8188
 32.5396  8854.47  92.6688
 32.5816  8851.44  92.7916
 32.6236  8816.82  92.6758
 32.6656  8838.35  93.3231
 32.7076  8872.42  93.1565
 32.7496  8782.84  92.3688
 32.7916  8828.4  92.5657
 32.8336  8766.89  92.3365
 32.8756  8865.77  92.5774
 32.9176  8759.99  92.5015
 32.9596  8785.31  92.7027
 33.0016  8743.14  92.2706
 33.0436  8707  92.229
 33.0856  8765.99  92.6444
 33.1276  8565.29  91.3209
 33.1696  8815.85  92.4541
 33.2116  8736.3  92.2835
 33.2536  8863.4  92.9286
 33.2956  8812.12  92.7706
 33.3376  8739.33  92.1212
 33.3796  8811.87  92.7212
 33.4216  8668.79  91.5524
 33.4636  8822.85  92.5247
 33.5056  8591.53  91.5468
 33.5476  8665.02  91.908
 33.5896  8691.26  91.8498
 33.6316  8642.24  91.8882
 33.6736  8460.28  91.1663
 33.7156  8581.29  91.8463
 33.7576  8636.2  91.7799
 33.7996  8703.28  91.8987
 33.8416  8550.94  91.278
 33.8836  8520.35  90.8955
 33.9256  8569.77  91.2137
 33.9676  8738.36  92.0041
 34.0096  8546.52  91.2928
 34.0516  8559.44  91.0002
 34.0936  8535.08  91.1481
 34.1356  8680.74  91.6594
 34.1776  8508.06  90.7386
 34.2196  8514.45  90.9582
 34.2616  8346.16  90.1937
 34.3036  8528.38  91.4115
 34.3456  8402.37  90.4932
 34.3876  8520.13  91.0966
 34.4296  8553.91  90.9716
 34.4716  8515.62  90.9145
 34.5136  8428.84  90.639
 34.5556  8346.65  90.4575
 34.5976  8549.72  91.355
 34.6396  8440.62  90.4837
 34.6816  8557.87  91.2253
 34.7236  8350.24  89.8787
 34.7656  8386.37  90.2881
 34.8076  8436.5  90.8861
 34.8496  8395.21  90.5101
 34.8916  8472.99  90.7995
 34.9336  8491.32  90.8736
 34.9756  8433.82  90.4851
 35.0176  8410.7  90.8883
 35.0596  8494.07  91.1543
 35.1016  8381.54  90.3117
 35.1436  8682.18  91.5998
 35.1856  8428.6  90.3762
 35.2276  8282.41  89.7638
 35.2696  8397.98  90.5792
 35.3116  8244.19  89.8431
 35.3536  8290.91  89.811
 35.3956  8300.24  89.5492
 35.4376  8341.38  90.3553
 35.4796  8437.78  90.9119
 35.5216  8276.26  90.0069
 35.5636  8129.84  89.9268
 35.6056  8235.64  89.5498
 35.6476  8278.43  89.6817
 35.6896  8383.47  90.3505
 35.7316  8185.99  89.2481
 35.7736  8232.94  89.6896
 35.8156  8380.59  90.4796
 35.8576  8277.63  90.1758
 35.8996  8380.14  90.7015
 35.9416  8317.25  89.8717
 35.9836  8294.61  90.0824
 36.0256  8454.98  90.9728
 36.0676  8458.4  90.7363
 36.1096  8257.4  89.8074
 36.1516  8420.55  90.5764
 36.1936  8354.81  90.0588
 36.2356  8265.8  90.235
 36.2776  8204.61  89.3803
 36.3196  8213.17  89.0971
 36.3616  8226.64  89.3028
 36.4036  8214.91  89.3091
 36.4456  8270.21  89.8117
 36.4876  8127.82  88.969
 36.5296  8141.28  89.0845
 36.5716  8016.54  89.1605
 36.6136  8175.51  88.8459
 36.6556  8090.82  88.5758
 36.6976  7953.34  88.3056
 36.7396  7923.96  87.8862
 36.7816  7978.8  88.5555
 36.8236  8005.66  88.625
 36.8656  7974.72  88.5241
 36.9076  7860.13  87.7733
 36.9496  7788.35  87.3552
 36.9916  7991.04  88.119
 37.0336  7893.61  87.887
 37.0756  7907.09  87.7626
 37.1176  7772.12  87.2706
 37.1596  7800.18  87.437
 37.2016  7835.46  87.8525
 37.2436  7949.35  87.8187
 37.2856  7831.17  87.4135
 37.3276  7969.19  87.5412
 37.3696  7883.08  87.9364
 37.4116  7906.03  87.9691
 37.4536  7887.43  87.7359
 37.4956  7714.17  86.8102
 37.5376  7926.96  89.5723
 37.5796  7930.76  89.5177
 37.6216  7909.19  87.6794
 37.6636  7994.15  88.02
 37.7056  7988.84  88.1959
 37.7476  8178.68  88.7778
 37.7896  7795.9  87.1769
 37.8316  7891.05  87.8594
 37.8736  7860.29  87.2213
 37.9156  7955.17  87.7434
 37.9576  7936.15  87.5508
 37.9996  7827.07  86.6607
 38.0416  7938.23  88.0751
 38.0836  7985.67  88.2375
 38.1256  7900.1  87.7438
 38.1676  7779.32  87.1839
 38.2096  7992.17  87.9907
 38.2516  7932.86  87.8708
 38.2936  7904.3  87.5139
 38.3356  7912.02  87.4928
 38.3776  7818.34  87.2272
 38.4196  7898.66  87.5217
 38.4616  7869.09  87.6031
 38.5036  7977.7  88.0524
 38.5456  7746.74  87.5851
 38.5876  7897.98  88.4451
 38.6296  7754.21  86.6268
 38.6716  7940.03  87.4774
 38.7136  7907.94  87.2439
 38.7556  7788.64  87.083
 38.7976  7894.93  87.6037
 38.8396  7739.76  87.1939
 38.8816  7848.9  87.6011
 38.9236  7812.51  87.1938
 38.9656  7803.83  87.0583
 39.0076  7771.94  86.2825
 39.0496  7981.38  88.0002
 39.0916  7756.18  86.4019
 39.1336  7880.05  87.4878
 39.1756  7806.97  87.1474
 39.2176  7660.57  86.8587
 39.2596  7876.45  87.9979
 39.3016  7740.25  86.8222
 39.3436  7741.12  87.2219
 39.3856  7848.16  87.2774
 39.4276  7911.51  88.1365
 39.4696  7935.97  87.8896
 39.5116  7778.97  87.5228
 39.5536  7905.06  88.6562
 39.5956  7863.67  87.5311
 39.6376  7772.69  87.0267
 39.6796  7780.4  86.8207
 39.7216  7735.73  86.6626
 39.7636  7804.79  87.6011
 39.8056  7866.14  87.7413
 39.8476  7788.84  87.5591
 39.8896  7834.93  87.4471
 39.9316  7679  86.8221
 39.9736  7790.54  87.0301
 40.0156  7693.28  86.315
 40.0576  7692.76  86.656
 40.0996  7846.88  86.7117
 40.1416  7832.36  87.419
 40.1836  7835.34  87.3285
 40.2256  7818.07  87.2692
 40.2676  7787.57  87.2012
 40.3096  7842.83  87.4405
 40.3516  7759.22  87.0809
 40.3936  7948.88  87.6936
 40.4356  7685.61  86.434
 40.4776  7891.08  87.9824
 40.5196  7852.09  87.8885
 40.5616  7919.51  87.91
 40.6036  7771.71  87.3427
 40.6456  7768.29  86.9327
 40.6876  7826.01  87.251
 40.7296  7827.04  87.3859
 40.7716  7752.62  87.0829
 40.8136  7735.54  86.9322
 40.8556  7898.9  87.9902
 40.8976  7823.84  87.4873
 40.9396  7734.69  87.3223
 40.9816  7868.07  87.38
 41.0236  7741.1  86.458
 41.0656  7876.25  87.7355
 41.1076  7790.56  87.0384
 41.1496  7879.68  87.4378
 41.1916  7764.91  87.1122
 41.2336  7752.56  87.0438
 41.2756  7746.69  86.6233
 41.3176  7884.03  87.9837
 41.3596  7786.86  87.1873
 41.4016  7793.39  87.4808
 41.4436  7926.11  88.0097
 41.4856  7768.7  87.2994
 41.5276  7728.43  87.084
 41.5696  7751.25  86.85
 41.6116  7868.18  87.8842
 41.6536  7745.6  87.0506
 41.6956  7833.14  87.6132
 41.7376  7661.4  86.6725
 41.7796  7637.7  86.4288
 41.8216  7787.08  87.4872
 41.8636  7766.12  87.317
 41.9056  7760.11  87.0825
 41.9476  7798.8  87.5252
 41.9896  7873.44  87.6146
 42.0316  7822.35  87.4118
 42.0736  7843.45  87.6339
 42.1156  7790.91  87.1669
 42.1576  7770.05  87.1647
 42.1996  7843.39  87.7025
 42.2416  7710.36  86.5553
 42.2836  7815.59  87.2522
 42.3256  7649.39  86.4351
 42.3676  7902.88  87.6472
 42.4096  7810.04  87.1073
 42.4516  7853.21  87.4162
 42.4936  7659.19  86.4038
 42.5356  7614.31  86.2958
 42.5776  7789.04  87.2237
 42.6196  7679.03  86.6544
 42.6616  7615.99  86.4685
 42.7036  7832.98  87.07
 42.7456  7753.03  86.9739
 42.7876  7674.65  86.627
 42.8296  7726.09  86.761
 42.8716  7620.39  86.3316
 42.9136  7657.87  86.3298
 42.9556  7810.41  87.3131
 42.9976  7703.02  86.6847
 43.0396  7693.12  86.3595
 43.0816  7577.68  86.0844
 43.1236  7619.79  86.3773
 43.1656  7631.54  86.2668
 43.2076  7714.98  86.8453
 43.2496  7734.99  86.7815
 43.2916  7553.83  86.1181
 43.3336  7651.75  86.498
 43.3756  7660.43  86.3112
 43.4176  7554.42  85.7971
 43.4596  7600.85  85.9152
 43.5016  7638.16  86.5202
 43.5436  7522.49  85.7747
 43.5856  7527.11  85.8312
 43.6276  7552.13  85.8614
 43.6696  7494.16  85.7856
 43.7116  7699.02  86.4517
 43.7536  7629.42  86.5538
 43.7956  7502.85  87.0345
 43.8376  7481.32  85.4498
 43.8796  7416.95  85.1566
 43.9216  7424.95  85.1239
 43.9636  7446.52  85.3538
 44.0056  7462.58  85.672
 44.0476  7401.86  84.9583
 44.0896  7291.27  84.657
 44.1316  7475.51  85.2496
 44.1736  7436.76  85.1462
 44.2156  7430.51  84.9791
 44.2576  7362.81  84.9028
 44.2996  7463.39  85.4584
 44.3416  7360.42  84.626
 44.3836  7275.1  84.4526
 44.4256  7258.16  84.0073
 44.4676  7177.93  83.6958
 44.5096  7223.18  84.0944
 44.5516  7310.95  84.5686
 44.5936  7164.45  83.6724
 44.6356  7394.61  84.75
 44.6776  7343.37  84.7719
 44.7196  7486.78  85.8934
 44.7616  7359  86.4759
 44.8036  7381.57  85.0418
 44.8456  7404.36  85.378
 44.8876  7574.27  86.1965
 44.9296  7653.16  86.0841
 44.9716  7626.83  86.3779
 45.0136  7605.56  86.1904
 45.0556  7657.77  86.4637
 45.0976  7398.01  85.1257
 45.1396  7382.12  84.7988
 45.1816  7357.35  84.6013
 45.2236  7560.35  85.6689
 45.2656  7344.26  84.9288
 45.3076  7623.1  86.2826
 45.3496  7402.93  85.3517
 45.3916  7370.35  85.4358
 45.4336  7550.96  86.3187
 45.4756  7372.71  85.149
 45.5176  7437.74  85.14
 45.5596  7601.41  86.1916
 45.6016  7438.58  85.6882
 45.6436  7314.49  84.1566
 45.6856  7417.7  85.3951
 45.7276  7253.85  85.7584
 45.7696  7366.51  86.0958
 45.8116  7357.39  85.4877
 45.8536  7369.58  85.4396
 45.8956  7434.59  85.1762
 45.9376  7393.9  84.4034
 45.9796  7435.04  85.3252
 46.0216  7512.97  86.1025
 46.0636  7479.54  85.0485
 46.1056  7438.23  84.8226
 46.1476  7379.33  85.0797
 46.1896  7484.91  85.8315
 46.2316  7380.72  85.0896
 46.2736  7251.87  84.7251
 46.3156  7447.22  85.4323
 46.3576  7392.67  85.3314
 46.3996  7362.02  85.3106
 46.4416  7368.11  84.9132
 46.4836  7261.93  84.665
 46.5256  7393.94  85.3658
 46.5676  7277.01  84.8034
 46.6096  7311.62  84.9277
 46.6516  7427.83  84.6522
 46.6936  7353.49  84.7228
 46.7356  7512.47  85.7301
 46.7776  7322.64  85.4809
 46.8196  7288.13  84.8821
 46.8616  7224.32  84.4516
 46.9036  7235.88  84.1872
 46.9456  7262.11  83.9677
 46.9876  7256.74  84.0169
 47.0296  7281.64  84.8626
 47.0716  7213.4  84.2879
 47.1136  7291.89  84.4185
 47.1556  7269.32  84.1593
 47.1976  7419.38  85.1014
 47.2396  7275.08  84.6747
 47.2816  7229.85  84.1102
 47.3236  7420.55  85.587
 47.3656  7272.81  84.6613
 47.4076  7266.53  84.4193
 47.4496  7274.72  84.572
 47.4916  7207.41  84.3632
 47.5336  7287.03  84.6381
 47.5756  7365.16  85.2163
 47.6176  7191.67  84.1056
 47.6596  7196.77  83.849
 47.7016  7428.35  85.0028
 47.7436  7327.46  84.7619
 47.7856  7358.43  84.9716
 47.8276  7218.27  84.2074
 47.8696  7289.06  84.6907
 47.9116  7346.03  84.7445
 47.9536  7214.41  83.9225
 47.9956  7176.07  84.4077
 48.0376  7191.07  84.2675
 48.0796  7314.62  85.1165
 48.1216  7254.21  84.5868
 48.1636  7420.18  85.113
 48.2056  7294.29  84.6572
 48.2476  7333.39  85.1824
 48.2896  7304.01  84.9331
 48.3316  7310.27  84.9001
 48.3736  7298.84  84.8632
 48.4156  7232.74  84.3345
 48.4576  7326.34  85.1716
 48.4996  7393.68  85.0118
 48.5416  7312.51  84.87
 48.5836  7263.31  84.2573
 48.6256  7337.28  84.8878
 48.6676  7317.69  85.2918
 48.7096  7289.1  84.3909
 48.7516  7265.95  84.409
 48.7936  7165.38  83.894
 48.8356  7219.87  84.2566
 48.8776  7215.29  84.8053
 48.9196  7344.57  84.9221
 48.9616  7269.82  84.8764
 49.0036  7261.55  85.1791
 49.0456  7231.73  84.9806
 49.0876  7251.59  84.6296
 49.1296  7111.61  83.9724
 49.1716  7109.08  83.8306
 49.2136  7339.63  85.0956
 49.2556  7302.45  84.922
 49.2976  7256.07  84.7213
 49.3396  7160.54  84.2151
 49.3816  7375.64  84.8935
 49.4236  7285.08  84.801
 49.4656  7180.2  84.2096
 49.5076  7203.15  84.0853
 49.5496  7199.74  84.1326
 49.5916  7205.67  84.0859
 49.6336  7190.4  84.2054
 49.6756  7285.57  84.9776
 49.7176  7302.39  85.0302
 49.7596  7193.67  84.155
 49.8016  7248.83  84.399
 49.8436  7143.42  84.0824
 49.8856  7232.07  84.6042
 49.9276  7081.53  83.8244
 49.9696  7190.59  84.4475
 50.0116  7196.11  84.6131
 50.0536  7180.88  84.4647
 50.0956  7074.76  83.9117
 50.1376  7165.99  84.1389
 50.1796  7180.21  84.5082
 50.2216  7103.97  84.0467
 50.2636  7132.42  83.8326
 50.3056  7036.16  83.4407
 50.3476  7113.21  83.9129
 50.3896  7159.2  84.1616
 50.4316  7181.33  84.1143
 50.4736  7048.95  83.5592
 50.5156  7111.02  83.9207
 50.5576  7168.17  84.0057
 50.5996  7078.55  83.7723
 50.6416  7087.36  83.7466
 50.6836  7114.03  83.9714
 50.7256  7229.05  84.5575
 50.7676  7191.09  84.671
 50.8096  7033.56  83.2687
 50.8516  7065.3  83.8735
 50.8936  7044.62  83.531
 50.9356  7244.29  84.8161
 50.9776  7090.54  84.0753
 51.0196  6884.85  82.974
 51.0616  7001.9  82.9973
 51.1036  7045.3  83.6144
 51.1456  7017.6  83.3633
 51.1876  6864.69  81.7859
 51.2296  6997.99  83.2211
 51.2716  6927.85  82.5037
 51.3136  6933.63  83.0025
 51.3556  6948.6  82.7079
 51.3976  6945.62  82.8465
 51.4396  6707.3  81.7164
 51.4816  6700.78  81.5293
 51.5236  7057.51  83.7643
 51.5656  6874.37  82.268
 51.6076  6853.7  82.2287
 51.6496  6884.76  82.604
 51.6916  6903.57  83.0825
 51.7336  6723.79  82.0763
 51.7756  6806.62  82.2706
 51.8176  6801.67  82.3617
 51.8596  6819.98  82.4869
 51.9016  6795.16  81.9424
 51.9436  6972.02  84.5051
 51.9856  6916.11  84.5748
 52.0276  7005.39  83.5943
 52.0696  7023.13  83.7658
 52.1116  6912.67  83.2258
 52.1536  7089.54  84.1675
 52.1956  6968.95  82.9091
 52.2376  7033.54  83.4607
 52.2796  6937.46  82.7123
 52.3216  6859.33  82.931
 52.3636  6810.65  82.1923
 52.4056  6918.31  82.717
 52.4476  6844.4  82.6307
 52.4896  6750.97  82.1208
 52.5316  7059.89  84.0334
 52.5736  6759.25  81.935
 52.6156  6959.67  83.549
 52.6576  6879.21  82.5011
 52.6996  6734.79  82.6141
 52.7416  6708.54  82.3074
 52.7836  6973.83  83.8043
 52.8256  6975.95  83.018
 52.8676  6761.91  82.3085
 52.9096  6894.55  83.1898
 52.9516  6927.48  83.7907
 52.9936  6792.54  83.3413
 53.0356  6933.61  83.1793
 53.0776  6882.17  83.154
 53.1196  6847.11  83.062
 53.1616  6910.96  83.5016
 53.2036  6790.01  82.7279
 53.2456  6845.68  83.1752
 53.2876  6792.18  82.5264
 53.3296  6771.75  82.7345
 53.3716  6961.52  83.6341
 53.4136  6919.32  83.5331
 53.4556  6802.1  82.8589
 53.4976  6746.63  82.3602
 53.5396  6715.47  82.5658
 53.5816  6758.91  82.4627
 53.6236  6741.08  82.7082
 53.6656  6800.32  82.6623
 53.7076  6871.97  83.0675
 53.7496  6848.95  83.0501
 53.7916  6828.35  83.0518
 53.8336  6777.5  82.6482
 53.8756  6711.55  82.8029
 53.9176  6707.38  82.114
 53.9596  6525.28  81.7506
 54.0016  6635.14  81.7647
 54.0436  6513.51  81.2316
 54.0856  6638.22  81.4234
 54.1276  6577.79  81.2524
 54.1696  6536.8  81.173
 54.2116  6754.67  82.238
 54.2536  6439.97  80.1073
 54.2956  6599.84  81.1625
 54.3376  6525.87  81.1624
 54.3796  6432.83  80.5019
 54.4216  6538.7  81.228
 54.4636  6588.56  81.499
 54.5056  6603.17  81.382
 54.5476  6504.14  81.1177
 54.5896  6584.77  81.4622
 54.6316  6545.76  81.0644
 54.6736  6582.2  81.3621
 54.7156  6517.61  81.002
 54.7576  6435.9  80.4637
 54.7996  6533.99  81.2266
 54.8416  6425.4  80.6224
 54.8836  6419.29  80.6576
 54.9256  6477.92  80.7914
 54.9676  6313.31  79.6067
 55.0096  6485.14  80.7438
 55.0516  6319.97  79.9322
 55.0936  6378.14  79.9683
 55.1356  6404.34  80.1639
 55.1776  6575.05  81.4668
 55.2196  6477.33  80.6675
 55.2616  6561.69  81.3983
 55.3036  6363.32  80.3242
 55.3456  6303.3  80.0994
 55.3876  6407.39  80.4904
 55.4296  6291.58  79.7411
 55.4716  6309.09  79.8874
 55.5136  6322.05  79.7307
 55.5556  6479.79  80.765
 55.5976  6404.62  80.3886
 55.6396  6386.39  80.2072
 55.6816  6390.75  80.098
 55.7236  6225.44  79.1275
 55.7656  6331.48  79.53
 55.8076  6319.3  79.4576
 55.8496  6223.86  79.158
 55.8916  6333.47  80.0528
 55.9336  6448.52  80.5959
 55.9756  6321.1  79.6843
 56.0176  6258.99  79.4378
 56.0596  6250.26  79.3834
 56.1016  6224.15  79.2388
 56.1436  6291.32  79.8989
 56.1856  6229.93  79.2571
 56.2276  6415.68  80.48
 56.2696  6268.86  79.5443
 56.3116  6309.87  80.1818
 56.3536  6279.99  79.6485
 56.3956  6195.48  79.0993
 56.4376  6248.61  79.4897
 56.4796  6070.65  78.1688
 56.5216  6193.77  79.3084
 56.5636  6122.31  78.4442
 56.6056  6350.99  80.1308
 56.6476  6213.98  78.8868
 56.6896  6428.73  80.6935
 56.7316  6166.04  78.9284
 56.7736  6158.62  78.9005
 56.8156  6236.81  79.4095
 56.8576  6087.09  78.3942
 56.8996  6179.21  78.9027
 56.9416  6204.82  79.3723
 56.9836  6337.42  79.7329
 57.0256  6066.61  78.3279
 57.0676  6236.4  79.526
 57.1096  6149.09  78.7573
 57.1516  6060.75  78.2485
 57.1936  6180.88  78.7784
 57.2356  6123.91  78.7177
 57.2776  6092.33  78.4933
 57.3196  6195.17  79.5049
 57.3616  6122.72  78.5097
 57.4036  6183.27  78.9784
 57.4456  6236.53  79.2962
 57.4876  6212.24  79.0049
 57.5296  6092.71  78.5675
 57.5716  6098.62  78.6166
 57.6136  6092.56  78.418
 57.6556  6019.02  78.0602
 57.6976  6135.93  78.6523
 57.7396  6058.57  78.4946
 57.7816  6086.97  79.0445
 57.8236  6059.62  78.6529
 57.8656  6192.1  79.1889
 57.9076  6111.84  78.6795
 57.9496  6110.52  79.0394
 57.9916  6085.31  78.3885
 58.0336  6085.66  78.6622
 58.0756  6159.52  78.7731
 58.1176  6107.42  78.4412
 58.1596  6023.7  78.4697
 58.2016  5929  77.0961
 58.2436  5900.9  77.3036
 58.2856  5861.9  76.9815
 58.3276  5823.47  77.0946
 58.3696  5810.22  76.7592
 58.4116  5735.31  76.1377
 58.4536  5823.32  76.6091
 58.4956  5772.51  76.4497
 58.5376  5908.95  76.9247
 58.5796  5750.44  76.2972
 58.6216  5867.87  76.8964
 58.6636  5935.03  77.5414
 58.7056  5940.04  77.4319
 58.7476  5788.61  76.8737
 58.7896  5751.7  76.2829
 58.8316  5900.65  77.2554
 58.8736  5878.28  77.1231
 58.9156  5822.49  76.7996
 58.9576  5820.65  77.0948
 58.9996  5829.51  76.4262
 59.0416  5864.19  77.008
 59.0836  5889.52  77.0913
 59.1256  5866.67  77.6343
 59.1676  5729.8  77.0276
 59.2096  5825.78  76.9822
 59.2516  5873.66  76.8848
 59.2936  5943.72  77.6674
 59.3356  5857.59  76.9822
 59.3776  5736.91  76.3498
 59.4196  5787.71  76.6241
 59.4616  5897.46  77.2091
 59.5036  5798.3  76.5911
 59.5456  5848  76.6177
 59.5876  5905.62  77.1832
 59.6296  5727.97  76.0809
 59.6716  5761.96  76.3629
 59.7136  5925.74  77.4289
 59.7556  5759.37  76.4675
 59.7976  5795.51  76.4545
 59.8396  5752.6  76.0677
 59.8816  5802.16  76.9292
 59.9236  5738.64  76.1597
 59.9656  5859.67  77.2156
 60.0076  5651.34  75.2086
 60.0496  5812.42  76.7611
 60.0916  6052.02  77.7511
 60.1336  5719.64  76.6634
 60.1756  5775.27  78.1934
 60.1996  0.0000000E+00  0.0000000E+00