File: docs/examples/opeando_xrd/IS17_D/Data/IS17_D/17_Da_f00091.xye
# /beamlines/bl04/projects/cycle2025-II/20250340211-lsimonelli/DATA/IS17_D/17_Da_f00091.xye : mythproc.py merge -s 0.006 -l 0.5 -f /beamlines/bl04/inhouse/ff/FlatField/ff_20Nov2024rod8mm60s_17keV.raw -b True -c true -o xye /beamlines/bl04/projects/cycle2025-II/20250340211-lsimonelli/DATA/IS17_D/17_Da_00091.dat
# IsMon = [6747177, 6750257, 6750069]  IsPos = [-1.5000, -2.4884, -3.4988]
# Wave = 0.4962  CalPath /beamlines/bl04/projects/cycle2025-II/20250340211-lsimonelli/DATA/Align/Si_Pos1_25keV_f00001.cal
# Date = 2025-09-24_18:53:41 Dt = 4.8000  Bin = 0.0060  <imon> = 6749168 +/- 1410 (Min/Max) 6747177 / 6750257
# icurr 249.4249  mocoIn 1.7011E-05  mocoOut 0.7980  i15 7.06789e+06  imon 6.74917e+06  i7 4.6667  iEMpd_timer 4.8000  iEMpd_1 3.4786E-08  iEMpd_2 7.7444E-08  iEMpd_3 1.6656E-08  iEMpd_4 4.7438E-08  iEMhp_timer 4.8000  iEMhp_1 4.8713E-06  iEMhp_2 -2.7464E-08  iEMhp_3 -2.4833E-08  iEMhp_4 -2.1973E-08
#      9776
 1.5856  39967.1  205.314
 1.6276  47059.3  218.964
 1.6696  53901.9  233.517
 1.7116  62245.3  251.43
 1.7536  71504.4  268.335
 1.7956  76300.8  277.881
 1.8376  72530.9  271.358
 1.8796  60638  246.301
 1.9216  48648.4  221.481
 1.9636  41465.9  204.156
 2.0056  37337.5  192.489
 2.0476  34192  186.222
 2.0896  33277.9  182.638
 2.1316  32328.2  179.148
 2.1736  30651.7  175.824
 2.2156  30628.4  174.347
 2.2576  29830.6  172.68
 2.2996  28738.1  170.109
 2.3416  29028.5  169.602
 2.3836  28555.3  168.317
 2.4256  27472.3  165.633
 2.4676  27168.6  164.481
 2.5096  27154.8  164.493
 2.5516  26245.7  165.445
 2.5936  26547  163.029
 2.6356  26011.8  162.06
 2.6776  26046.2  161.067
 2.7196  25450.6  159.724
 2.7616  25200.6  158.717
 2.8036  24938.2  158.056
 2.8456  24914.4  158.592
 2.8876  24228.3  156.266
 2.9296  24002.1  155.664
 2.9716  24079.8  155.413
 3.0136  23789.4  154.539
 3.0556  23766.5  154.855
 3.0976  23687.9  153.551
 3.1396  23418  153.379
 3.1816  23298.1  152.92
 3.2236  23213.6  152.637
 3.2656  23174.8  151.558
 3.3076  22912.3  152.133
 3.3496  23317.3  152.416
 3.3916  23564.7  153.055
 3.4336  23963.6  154.916
 3.4756  24478.7  156.506
 3.5176  25412.6  159.253
 3.5596  24872.4  160.5
 3.6016  25315  158.998
 3.6436  24427.1  157.27
 3.6856  23916.7  153.945
 3.7276  23176.4  152.615
 3.7696  22970.4  151.933
 3.8116  22612.7  150.829
 3.8536  22723.7  151.128
 3.8956  22659.3  150.746
 3.9376  22339.1  149.926
 3.9796  22482.6  149.919
 4.0216  22613.6  149.396
 4.0636  22499.4  150.485
 4.1056  22673.4  150.697
 4.1476  22795.6  151.428
 4.1896  23029.3  152.062
 4.2316  23073.1  152.034
 4.2736  23550  153.382
 4.3156  23688.4  154.064
 4.3576  24554.1  156.778
 4.3996  24748.7  157.654
 4.4416  25338.7  159.108
 4.4836  26039.8  161.44
 4.5256  26190.1  162.526
 4.5676  26138.9  162.616
 4.6096  26784.5  163.634
 4.6516  27035.3  163.746
 4.6936  27205.4  165.066
 4.7356  27563.1  165.981
 4.7776  27464.7  165.513
 4.8196  26969.4  164.663
 4.8616  26759.8  163.497
 4.9036  26444.3  162.288
 4.9456  26504.1  163.115
 4.9876  25636.2  160.323
 5.0296  26211.6  161.915
 5.0716  25892.7  161.714
 5.1136  26221.5  162.445
 5.1556  26474.2  162.691
 5.1976  26887.5  163.96
 5.2396  27219.2  164.657
 5.2816  26914  164.194
 5.3236  26995.5  164.147
 5.3656  26556.5  163.724
 5.4076  26401.4  163.398
 5.4496  26463.6  163.071
 5.4916  26664.7  163.452
 5.5336  26708.7  163.589
 5.5756  26483.6  162.933
 5.6176  26661.4  162.911
 5.6596  27027.1  164.848
 5.7016  26901.2  163.887
 5.7436  27329.6  165.461
 5.7856  27307.8  165.448
 5.8276  27582.8  166.001
 5.8696  27743.1  166.552
 5.9116  27688.4  167.099
 5.9536  27748.3  167.037
 5.9956  27998  167.153
 6.0376  28070.3  168.002
 6.0796  28435.5  168.922
 6.1216  28431.8  169.11
 6.1636  28730.6  169.059
 6.2056  28604.4  169.352
 6.2476  28657.9  169.208
 6.2896  28873.9  169.702
 6.3316  28847.5  169.803
 6.3736  28825.9  169.63
 6.4156  28960  169.977
 6.4576  29192.6  170.208
 6.4996  29252.8  170.861
 6.5416  29347.3  171.276
 6.5836  29327.8  171.445
 6.6256  29338.3  171.044
 6.6676  29770  171.867
 6.7096  29679.1  172.455
 6.7516  30137.6  173.435
 6.7936  30112.5  172.797
 6.8356  30147  172.971
 6.8776  30742.5  175.466
 6.9196  30507.3  175.199
 6.9616  31105.2  176.345
 7.0036  31435.3  176.936
 7.0456  31392.9  176.117
 7.0876  31533.4  178.117
 7.1296  31557  177.401
 7.1716  31400.6  176.503
 7.2136  31160  175.607
 7.2556  31448  176.58
 7.2976  31255.8  176.532
 7.3396  31463  177.325
 7.3816  31257.8  176.963
 7.4236  31283.7  176.329
 7.4656  31671.1  176.912
 7.5076  32080.9  178.184
 7.5496  31858.1  178.099
 7.5916  31994.3  178.512
 7.6336  32244.3  179.104
 7.6756  32494.4  179.651
 7.7176  32755.8  180.681
 7.7596  32607.8  181.507
 7.8016  32868.9  184.408
 7.8436  33361  182.456
 7.8856  33578.4  182.667
 7.9276  34315.2  185.053
 7.9696  34448.6  185.719
 8.0116  35431.9  186.893
 8.0536  35324  186.866
 8.0956  35354.3  188.11
 8.1376  36023  189.356
 8.1796  35988.3  189.801
 8.2216  36957.8  191.084
 8.2636  36882.1  191.135
 8.3056  37132.8  192.557
 8.3476  37406.2  192.593
 8.3896  37252.2  192.278
 8.4316  37411.7  192.851
 8.4736  37505.1  192.556
 8.5156  37192.8  192.03
 8.5576  36833.5  192.072
 8.5996  37073.9  191.569
 8.6416  36883.7  192.334
 8.6836  36740.7  191.797
 8.7256  37081.9  192.13
 8.7676  36570.7  193.697
 8.8096  36162.4  189.94
 8.8516  36008.8  189.221
 8.8936  35949.2  188.899
 8.9356  35879.5  189.061
 8.9776  36103.3  189.747
 9.0196  35832  188.713
 9.0616  36113.3  188.921
 9.1036  35479.7  188.434
 9.1456  35804.2  188.648
 9.1876  35424.9  187.6
 9.2296  35739.4  187.84
 9.2716  35162.8  186.381
 9.3136  34932.6  185.749
 9.3556  35401  186.971
 9.3976  33913.7  183.536
 9.4396  34288.4  184.437
 9.4816  33815.4  183.025
 9.5236  33748.8  182.755
 9.5656  33520.3  182.445
 9.6076  33321.9  182.438
 9.6496  33439.7  182.684
 9.6916  33438.6  182.65
 9.7336  33286.5  182.018
 9.7756  33389  183.403
 9.8176  32593.6  180.845
 9.8596  32466.3  178.956
 9.9016  32162.4  178.111
 9.9436  32012.2  177.437
 9.9856  31392.8  176.107
 10.0276  31120.1  176.433
 10.0696  31635.6  176.931
 10.1116  30524.7  174.052
 10.1536  30251.7  172.958
 10.1956  30102.2  172.613
 10.2376  29930.7  171.635
 10.2796  29879.7  171.609
 10.3216  29766.5  171.402
 10.3636  29515.9  170.858
 10.4056  29313.9  170.662
 10.4476  29207  169.984
 10.4896  29596  170.567
 10.5316  28878  168.864
 10.5736  28848.2  169.512
 10.6156  28356.3  167.833
 10.6576  28809.7  167.729
 10.6996  28297.1  166.893
 10.7416  27959.6  166.128
 10.7836  28165.5  167.428
 10.8256  27694.6  166.451
 10.8676  27783.3  166.252
 10.9096  27271  164.756
 10.9516  27091.4  163.147
 10.9936  27155.5  163.542
 11.0356  27095.7  163.99
 11.0776  26629  161.891
 11.1196  26227  161.396
 11.1616  26084.4  160.651
 11.2036  26304.3  161.188
 11.2456  26377.3  162.113
 11.2876  26259.7  161.486
 11.3296  25979.3  160.518
 11.3716  26277.5  161.167
 11.4136  26312.7  162.136
 11.4556  26284.2  161.713
 11.4976  26595.5  161.638
 11.5396  26818.5  162.485
 11.5816  26557.4  162.145
 11.6236  26150.5  161.117
 11.6656  25884.7  159.467
 11.7076  25507.4  159.133
 11.7496  24959.4  161.311
 11.7916  24965  156.701
 11.8336  24814.7  157.106
 11.8756  24424.3  155.408
 11.9176  24856.4  156.424
 11.9596  24391.6  155.16
 12.0016  24436.4  156.084
 12.0436  24484.6  155.657
 12.0856  24046.1  154.782
 12.1276  24207.8  155.22
 12.1696  24099.4  154.011
 12.2116  24398.3  154.95
 12.2536  23736.5  153.636
 12.2956  23975.6  153.772
 12.3376  23653.3  152.948
 12.3796  24076.8  154.766
 12.4216  23814.9  153.147
 12.4636  23740.2  153.81
 12.5056  23825.1  153.366
 12.5476  24092.1  153.754
 12.5896  24002.7  154.092
 12.6316  23508  152.663
 12.6736  23564.5  153.317
 12.7156  23448.8  152.815
 12.7576  23687.3  153.828
 12.7996  23803.6  152.855
 12.8416  23728.5  153.658
 12.8836  24020.7  154.428
 12.9256  24218.9  154.088
 12.9676  24328.7  154.853
 13.0096  23971  154.808
 13.0516  24270.4  154.806
 13.0936  24324.9  155.104
 13.1356  24563  155.124
 13.1776  23999.5  154.314
 13.2196  24327.8  155.024
 13.2616  24329.8  155.337
 13.3036  24093.6  154.727
 13.3456  24330.8  155.666
 13.3876  24150.5  154.394
 13.4296  24282.3  154.961
 13.4716  24456.7  155.12
 13.5136  24338.2  154.906
 13.5556  24324.7  155.461
 13.5976  24439.3  155.974
 13.6396  24623.1  155.929
 13.6816  23907.9  154.02
 13.7236  24883.1  156.902
 13.7656  24002.7  154.63
 13.8076  24207.2  154.073
 13.8496  24081.4  154.452
 13.8916  23968  154.899
 13.9336  24078.2  154.486
 13.9756  23874.7  153.183
 14.0176  23860.8  153.818
 14.0596  23821  153.661
 14.1016  23321.2  152.429
 14.1436  23259.5  151.372
 14.1856  23092.7  151.115
 14.2276  22841.7  150.776
 14.2696  22912.9  150.844
 14.3116  22708.5  150.073
 14.3536  22539.6  149.696
 14.3956  22373.7  148.872
 14.4376  22510  149.107
 14.4796  22486.9  149.024
 14.5216  22145.4  148.684
 14.5636  21750.2  146.913
 14.6056  22006.2  147.36
 14.6476  21738.6  145.699
 14.6896  21644.4  145.922
 14.7316  21291.6  145.75
 14.7736  21236.2  144.707
 14.8156  20962.2  143.809
 14.8576  20987.3  143.746
 14.8996  20636.3  143.739
 14.9416  20157.6  142.066
 14.9836  20449.4  143.038
 15.0256  20214.2  141.142
 15.0676  20248.1  141.581
 15.1096  20112.4  140.843
 15.1516  19613.3  139.635
 15.1936  19688.3  139.331
 15.2356  19319.2  138.299
 15.2776  19329.7  137.92
 15.3196  19051.4  137.924
 15.3616  19081.7  137.79
 15.4036  18995.5  137.337
 15.4456  19286.7  138.033
 15.4876  18779.3  135.887
 15.5296  18712.8  135.933
 15.5716  18312.7  134.071
 15.6136  18240  134.131
 15.6556  18393.7  133.939
 15.6976  18073.3  133.055
 15.7396  18141.9  133.703
 15.7816  17942.4  132.473
 15.8236  17735.7  132.406
 15.8656  17705.2  132.084
 15.9076  17482.8  131.077
 15.9496  17386.7  133.495
 15.9916  17394.1  133.961
 16.0336  17161.8  129.983
 16.0756  17194.6  130.413
 16.1176  17250.2  130.533
 16.1596  16915.2  130.591
 16.2016  17017.6  129.728
 16.2436  16738.4  129.047
 16.2856  16579.9  127.987
 16.3276  16366.3  127.572
 16.3696  16683  128.617
 16.4116  16432.9  128.114
 16.4536  16662.6  128.78
 16.4956  16369.3  127.392
 16.5376  16214.5  126.969
 16.5796  16224.6  126.368
 16.6216  16313.3  127.022
 16.6636  16213.1  126.777
 16.7056  16433.5  127.51
 16.7476  16457.9  127.129
 16.7896  16412.2  127.708
 16.8316  16254.4  127.061
 16.8736  16146  126.893
 16.9156  16283.9  127.758
 16.9576  16110.5  127.878
 16.9996  16041.4  128.089
 17.0416  16104  126.696
 17.0836  15958  125.874
 17.1256  15830.1  125.389
 17.1676  15739.7  125.023
 17.2096  15646.7  124.533
 17.2516  15559.2  124.267
 17.2936  15711.9  124.898
 17.3356  15314.3  123.312
 17.3776  15357.9  123.679
 17.4196  15383.6  123.477
 17.4616  15309.6  123.099
 17.5036  15140.9  122.775
 17.5456  14981.4  122.768
 17.5876  14879.8  121.409
 17.6296  15150  122.311
 17.6716  15057.8  122.518
 17.7136  14805.2  121.632
 17.7556  14564.6  120.928
 17.7976  14899.8  122.055
 17.8396  14738.8  120.893
 17.8816  14706.2  121.296
 17.9236  14437  119.999
 17.9656  14948.1  122.641
 18.0076  14711.6  121.25
 18.0496  14828  120.86
 18.0916  14730  121.001
 18.1336  14785.6  121.323
 18.1756  15032.8  121.868
 18.2176  14655.1  120.549
 18.2596  14701.9  120.471
 18.3016  15016.5  122.012
 18.3436  14831.5  121.265
 18.3856  14638.5  120.614
 18.4276  14736.5  120.683
 18.4696  14519.1  119.884
 18.5116  14551.1  120.307
 18.5536  14631.8  120.994
 18.5956  14390.5  119.549
 18.6376  14255.4  119.39
 18.6796  14225.6  118.6
 18.7216  14331.9  119.52
 18.7636  14143.4  118.731
 18.8056  14171.4  118.78
 18.8476  14134.9  119.249
 18.8896  14275.9  119.179
 18.9316  14120.3  118.514
 18.9736  14216.8  118.611
 19.0156  14066.3  118.384
 19.0576  14058.8  117.228
 19.0996  14108.9  118.144
 19.1416  13870.5  117.533
 19.1836  13919.9  117.338
 19.2256  13790.2  117.01
 19.2676  13965  117.831
 19.3096  14078.2  118.555
 19.3516  13836.7  117.324
 19.3936  13893.7  117.636
 19.4356  13970.3  117.84
 19.4776  13914.5  117.694
 19.5196  13952  117.706
 19.5616  13833.3  117.459
 19.6036  13693  116.364
 19.6456  13898.3  117.354
 19.6876  13925.5  117.115
 19.7296  13901  117.468
 19.7716  13744.6  116.961
 19.8136  14015.3  118.324
 19.8556  14207.8  118.607
 19.8976  14072.8  118.107
 19.9396  14240.8  118.385
 19.9816  14272.4  118.753
 20.0236  14440.5  119.673
 20.0656  14609.4  120.366
 20.1076  14273.8  119.446
 20.1496  14060.6  118.555
 20.1916  13967.5  117.636
 20.2336  13776.4  116.797
 20.2756  13736  117.06
 20.3176  13410.7  115.414
 20.3596  13510.7  115.811
 20.4016  13467.9  115.444
 20.4436  13393.7  115.67
 20.4856  13282.1  114.992
 20.5276  13257.8  115.328
 20.5696  13361  115.35
 20.6116  13333.6  115.4
 20.6536  13110.6  113.948
 20.6956  13117.8  114.093
 20.7376  13184.2  114.618
 20.7796  12984.6  113.437
 20.8216  13301.9  114.523
 20.8636  13079.2  113.924
 20.9056  13180.3  114.314
 20.9476  12968.3  113.238
 20.9896  13150.9  113.899
 21.0316  13167.1  113.864
 21.0736  13146.5  114.294
 21.1156  13079.5  114.16
 21.1576  13158.3  114.555
 21.1996  13032.1  113.984
 21.2416  12938.3  113.41
 21.2836  13038.6  113.808
 21.3256  12861.1  113.118
 21.3676  13124  113.809
 21.4096  12930.4  113.329
 21.4516  12879.1  112.934
 21.4936  12670.3  112.263
 21.5356  12982.4  113.577
 21.5776  12789.9  112.566
 21.6196  12858.8  112.901
 21.6616  12791  112.698
 21.7036  12696.7  112.065
 21.7456  12758.6  112.412
 21.7876  12756.9  112.152
 21.8296  12639.8  111.494
 21.8716  12642.3  111.74
 21.9136  12831.4  112.768
 21.9556  12590.2  111.38
 21.9976  12681.4  111.8
 22.0396  12534.2  111.399
 22.0816  12626.1  112.343
 22.1236  12668.6  111.993
 22.1656  12680.2  112.168
 22.2076  12662.1  111.558
 22.2496  12640  111.487
 22.2916  12757.3  111.88
 22.3336  12578.8  111.82
 22.3756  12620.4  111.729
 22.4176  12422.6  110.708
 22.4596  12425.9  111.303
 22.5016  12586.5  111.503
 22.5436  12688.1  111.847
 22.5856  12634.6  111.858
 22.6276  12582.9  111.762
 22.6696  12673.3  112.52
 22.7116  12369.5  110.679
 22.7536  12647.8  111.894
 22.7956  12707.5  111.484
 22.8376  12481.1  111.01
 22.8796  12488.1  110.841
 22.9216  12615.1  111.948
 22.9636  12646.8  111.241
 23.0056  12530.3  110.86
 23.0476  12518  111.377
 23.0896  12817.3  112.073
 23.1316  12719.2  112.079
 23.1736  12556  114.306
 23.2156  12547.6  111.654
 23.2576  12679  112.376
 23.2996  12662.5  112.08
 23.3416  12425.7  111.55
 23.3836  12378.6  110.578
 23.4256  12590  111.629
 23.4676  12339.7  110.22
 23.5096  12642.5  112.24
 23.5516  12518  110.97
 23.5936  12472  111.661
 23.6356  12596.1  111.874
 23.6776  12511.1  111.715
 23.7196  12337.6  110.74
 23.7616  12561.5  111.437
 23.8036  12481.4  111.119
 23.8456  12465.4  110.621
 23.8876  12261.3  110.066
 23.9296  12195.6  110.251
 23.9716  12385.9  110.311
 24.0136  12297.1  110.805
 24.0556  12106.4  109.681
 24.0976  12018.4  109.082
 24.1396  11947.8  111.384
 24.1816  12150.6  110.75
 24.2236  11982  109.597
 24.2656  11833.1  108.39
 24.3076  11770.9  108.355
 24.3496  11941.6  109.024
 24.3916  11667.6  107.822
 24.4336  11780.8  108.547
 24.4756  11746.3  108.258
 24.5176  11570.7  107.098
 24.5596  11615.3  107.628
 24.6016  11520.8  107.278
 24.6436  11671  107.474
 24.6856  11651.2  107.139
 24.7276  11530.4  106.895
 24.7696  11516.7  106.946
 24.8116  11486  106.979
 24.8536  11388.1  106.52
 24.8956  11269.5  105.705
 24.9376  11198.1  105.552
 24.9796  11180.3  105.576
 25.0216  11172.8  105.656
 25.0636  11118.8  105.052
 25.1056  11015.4  105.258
 25.1476  11153.7  107.584
 25.1896  11272  106.616
 25.2316  11281  105.93
 25.2736  11145.6  104.946
 25.3156  11062.6  104.634
 25.3576  11074.7  105.113
 25.3996  11123.7  105.32
 25.4416  11017.2  104.799
 25.4836  10815.4  104.353
 25.5256  11080.1  104.985
 25.5676  11052.9  104.587
 25.6096  10949.3  104.669
 25.6516  10982.5  104.325
 25.6936  10945.7  104.47
 25.7356  10939.4  104.567
 25.7776  10983.7  104.464
 25.8196  10761.7  103.558
 25.8616  10951.6  104.393
 25.9036  11036.2  104.266
 25.9456  10950.8  104.454
 25.9876  10783.1  103.583
 26.0296  11008.2  104.302
 26.0716  10749.8  103.489
 26.1136  10855.8  103.945
 26.1556  10925.5  103.656
 26.1976  10731  103.65
 26.2396  10861.5  103.436
 26.2816  10795.9  103.733
 26.3236  10843.9  104.116
 26.3656  10729.6  103.299
 26.4076  10987.3  104.735
 26.4496  11388.2  106.1
 26.4916  10897.4  103.803
 26.5336  10721.6  103.288
 26.5756  11008.5  104.528
 26.6176  10646.9  102.839
 26.6596  10667.3  103.245
 26.7016  10736.1  103.331
 26.7436  10539.5  102.516
 26.7856  10587.2  102.73
 26.8276  10503.2  102.272
 26.8696  10702.1  103.117
 26.9116  10394.1  101.558
 26.9536  10528.1  102.26
 26.9956  10522.5  102.265
 27.0376  10363.4  101.702
 27.0796  10405  101.644
 27.1216  10361.8  101.508
 27.1636  10307.5  101.402
 27.2056  10356.5  101.526
 27.2476  10430.3  101.887
 27.2896  10313.9  101.426
 27.3316  10241.3  100.781
 27.3736  10295.4  101.311
 27.4156  10171.3  100.547
 27.4576  10320.8  101.517
 27.4996  10199.1  100.517
 27.5416  10225.1  100.957
 27.5836  10217.8  100.741
 27.6256  10559.7  102.568
 27.6676  10476.2  102.187
 27.7096  10067  100.04
 27.7516  10121.2  100.461
 27.7936  10228  101.161
 27.8356  10175.2  100.523
 27.8776  10114.4  100.268
 27.9196  10102.5  100.053
 27.9616  10116.8  100.318
 28.0036  10114.8  100.281
 28.0456  10002.9  99.8506
 28.0876  9982.37  99.8435
 28.1296  9957.84  99.5612
 28.1716  10038.2  99.9728
 28.2136  10137.8  100.429
 28.2556  9910.04  99.4145
 28.2976  9825.96  98.9779
 28.3396  10006  99.636
 28.3816  10167.4  100.464
 28.4236  9898.48  99.2749
 28.4656  9835.21  98.9976
 28.5076  9884.49  98.8828
 28.5496  9934.05  99.3914
 28.5916  9789.56  98.4766
 28.6336  9774.11  98.7344
 28.6756  9768.36  97.916
 28.7176  9811.91  98.6807
 28.7596  9739.76  98.2134
 28.8016  9797.87  98.5406
 28.8436  9588.74  97.722
 28.8856  9719.69  98.2392
 28.9276  9760.32  98.6909
 28.9696  9648.53  97.7785
 29.0116  9741.66  98.4378
 29.0536  9594.28  97.8879
 29.0956  9719.53  98.2444
 29.1376  9719.92  98.2038
 29.1796  9615.29  97.7202
 29.2216  9595.96  97.4696
 29.2636  9728.85  98.2189
 29.3056  9710.6  97.9166
 29.3476  9700.93  98.3899
 29.3896  9755.55  98.7605
 29.4316  9707.26  97.8552
 29.4736  9636.98  97.5632
 29.5156  9711.76  97.859
 29.5576  9567.77  97.8703
 29.5996  9621  97.4015
 29.6416  9576.31  97.2939
 29.6836  9649.27  97.5919
 29.7256  9469.21  97.2377
 29.7676  9641.09  97.772
 29.8096  9740.34  98.2197
 29.8516  9435.25  97.0016
 29.8936  9556.92  97.7173
 29.9356  9547.97  97.4272
 29.9776  9479.86  97.2327
 30.0196  9477.45  96.6099
 30.0616  9450.2  96.8439
 30.1036  9433.3  96.5757
 30.1456  9495.13  97.1283
 30.1876  9489.38  97.0809
 30.2296  9504.77  97.1051
 30.2716  9624.4  97.3524
 30.3136  9515.91  97.6595
 30.3556  9305.53  96.5919
 30.3976  9403.7  98.6212
 30.4396  9501.07  96.4727
 30.4816  9419.45  95.6566
 30.5236  9336.84  95.256
 30.5656  9442.77  96.4375
 30.6076  9420.05  96.1015
 30.6496  9417.79  96.1278
 30.6916  9262.33  95.4204
 30.7336  9303.97  95.7904
 30.7756  9411.34  96.4286
 30.8176  9382.35  96.2003
 30.8596  9432.45  96.2206
 30.9016  9351  95.6848
 30.9436  9396.65  96.1396
 30.9856  9266.36  95.5748
 31.0276  9284.11  95.2718
 31.0696  9132.14  95.0574
 31.1116  9161.61  95.1941
 31.1536  9294  95.76
 31.1956  9145.19  95.0799
 31.2376  9025.95  94.4649
 31.2796  9199  94.9038
 31.3216  9077.28  94.2228
 31.3636  9323.51  96.1796
 31.4056  9285.49  97.3005
 31.4476  9155.58  94.5207
 31.4896  9093.34  94.7004
 31.5316  9175.41  94.5285
 31.5736  9298.31  94.981
 31.6156  9128.53  94.124
 31.6576  9240.47  94.7939
 31.6996  9212.5  94.3349
 31.7416  9143.98  94.9037
 31.7836  9103.48  93.8466
 31.8256  9027.56  93.7259
 31.8676  9259.12  94.9164
 31.9096  9135.34  94.4923
 31.9516  9028.38  94.2324
 31.9936  9022.56  94.031
 32.0356  8996.66  93.966
 32.0776  9131.88  94.5526
 32.1196  9139.3  94.6007
 32.1616  9149.57  94.1927
 32.2036  9023.85  94.0537
 32.2456  9033.92  94.4838
 32.2876  9023.59  93.9234
 32.3296  8952.23  93.5198
 32.3716  8867.12  93.1786
 32.4136  9068.45  94.443
 32.4556  9075.67  93.8575
 32.4976  9115.44  94.013
 32.5396  8985.32  93.3724
 32.5816  8904.62  93.0728
 32.6236  8879.19  93.0091
 32.6656  9118.98  94.7925
 32.7076  8923.41  93.4292
 32.7496  8965.84  93.3163
 32.7916  8944.15  93.1651
 32.8336  8867.25  92.859
 32.8756  8961.05  93.0795
 32.9176  8790.74  92.6604
 32.9596  8858.39  93.0903
 33.0016  8860.89  92.905
 33.0436  8978  93.681
 33.0856  8734.33  92.4791
 33.1276  8664.43  91.8416
 33.1696  8822.54  92.5166
 33.2116  8885.2  93.0743
 33.2536  8799.37  92.6264
 33.2956  8945.7  93.4762
 33.3376  8791.47  92.4851
 33.3796  8901.14  93.188
 33.4216  8892.28  92.7424
 33.4636  8796.87  92.3871
 33.5056  8687.1  92.0389
 33.5476  8749.31  92.3698
 33.5896  8908.85  92.9751
 33.6316  8686.32  92.1299
 33.6736  8618.37  91.9997
 33.7156  8692.69  92.4438
 33.7576  8790.05  92.5892
 33.7996  8830.59  92.5626
 33.8416  8656.89  91.834
 33.8836  8729.75  92.0005
 33.9256  8737.64  92.1052
 33.9676  8743.46  92.0241
 34.0096  8597.27  91.5663
 34.0516  8690.81  91.705
 34.0936  8570.96  91.3303
 34.1356  8678.55  91.6411
 34.1776  8613.39  91.3111
 34.2196  8572.71  91.2769
 34.2616  8537.84  91.2228
 34.3036  8465.29  91.0835
 34.3456  8531.32  91.1943
 34.3876  8644.83  91.8529
 34.4296  8513.35  90.7564
 34.4716  8696.75  91.8752
 34.5136  8467.72  90.8575
 34.5556  8491.47  91.232
 34.5976  8619.1  91.7588
 34.6396  8445.67  90.5109
 34.6816  8457.17  90.6862
 34.7236  8565.07  91.0497
 34.7656  8504.84  90.919
 34.8076  8504.63  91.2433
 34.8496  8468.03  90.897
 34.8916  8633.61  91.6635
 34.9336  8630.97  91.61
 34.9756  8446.53  90.5727
 35.0176  8486.02  91.2752
 35.0596  8387.28  90.5708
 35.1016  8371.04  90.2607
 35.1436  8498.4  90.6316
 35.1856  8355.7  89.9953
 35.2276  8439.11  90.6149
 35.2696  8348.2  90.3165
 35.3116  8441.94  90.9137
 35.3536  8288.48  89.832
 35.3956  8340.89  89.7918
 35.4376  8348.24  90.3827
 35.4796  8463.74  91.0676
 35.5216  8369.52  90.5167
 35.5636  8134.38  89.9718
 35.6056  8434.73  90.6334
 35.6476  8370.76  90.1857
 35.6896  8413.93  90.4997
 35.7316  8219.82  89.4335
 35.7736  8261.84  89.856
 35.8156  8300.03  90.0622
 35.8576  8257.72  90.0869
 35.8996  8498.86  91.3505
 35.9416  8624.75  91.4818
 35.9836  8279.15  90.1146
 36.0256  8266.82  89.9703
 36.0676  8379.02  90.3413
 36.1096  8185.43  89.4215
 36.1516  8383.94  90.3905
 36.1936  8207.78  89.2783
 36.2356  8355.27  90.7297
 36.2776  8382.09  90.344
 36.3196  8333.97  89.7616
 36.3616  8267.99  89.5375
 36.4036  8229.17  89.3815
 36.4456  8253.87  89.7219
 36.4876  8204.07  89.3973
 36.5296  8092.41  88.826
 36.5716  8212.27  90.2561
 36.6136  8406.57  90.0747
 36.6556  8395.7  90.227
 36.6976  8208.15  89.7085
 36.7396  8240.75  89.6165
 36.7816  8112.88  89.2905
 36.8236  8281  90.133
 36.8656  8269.36  90.1447
 36.9076  8083.61  89.0015
 36.9496  8240.68  89.8514
 36.9916  8167.05  89.0809
 37.0336  8295.53  90.0937
 37.0756  8312.75  89.9783
 37.1176  8060.67  88.8709
 37.1596  8024.33  88.6742
 37.2016  8132.48  89.4965
 37.2436  8231.86  89.3565
 37.2856  8103.78  88.9132
 37.3276  8099.69  88.2447
 37.3696  8088.63  89.0672
 37.4116  8182.48  89.4842
 37.4536  8198.27  89.4376
 37.4956  8130.83  89.1153
 37.5376  8047.93  90.2057
 37.5796  8049.94  90.1748
 37.6216  7921.88  87.7487
 37.6636  7952.6  87.819
 37.7056  8020.28  88.3832
 37.7476  8068.97  88.1848
 37.7896  8077.48  88.7291
 37.8316  7774.64  87.2274
 37.8736  8053.02  88.297
 37.9156  7833.89  87.0894
 37.9576  7906.06  87.369
 37.9996  7861.14  86.8529
 38.0416  7953.53  88.171
 38.0836  8179.14  89.3047
 38.1256  7857.51  87.4934
 38.1676  7717.03  86.8478
 38.2096  7928.47  87.6595
 38.2516  8088.94  88.7354
 38.2936  7983.84  87.9648
 38.3356  8070.69  88.3585
 38.3776  7882.31  87.5938
 38.4196  8037.55  88.3031
 38.4616  8043.8  88.576
 38.5036  7893.05  87.5832
 38.5456  7784.93  87.8071
 38.5876  7899.82  88.4859
 38.6296  7949.59  87.7422
 38.6716  7909.47  87.3078
 38.7136  7878.69  87.0863
 38.7556  7853.53  87.4474
 38.7976  7866.11  87.4548
 38.8396  7735.5  87.1752
 38.8816  7723.86  86.8804
 38.9236  7689.15  86.5107
 38.9656  7786.05  86.9684
 39.0076  7824.29  86.5939
 39.0496  7762.63  86.7869
 39.0916  7945.01  87.4415
 39.1336  7837.53  87.2619
 39.1756  7681.01  86.4528
 39.2176  7881.04  88.0989
 39.2596  7917.77  88.2293
 39.3016  7724.93  86.7099
 39.3436  7616.96  86.535
 39.3856  7817.21  87.1178
 39.4276  7842.89  87.7587
 39.4696  7917.75  87.7934
 39.5116  7765.73  87.4576
 39.5536  7942.83  88.8757
 39.5956  7886.67  87.6621
 39.6376  7963.79  88.0879
 39.6796  7793.68  86.8864
 39.7216  7912.64  87.652
 39.7636  7874.97  88.0087
 39.8056  7962.3  88.2766
 39.8476  7716.37  87.1504
 39.8896  7876.21  87.6861
 39.9316  7725.32  87.0889
 39.9736  7988.87  88.1258
 40.0156  7898.78  87.4555
 40.0576  7881.08  87.7125
 40.0996  8033.02  87.7333
 40.1416  7900.92  87.7919
 40.1836  7844.22  87.3747
 40.2256  7971.55  88.1295
 40.2676  7822.28  87.4693
 40.3096  7880.94  87.6593
 40.3516  7976.51  88.2935
 40.3936  7972.95  87.8373
 40.4356  7812.1  87.1412
 40.4776  7893.29  87.8352
 40.5196  7971.52  88.5627
 40.5616  7911.89  87.8749
 40.6036  7839.29  87.7219
 40.6456  7909.62  87.7284
 40.6876  8008.68  88.2634
 40.7296  7911.51  87.8575
 40.7716  7858.88  87.6919
 40.8136  7879.05  87.7482
 40.8556  7890.74  87.9497
 40.8976  7905.98  87.9507
 40.9396  7866.17  88.0824
 40.9816  7892.44  87.5148
 41.0236  7965.09  87.6989
 41.0656  8012.38  88.5016
 41.1076  7971.95  88.0443
 41.1496  7911.27  87.6174
 41.1916  7862.31  87.6706
 41.2336  7852.04  87.6056
 41.2756  7829.13  87.0816
 41.3176  7837.92  87.7452
 41.3596  7905.36  87.8437
 41.4016  7871.43  87.9155
 41.4436  7859.37  87.6407
 41.4856  7918.63  88.1305
 41.5276  7749.18  87.1961
 41.5696  7881.84  87.5727
 41.6116  7780.27  87.405
 41.6536  7805.9  87.4079
 41.6956  7957.25  88.2319
 41.7376  7781.24  87.3503
 41.7796  7872.76  87.7459
 41.8216  7855.63  87.8824
 41.8636  7873.56  87.9234
 41.9056  7762.88  87.0983
 41.9476  7860.13  87.8655
 41.9896  7943.71  88.0047
 42.0316  7868.62  87.6712
 42.0736  7850.12  87.7071
 42.1156  7749.54  86.9541
 42.1576  7800.43  87.334
 42.1996  7873.45  87.8869
 42.2416  7873.68  87.4665
 42.2836  7745.89  86.8695
 42.3256  7686.56  86.6513
 42.3676  7806  87.1208
 42.4096  7791.75  87.0089
 42.4516  7793.54  87.1111
 42.4936  7663.79  86.4475
 42.5356  7759.58  87.1174
 42.5776  7866.45  87.6526
 42.6196  7871.19  87.7324
 42.6616  7600.15  86.3808
 42.7036  7724.13  86.4703
 42.7456  7747.44  86.9567
 42.7876  7825.27  87.486
 42.8296  7701.79  86.6349
 42.8716  7737.8  86.9939
 42.9136  7672.53  86.3743
 42.9556  7827.38  87.4185
 42.9976  7743.79  86.9091
 43.0396  7620.23  85.9506
 43.0816  7696.27  86.7462
 43.1236  7582.71  86.1712
 43.1656  7762.01  87.0144
 43.2076  7677.33  86.6416
 43.2496  7627.56  86.1782
 43.2916  7628.1  86.5417
 43.3336  7748.09  87.0578
 43.3756  7643.84  86.2261
 43.4176  7500.62  85.4957
 43.4596  7651.72  86.2089
 43.5016  7617.53  86.4193
 43.5436  7618.52  86.3242
 43.5856  7529.99  85.8457
 43.6276  7598.82  86.1337
 43.6696  7588.53  86.3321
 43.7116  7735.96  86.6623
 43.7536  7561.5  86.1634
 43.7956  7521.82  87.1074
 43.8376  7552.85  85.8414
 43.8796  7520.75  85.7444
 43.9216  7543.53  85.7922
 43.9636  7537.74  85.864
 44.0056  7484.99  85.791
 44.0476  7457.34  85.2727
 44.0896  7482.86  85.7565
 44.1316  7674.92  86.3728
 44.1736  7566.16  85.8832
 44.2156  7508.81  85.402
 44.2576  7465.7  85.4888
 44.2996  7574.14  86.0763
 44.3416  7512.61  85.4928
 44.3836  7261.7  84.3719
 44.4256  7370.95  84.653
 44.4676  7305.38  84.4289
 44.5096  7344.71  84.798
 44.5516  7547.36  85.9185
 44.5936  7347.96  84.7316
 44.6356  7447.83  85.0463
 44.6776  7367.69  84.902
 44.7196  7409.1  85.4448
 44.7616  7388.96  86.6481
 44.8036  7397.87  85.3431
 44.8456  7377.15  85.2213
 44.8876  7364.88  85.0023
 44.9296  7594.23  85.7738
 44.9716  7378.91  84.9794
 45.0136  7321.26  84.5673
 45.0556  7368.38  84.924
 45.0976  7374.9  85.0209
 45.1396  7270.75  84.1851
 45.1816  7267.55  84.0995
 45.2236  7352.25  84.4873
 45.2656  7299.27  84.6764
 45.3076  7230.86  84.065
 45.3496  7260.51  84.5321
 45.3916  7256.07  84.7787
 45.4336  7411.77  85.5307
 45.4756  7323.12  84.8766
 45.5176  7348.84  84.6431
 45.5596  7243.29  84.1525
 45.6016  7290.69  84.8386
 45.6436  7272.65  83.9187
 45.6856  7181.6  84.039
 45.7276  7203.9  85.4691
 45.7696  7244.82  85.3774
 45.8116  7184.74  84.476
 45.8536  7169.04  84.2838
 45.8956  7269.61  84.2306
 45.9376  7287.83  83.8059
 45.9796  7130.53  83.5642
 46.0216  7271.32  84.7253
 46.0636  7268.25  83.8685
 46.1056  7315.48  84.1205
 46.1476  7173.68  83.8862
 46.1896  7275.2  84.6243
 46.2316  7181.5  83.9504
 46.2736  7089.77  83.6157
 46.3156  7161.32  83.7877
 46.3576  7217.06  84.3119
 46.3996  7218.77  84.4825
 46.4416  7265.74  84.3102
 46.4836  7029.81  83.3022
 46.5256  7200.88  84.246
 46.5676  7288.06  84.8723
 46.6096  7131.69  83.8768
 46.6516  7280.52  83.814
 46.6936  7152.22  83.5519
 46.7356  7235.71  84.1467
 46.7776  7190.67  84.7143
 46.8196  7022.19  83.4558
 46.8616  7020.18  83.2516
 46.9036  7013.1  82.8794
 46.9456  7067.51  82.8428
 46.9876  7078.66  82.9881
 47.0296  7065.51  83.5935
 47.0716  7057.06  83.3646
 47.1136  7053.45  83.0361
 47.1556  6993.97  82.5496
 47.1976  6995.27  82.7178
 47.2396  7066.71  83.4546
 47.2816  6996.38  82.7389
 47.3236  7020.9  83.2499
 47.3656  7028.55  83.225
 47.4076  7183.04  83.8662
 47.4496  6969.06  82.7707
 47.4916  7014.01  83.2288
 47.5336  6980.46  82.8487
 47.5756  7091.15  83.6161
 47.6176  6957.5  82.7221
 47.6596  6918.16  82.2115
 47.7016  7160.35  83.4573
 47.7436  7044.89  83.1037
 47.7856  6958.6  82.6365
 47.8276  6976.25  82.7814
 47.8696  6918.28  82.5109
 47.9116  6924.14  82.2743
 47.9536  7006.7  82.7001
 47.9956  6842.19  82.4179
 48.0376  6861.68  82.3127
 48.0796  6992.25  83.2226
 48.1216  7030.31  83.2665
 48.1636  7087.33  83.1882
 48.2056  6915.39  82.4291
 48.2476  7030.97  83.4195
 48.2896  6956.68  82.886
 48.3316  6938.22  82.7222
 48.3736  6784.27  81.8137
 48.4156  6884.76  82.2772
 48.4576  6724.58  81.5991
 48.4996  6936.7  82.3435
 48.5416  6973.07  82.8801
 48.5836  6820.06  81.6429
 48.6256  7068.92  83.3318
 48.6676  6830.79  82.4118
 48.7096  6889.17  82.0478
 48.7516  6781.66  81.5525
 48.7936  6806.53  81.7616
 48.8356  6979.05  82.8447
 48.8776  6922.51  83.0685
 48.9196  6984.92  82.8193
 48.9616  6844.64  82.3627
 49.0036  6919.96  83.1512
 49.0456  6748.16  82.1024
 49.0876  6843.75  82.221
 49.1296  6676.34  81.3673
 49.1716  6684.48  81.2886
 49.2136  6842.29  82.1664
 49.2556  6920.5  82.6766
 49.2976  6882.78  82.5092
 49.3396  6755.85  81.8101
 49.3816  6852.63  81.8214
 49.4236  6798.99  81.9254
 49.4656  6755.94  81.6778
 49.5076  6765.39  81.4918
 49.5496  6709.97  81.219
 49.5916  6767.76  81.4742
 49.6336  6772.14  81.7076
 49.6756  6808.54  82.163
 49.7176  6735.54  81.6618
 49.7596  6778.8  81.6983
 49.8016  6811.34  81.8099
 49.8436  6715.66  81.5192
 49.8856  6735.05  81.6529
 49.9276  6639.22  81.1612
 49.9696  6719.37  81.6278
 50.0116  6642.97  81.2954
 50.0536  6748.94  81.8933
 50.0956  6670.82  81.4802
 50.1376  6783.25  81.8719
 50.1796  6664.28  81.4168
 50.2216  6739.61  81.8685
 50.2636  6762.32  81.6334
 50.3056  6552.41  80.5237
 50.3476  6765.18  81.841
 50.3896  6616.38  80.902
 50.4316  6648.57  80.94
 50.4736  6710.85  81.5402
 50.5156  6646.87  81.1422
 50.5576  6714.09  81.3148
 50.5996  6561.61  80.6562
 50.6416  6571  80.6419
 50.6836  6636.13  81.1031
 50.7256  6676.37  81.2778
 50.7676  6565.13  80.9011
 50.8096  6531.77  80.2486
 50.8516  6633.53  81.2812
 50.8936  6543.31  80.5134
 50.9356  6662.42  81.3464
 50.9776  6664.04  81.5087
 51.0196  6548.12  80.917
 51.0616  6570.63  80.3922
 51.1036  6632.16  81.1198
 51.1456  6621.76  80.9673
 51.1876  6639.94  80.4294
 51.2296  6528.51  80.3776
 51.2716  6499.14  79.9063
 51.3136  6638.77  81.2117
 51.3556  6468.41  79.7976
 51.3976  6485.06  80.0475
 51.4396  6272.91  79.0153
 51.4816  6624.76  81.0579
 51.5236  6447.75  80.0512
 51.5656  6499.5  79.9863
 51.6076  6465.17  79.8565
 51.6496  6447.74  79.9354
 51.6916  6411.37  80.0555
 51.7336  6477.05  80.5529
 51.7756  6591.79  80.9683
 51.8176  6488.38  80.4334
 51.8596  6455.17  80.2425
 51.9016  6528.5  80.3123
 51.9436  6519.7  81.692
 51.9856  6296.91  80.7158
 52.0276  6483.32  80.4333
 52.0696  6402.37  79.9875
 52.1116  6402.94  80.1105
 52.1536  6422.85  80.0748
 52.1956  6523.3  80.2209
 52.2376  6459.01  79.9938
 52.2796  6432.89  79.6448
 52.3216  6267.46  79.2836
 52.3636  6467  80.122
 52.4056  6393.9  79.525
 52.4476  6290.73  79.238
 52.4896  6296.03  79.3229
 52.5316  6428.85  80.2019
 52.5736  6364.16  79.528
 52.6156  6336.66  79.72
 52.6576  6433.14  79.7836
 52.6996  6204.77  79.2934
 52.7416  6332.12  79.9594
 52.7836  6307.61  79.6837
 52.8256  6368.14  79.3118
 52.8676  6273.58  79.2707
 52.9096  6354.66  79.8764
 52.9516  6297.19  79.8809
 52.9936  6303.96  80.3057
 53.0356  6356.98  79.659
 53.0776  6244.89  79.2069
 53.1196  6214.38  79.1359
 53.1616  6233.94  79.3109
 53.2036  6175.43  78.8943
 53.2456  6233.57  79.3681
 53.2876  6213.94  78.9482
 53.3296  6199.31  79.176
 53.3716  6273.16  79.3935
 53.4136  6193.84  79.0396
 53.4556  6207.92  79.1598
 53.4976  6130.17  78.5097
 53.5396  6198.93  79.3348
 53.5816  6209.8  79.0393
 53.6236  6127.16  78.8433
 53.6656  6290.05  79.5289
 53.7076  6246.57  79.2139
 53.7496  6128.84  78.58
 53.7916  6335.31  80.0178
 53.8336  6117.65  78.5333
 53.8756  6067.9  78.7378
 53.9176  6197.33  78.9396
 53.9596  6247.44  80.016
 54.0016  6148.97  78.7247
 54.0436  6177.23  79.1182
 54.0856  6212.32  78.7751
 54.1276  6182.91  78.7901
 54.1696  6139.27  78.677
 54.2116  6127.33  78.3651
 54.2536  6252.5  78.9769
 54.2956  6154.48  78.3999
 54.3376  6120.03  78.6539
 54.3796  6170.35  78.8775
 54.4216  6211.6  79.1888
 54.4636  6103.34  78.4575
 54.5056  6183.38  78.7932
 54.5476  6197.84  79.2136
 54.5896  6250.22  79.3792
 54.6316  6166.75  78.7112
 54.6736  6195.86  78.9711
 54.7156  6190.72  78.9603
 54.7576  6141.39  78.6392
 54.7996  6145.43  78.8189
 54.8416  6146.92  78.8601
 54.8836  5994.7  77.9898
 54.9256  6124.48  78.5768
 54.9676  6136.38  78.508
 55.0096  6196.02  78.9661
 55.0516  6130.22  78.7686
 55.0936  6114.75  78.3054
 55.1356  6090  78.192
 55.1776  6121.29  78.6594
 55.2196  6140.79  78.566
 55.2616  6089.81  78.4462
 55.3036  6099.03  78.661
 55.3456  6112  78.8983
 55.3876  6091.3  78.5133
 55.4296  6137.23  78.7849
 55.4716  6116.95  78.6878
 55.5136  6157.46  78.7049
 55.5556  6087.48  78.3326
 55.5976  6017.47  77.9291
 55.6396  6055.56  78.0486
 55.6816  6053.92  77.9976
 55.7236  6105.74  78.375
 55.7656  6108.88  78.1533
 55.8076  6196.55  78.6931
 55.8496  6075.18  78.3408
 55.8916  6055.49  78.3095
 55.9336  6093.69  78.3739
 55.9756  5975.41  77.5058
 56.0176  6015.92  77.9145
 56.0596  6065.23  78.2218
 56.1016  6081.5  78.3336
 56.1436  6059.06  78.4486
 56.1856  6045.63  78.108
 56.2276  6134.24  78.7326
 56.2696  6106.78  78.5307
 56.3116  6034.32  78.4592
 56.3536  6045.32  78.1918
 56.3956  6050.03  78.2147
 56.4376  6061.3  78.3183
 56.4796  6098.39  78.3567
 56.5216  6063.01  78.5046
 56.5636  6059.83  78.0785
 56.6056  5981.42  77.8018
 56.6476  6081.22  78.0782
 56.6896  6036.4  78.2296
 56.7316  6055.01  78.2622
 56.7736  6053.19  78.2494
 56.8156  6061.7  78.3025
 56.8576  5986.4  77.7521
 56.8996  6030.94  77.9802
 56.9416  5990.29  78.0146
 56.9836  6013.74  77.6933
 57.0256  5981.11  77.7957
 57.0676  6051.09  78.3725
 57.1096  6093.21  78.4278
 57.1516  6074.59  78.3723
 57.1936  6040.23  77.9043
 57.2356  6108.78  78.6579
 57.2776  5959.34  77.6525
 57.3196  6072.82  78.7564
 57.3616  6029.75  77.9703
 57.4036  6133.46  78.7014
 57.4456  5997.22  77.7879
 57.4876  6088.73  78.2367
 57.5296  5955.29  77.7132
 57.5716  6009.82  78.0511
 57.6136  6084.97  78.3615
 57.6556  5985.34  77.8567
 57.6976  6053.1  78.1204
 57.7396  6004  78.1645
 57.7816  5999.3  78.4978
 57.8236  5949.95  77.9686
 57.8656  6028.4  78.1446
 57.9076  6017.55  78.1036
 57.9496  6048.63  78.6493
 57.9916  5979  77.7165
 58.0336  6000.66  78.1312
 58.0756  6054.61  78.093
 58.1176  6017.92  77.8778
 58.1596  5966.57  78.0923
 58.2016  6098.87  78.1857
 58.2436  6036.13  78.1932
 58.2856  6021.91  78.0221
 58.3276  6046.52  78.5529
 58.3696  6073.38  78.4791
 58.4116  5965.56  77.6432
 58.4536  6086.68  78.3139
 58.4956  6028.34  78.1192
 58.5376  6084.87  78.0557
 58.5796  5983.17  77.8164
 58.6216  6101.42  78.4027
 58.6636  6076.15  78.4475
 58.7056  5990.07  77.749
 58.7476  5970.75  78.0686
 58.7896  5984.43  77.8048
 58.8316  6029.98  78.0945
 58.8736  6033.53  78.1287
 58.9156  5962.7  77.7097
 58.9576  6140.7  79.1847
 58.9996  6146.16  78.4595
 59.0416  6134.45  78.7488
 59.0836  6020  77.9371
 59.1256  5911.01  77.9144
 59.1676  5996.47  78.7866
 59.2096  6083.34  78.666
 59.2516  6142.93  78.6279
 59.2936  6041.32  78.303
 59.3356  6073.08  78.386
 59.3776  6111.85  78.8057
 59.4196  6047.35  78.3252
 59.4616  6031.06  78.0793
 59.5036  5951.43  77.5974
 59.5456  6113.99  78.3413
 59.5876  6082.11  78.3285
 59.6296  5867.54  77.0027
 59.6716  6009  77.9832
 59.7136  6134.31  78.7803
 59.7556  6166.13  79.1222
 59.7976  5981.93  77.6749
 59.8396  6181.05  78.8501
 59.8816  6044.89  78.5228
 59.9236  6160.07  78.9071
 59.9656  6002.75  78.1523
 60.0076  6161.81  78.5325
 60.0496  6020.67  78.1293
 60.0916  6119.15  78.1816
 60.1336  5991.15  78.4624
 60.1756  5966.1  79.4752
 60.1996  0.0000000E+00  0.0000000E+00