File: docs/examples/opeando_xrd/IS17_D/Data/IS17_D/17_Db_f00125.xye
# /beamlines/bl04/projects/cycle2025-II/20250340211-lsimonelli/DATA/IS17_D/17_Db_f00125.xye : mythproc.py merge -s 0.006 -l 0.5 -f /beamlines/bl04/inhouse/ff/FlatField/ff_20Nov2024rod8mm60s_17keV.raw -b True -c true -o xye /beamlines/bl04/projects/cycle2025-II/20250340211-lsimonelli/DATA/IS17_D/17_Db_00125.dat
# IsMon = [6744326, 6745294, 6752073]  IsPos = [-1.4999, -2.4884, -3.4988]
# Wave = 0.4962  CalPath /beamlines/bl04/projects/cycle2025-II/20250340211-lsimonelli/DATA/Align/Si_Pos1_25keV_f00001.cal
# Date = 2025-09-25_04:33:32 Dt = 4.8000  Bin = 0.0060  <imon> = 6747231 +/- 3447 (Min/Max) 6744326 / 6752073
# icurr 249.4504  mocoIn 1.7014E-05  mocoOut 0.7984  i15 7.06878e+06  imon 6.74723e+06  i7 4.3333  iEMpd_timer 4.8000  iEMpd_1 3.5188E-08  iEMpd_2 7.9140E-08  iEMpd_3 1.5854E-08  iEMpd_4 4.9080E-08  iEMhp_timer 4.8000  iEMhp_1 4.8733E-06  iEMhp_2 -2.5426E-08  iEMhp_3 -2.4819E-08  iEMhp_4 -2.1225E-08
#      9776
 1.5856  44395.9  216.405
 1.6276  51001.5  227.967
 1.6696  56393.1  238.868
 1.7116  63096.2  253.16
 1.7536  71361  268.084
 1.7956  75569.4  276.565
 1.8376  72100.1  270.57
 1.8796  62306.4  249.674
 1.9216  51831.8  228.629
 1.9636  44371.5  210.669
 2.0056  40582.7  200.693
 2.0476  38182.8  196.803
 2.0896  36914.4  192.372
 2.1316  35830.5  188.615
 2.1736  33728.7  184.451
 2.2156  34574.2  185.25
 2.2576  33198  182.177
 2.2996  31684.8  178.629
 2.3416  32380.7  179.138
 2.3836  31421.8  176.575
 2.4256  30925.4  175.746
 2.4676  30022.3  172.915
 2.5096  30078  173.132
 2.5516  28626.7  172.755
 2.5936  28925.4  170.192
 2.6356  28119  168.515
 2.6776  28081.8  167.289
 2.7196  27564.1  166.228
 2.7616  27570.3  166.033
 2.8036  26898.9  164.171
 2.8456  26989.1  165.088
 2.8876  26210  162.549
 2.9296  25929.2  161.802
 2.9716  25884  161.153
 3.0136  25442.5  159.837
 3.0556  25663.2  160.928
 3.0976  25655.4  159.793
 3.1396  25155.7  158.962
 3.1816  24918.7  158.15
 3.2236  24904.8  158.11
 3.2656  24603.8  156.179
 3.3076  24647.4  157.799
 3.3496  24705.4  156.906
 3.3916  25039.6  157.783
 3.4336  25376.4  159.434
 3.4756  25923.6  161.08
 3.5176  26390.7  162.3
 3.5596  26326  164.533
 3.6016  26362.4  162.246
 3.6436  25404.9  160.389
 3.6856  25113  157.758
 3.7276  24263.8  156.151
 3.7696  23861.4  155.023
 3.8116  23633.9  154.195
 3.8536  23792.9  154.634
 3.8956  23762.1  154.36
 3.9376  23629.7  154.199
 3.9796  23633.2  153.699
 4.0216  23419.2  152.037
 4.0636  23690.9  154.389
 4.1056  23460.1  153.298
 4.1476  23815.2  154.756
 4.1896  23868.2  154.783
 4.2316  24079.6  155.296
 4.2736  24361.9  156.007
 4.3156  24500.5  156.668
 4.3576  25266.5  159.017
 4.3996  25714.6  160.707
 4.4416  26029.1  161.258
 4.4836  26428.2  162.655
 4.5256  27038.7  165.138
 4.5676  26903.5  164.975
 4.6096  27473.2  165.365
 4.6516  27821.3  166.094
 4.6936  27898.7  167.148
 4.7356  28105  167.6
 4.7776  27858.3  166.687
 4.8196  27889.8  167.442
 4.8616  27158  164.726
 4.9036  27089.7  164.245
 4.9456  27007.5  164.651
 4.9876  26356.6  162.548
 5.0296  26617.4  163.197
 5.0716  26261.1  162.833
 5.1136  26665.7  163.824
 5.1556  26667.2  163.276
 5.1976  27287.6  165.172
 5.2396  27374.6  165.12
 5.2816  27436.8  165.788
 5.3236  27423.3  165.433
 5.3656  26936.4  164.894
 5.4076  26711.5  164.334
 5.4496  26735.3  163.905
 5.4916  26841.9  163.988
 5.5336  26948.7  164.317
 5.5756  26956.9  164.365
 5.6176  27211.4  164.582
 5.6596  27345.6  165.983
 5.7016  27315.7  165.135
 5.7436  27557.4  166.151
 5.7856  27101.1  164.835
 5.8276  27486.6  165.706
 5.8696  27708.4  166.557
 5.9116  27862.8  167.623
 5.9536  28259.1  168.553
 5.9956  28197.9  167.759
 6.0376  28398.1  168.976
 6.0796  28537.1  169.212
 6.1216  28536.4  169.408
 6.1636  28631.9  168.752
 6.2056  28498.1  169.031
 6.2476  28813  169.839
 6.2896  29092.7  170.334
 6.3316  28998.1  170.24
 6.3736  29269.2  170.916
 6.4156  29411.3  171.23
 6.4576  29221.8  170.286
 6.4996  29342.8  171.113
 6.5416  29488.7  171.675
 6.5836  29320.5  171.415
 6.6256  29579.8  171.73
 6.6676  30063.1  172.697
 6.7096  30093.4  173.655
 6.7516  30255.7  173.776
 6.7936  30440.1  173.698
 6.8356  30741.9  174.657
 6.8776  30672.2  175.257
 6.9196  30795.5  176.018
 6.9616  31480.2  177.41
 7.0036  31674.5  177.602
 7.0456  31865.2  177.427
 7.0876  31839.8  179.053
 7.1296  31727.8  177.865
 7.1716  31682  177.273
 7.2136  31651.5  176.971
 7.2556  31686.2  177.223
 7.2976  31740.5  177.876
 7.3396  31686.8  177.96
 7.3816  31684.9  178.154
 7.4236  31953.5  178.205
 7.4656  32106.6  178.09
 7.5076  32154.9  178.38
 7.5496  31992.5  178.447
 7.5916  32258.8  179.25
 7.6336  32906.4  180.919
 7.6756  32860.3  180.645
 7.7176  33235.1  182.008
 7.7596  32931.8  182.394
 7.8016  33646.8  186.614
 7.8436  33390  182.527
 7.8856  33621.2  182.766
 7.9276  34056.3  184.329
 7.9696  34380.5  185.525
 8.0116  35456.1  186.951
 8.0536  35548.9  187.436
 8.0956  35393.6  188.229
 8.1376  35974.6  189.224
 8.1796  35952.9  189.717
 8.2216  36941.1  191.025
 8.2636  36983.4  191.391
 8.3056  36940.5  192.03
 8.3476  37433.2  192.65
 8.3896  37243.5  192.235
 8.4316  37246.1  192.415
 8.4736  37538.8  192.642
 8.5156  37234  192.133
 8.5576  36833.5  192.075
 8.5996  37032.7  191.459
 8.6416  36793.5  192.111
 8.6836  36363.8  190.791
 8.7256  37041.1  192.038
 8.7676  36850  194.442
 8.8096  37363.7  193.082
 8.8516  37069.4  191.889
 8.8936  36838.6  191.245
 8.9356  37147.3  192.391
 8.9776  37089.2  192.307
 9.0196  37029.1  191.836
 9.0616  36841.2  190.833
 9.1036  36260.5  190.495
 9.1456  35972.6  189.05
 9.1876  36377.9  190.075
 9.2296  36150  188.896
 9.2716  35771.2  187.957
 9.3136  36150.4  188.944
 9.3556  35991.4  188.506
 9.3976  35072.4  186.614
 9.4396  35117.3  186.631
 9.4816  35193.2  186.701
 9.5236  34839.5  185.636
 9.5656  34592.2  185.342
 9.6076  33917.3  184.036
 9.6496  34149  184.557
 9.6916  33685.2  183.239
 9.7336  33981.4  183.848
 9.7756  33799.9  184.622
 9.8176  33832.1  184.257
 9.8596  33540.2  181.901
 9.9016  33293.3  181.217
 9.9436  32964.6  180.242
 9.9856  32704.2  179.797
 10.0276  32143.3  179.326
 10.0696  32807.3  180.201
 10.1116  31659.8  177.273
 10.1536  31444.4  176.842
 10.1956  31025.4  175.26
 10.2376  31183  175.213
 10.2796  30765.5  174.142
 10.3216  30543.6  173.8
 10.3636  30359.3  173.305
 10.4056  29648.1  171.662
 10.4476  30080  172.519
 10.4896  29959.3  171.609
 10.5316  29527.2  171.109
 10.5736  29541.2  171.561
 10.6156  29215.8  170.372
 10.6576  29277  169.103
 10.6996  28803.4  168.435
 10.7416  28500.1  167.759
 10.7836  28052.7  167.083
 10.8256  27668.3  166.364
 10.8676  27874.7  166.528
 10.9096  27616.1  165.769
 10.9516  27194.1  163.446
 10.9936  27451.5  164.426
 11.0356  27050.9  163.825
 11.0776  27129.9  163.407
 11.1196  26637.1  162.681
 11.1616  26329.3  161.416
 11.2036  26503.5  161.788
 11.2456  26504.3  162.513
 11.2876  26633.8  162.638
 11.3296  26326.8  161.601
 11.3716  26808.3  162.749
 11.4136  26876.1  163.854
 11.4556  26989.3  163.837
 11.4976  27662.1  164.853
 11.5396  27384  164.202
 11.5816  26883.2  163.133
 11.6236  26209.7  161.314
 11.6656  26473.8  161.26
 11.7076  25860.2  160.216
 11.7496  25263.5  162.386
 11.7916  25326.8  157.807
 11.8336  24820.7  157.1
 11.8756  24796.1  156.587
 11.9176  24727.9  156.053
 11.9596  24889.3  156.74
 12.0016  24639.7  156.708
 12.0436  24588.8  156.001
 12.0856  24433.1  156.006
 12.1276  24364.8  155.739
 12.1696  24287.2  154.599
 12.2116  24256.8  154.501
 12.2536  24250.9  155.312
 12.2956  23865.2  153.406
 12.3376  24133.4  154.493
 12.3796  24247.6  155.334
 12.4216  24205.3  154.382
 12.4636  23786.3  153.981
 12.5056  24045.1  154.08
 12.5476  24138.8  153.891
 12.5896  23741.5  153.252
 12.6316  24047.7  154.405
 12.6736  24003.9  154.752
 12.7156  24027.7  154.673
 12.7576  23869  154.409
 12.7996  24082.2  153.737
 12.8416  23680  153.494
 12.8836  24144.4  154.813
 12.9256  24521.1  155.053
 12.9676  24413.6  155.109
 13.0096  24562.4  156.716
 13.0516  24430.1  155.312
 13.0936  24914.8  157.265
 13.1356  24808.7  155.882
 13.1776  24380.3  155.547
 13.2196  24677.2  156.125
 13.2616  24217.1  154.98
 13.3036  24511.9  155.886
 13.3456  24212.8  155.276
 13.3876  24664.7  156.003
 13.4296  24211.6  154.727
 13.4716  24520.8  155.335
 13.5136  24467.2  155.293
 13.5556  24472.5  155.947
 13.5976  24495.2  156.181
 13.6396  24681.4  156.126
 13.6816  24748.3  156.818
 13.7236  25058.8  157.383
 13.7656  26515.9  162.368
 13.8076  27305  163.384
 13.8496  26704.5  162.27
 13.8916  24747.2  157.333
 13.9336  24184.7  154.8
 13.9756  24284  154.495
 14.0176  23831.6  153.727
 14.0596  23957.9  154.06
 14.1016  24007.2  154.657
 14.1436  24003.5  153.773
 14.1856  23391.5  152.083
 14.2276  23360.8  152.481
 14.2696  23108  151.493
 14.3116  22712.3  150.096
 14.3536  22530.8  149.665
 14.3956  22402.2  148.97
 14.4376  22692.4  149.709
 14.4796  22458.8  148.934
 14.5216  22158.6  148.72
 14.5636  21948.1  147.583
 14.6056  22339.6  148.452
 14.6476  22195.4  147.212
 14.6896  21692.6  146.082
 14.7316  21421.8  146.2
 14.7736  21244.3  144.746
 14.8156  21198.3  144.612
 14.8576  21179.4  144.387
 14.8996  20627.8  143.701
 14.9416  20356.3  142.767
 14.9836  20252.8  142.374
 15.0256  19734.9  139.459
 15.0676  19832.2  140.114
 15.1096  19787.1  139.694
 15.1516  19347.9  138.695
 15.1936  19067.5  137.114
 15.2356  19037.6  137.28
 15.2776  19058.7  136.95
 15.3196  18729.8  136.751
 15.3616  18468.8  135.543
 15.4036  18574.6  135.804
 15.4456  18866.9  136.519
 15.4876  18319.7  134.211
 15.5296  18318.6  134.502
 15.5716  18041.9  133.078
 15.6136  17995.1  133.241
 15.6556  17810.1  131.793
 15.6976  17750.5  131.875
 15.7396  17767.5  132.297
 15.7816  17640.9  131.358
 15.8236  17399.6  131.131
 15.8656  17579.4  131.611
 15.9076  17110.2  129.657
 15.9496  17959.4  135.687
 15.9916  17777.2  135.39
 16.0336  17816.2  132.406
 16.0756  17459.2  131.374
 16.1176  17382.5  131.172
 16.1596  17124.6  131.375
 16.2016  16898.7  129.258
 16.2436  16905.4  129.668
 16.2856  16955.4  129.378
 16.3276  16788.1  129.179
 16.3696  17020.5  129.89
 16.4116  16825.7  129.593
 16.4536  17214.8  130.884
 16.4956  16919.4  129.502
 16.5376  16570  128.338
 16.5796  16577.1  127.731
 16.6216  16710.9  128.508
 16.6636  16310.6  127.144
 16.7056  16646.5  128.314
 16.7476  16672.8  127.943
 16.7896  16406.9  127.669
 16.8316  16477.9  127.919
 16.8736  16787.6  129.384
 16.9156  16401.1  128.202
 16.9576  16273.4  128.513
 16.9996  16406.8  129.499
 17.0416  16605.1  128.674
 17.0836  16250.7  127.053
 17.1256  16235  127.003
 17.1676  16307.4  127.233
 17.2096  16173.9  126.625
 17.2516  16138.3  126.266
 17.2936  16067  126.34
 17.3356  15800.3  125.274
 17.3776  15758.4  125.298
 17.4196  15707.7  124.792
 17.4616  15871.8  125.348
 17.5036  15324  123.532
 17.5456  15409.1  124.512
 17.5876  15350.1  123.321
 17.6296  15447.2  123.534
 17.6716  15331  123.652
 17.7136  15150.2  123.055
 17.7556  15125.1  123.244
 17.7976  15184  123.21
 17.8396  14994.9  121.953
 17.8816  15080.6  122.863
 17.9236  15018.7  122.399
 17.9656  14803.6  122.032
 18.0076  14849.1  121.797
 18.0496  14817.2  120.797
 18.0916  14785.6  121.22
 18.1336  14775  121.278
 18.1756  14912.9  121.393
 18.2176  14427.5  119.61
 18.2596  14707.2  120.492
 18.3016  14773.3  121.027
 18.3436  14672.5  120.615
 18.3856  14652.5  120.668
 18.4276  14522.2  119.814
 18.4696  14636.1  120.363
 18.5116  14558.8  120.319
 18.5536  14390.1  119.974
 18.5956  14378  119.495
 18.6376  14207  119.184
 18.6796  14554.2  119.933
 18.7216  14256.2  119.189
 18.7636  14355.5  119.622
 18.8056  14200.9  118.892
 18.8476  14114.3  119.149
 18.8896  14147.6  118.637
 18.9316  14254.2  119.054
 18.9736  13987.1  117.642
 19.0156  14087.5  118.487
 19.0576  14289.7  118.176
 19.0996  14167.3  118.381
 19.1416  14067.6  118.363
 19.1836  14065.5  117.951
 19.2256  13999.4  117.895
 19.2676  14000  117.978
 19.3096  13993.4  118.2
 19.3516  14035.2  118.339
 19.3936  13847.9  117.441
 19.4356  14170.2  118.683
 19.4776  14007.7  118.085
 19.5196  13863.9  117.335
 19.5616  13989.7  118.124
 19.6036  13875.6  117.129
 19.6456  13934.3  117.499
 19.6876  13983.1  117.343
 19.7296  14137.1  118.457
 19.7716  13891.5  117.596
 19.8136  14360.6  119.759
 19.8556  14376.2  119.297
 19.8976  14496.3  119.856
 19.9396  14549.1  119.66
 19.9816  14598.9  120.113
 20.0236  14665  120.568
 20.0656  14603.9  120.336
 20.1076  14428.3  120.092
 20.1496  14031.5  118.423
 20.1916  14031.8  117.945
 20.2336  13960.9  117.565
 20.2756  13670.8  116.773
 20.3176  13503.4  115.804
 20.3596  13485.8  115.71
 20.4016  13532.3  115.713
 20.4436  13362.6  115.531
 20.4856  13540.3  116.107
 20.5276  13283.2  115.453
 20.5696  13423.2  115.51
 20.6116  13329.4  115.378
 20.6536  13332.5  114.913
 20.6956  13206  114.492
 20.7376  13232.1  114.806
 20.7796  13145.7  114.138
 20.8216  13336.5  114.667
 20.8636  13219.5  114.549
 20.9056  13202.1  114.403
 20.9476  13152.2  114.041
 20.9896  13305  114.56
 21.0316  13140.9  113.744
 21.0736  13167  114.384
 21.1156  13059.5  114.072
 21.1576  13174.5  114.606
 21.1996  13121.4  114.37
 21.2416  13138.1  114.261
 21.2836  13059.2  113.899
 21.3256  13156  114.399
 21.3676  13058.9  113.509
 21.4096  12921  113.227
 21.4516  12890  112.957
 21.4936  12761.7  112.67
 21.5356  12893.8  113.193
 21.5776  13087.1  113.87
 21.6196  12811.7  112.701
 21.6616  12645.8  112.056
 21.7036  12851.6  112.734
 21.7456  12758.3  112.399
 21.7876  12849.2  112.566
 21.8296  12666.7  111.605
 21.8716  12815  112.493
 21.9136  12845.8  112.825
 21.9556  12703.9  111.874
 21.9976  12621.3  111.544
 22.0396  12526  111.373
 22.0816  12587.1  112.158
 22.1236  12737  112.294
 22.1656  12727.1  112.384
 22.2076  12329.4  110.077
 22.2496  12442.4  110.618
 22.2916  12387.6  110.25
 22.3336  12436.9  111.195
 22.3756  12228.1  109.974
 22.4176  12304.5  110.174
 22.4596  12065.9  109.666
 22.5016  12448.4  110.908
 22.5436  12458.6  110.82
 22.5856  12486.6  111.199
 22.6276  12762.2  112.559
 22.6696  12567.2  112.046
 22.7116  12431.2  110.96
 22.7536  12373.2  110.668
 22.7956  12446.1  110.338
 22.8376  12216.8  109.815
 22.8796  12268.6  109.86
 22.9216  12419.9  111.069
 22.9636  12331.5  109.841
 23.0056  12392.3  110.246
 23.0476  12505  111.316
 23.0896  12773.8  111.88
 23.1316  12605.9  111.578
 23.1736  12516.7  114.133
 23.2156  12660.5  112.137
 23.2576  12872.7  113.231
 23.2996  12596.5  111.76
 23.3416  12685.8  112.707
 23.3836  12720.6  112.075
 23.4256  12827.9  112.685
 23.4676  12700.9  111.808
 23.5096  12602.6  112.033
 23.5516  12692  111.723
 23.5936  12558.8  112.048
 23.6356  12742.9  112.525
 23.6776  12487.2  111.597
 23.7196  12618.9  111.765
 23.7616  12610.1  111.633
 23.8036  12793.8  112.518
 23.8456  12416.8  110.383
 23.8876  12475.2  111.018
 23.9296  12149.7  110.035
 23.9716  12410.8  110.415
 24.0136  12567  112.017
 24.0556  12341.3  110.722
 24.0976  12339.9  110.533
 24.1396  12169.9  112.402
 24.1816  12163.2  110.789
 24.2236  12293.2  111.02
 24.2656  12020.7  109.253
 24.3076  12178.5  110.24
 24.3496  11996.9  109.293
 24.3916  12176.8  110.164
 24.4336  12021.8  109.662
 24.4756  11940.4  109.175
 24.5176  11920.4  108.717
 24.5596  11971.1  109.054
 24.6016  11708.9  108.163
 24.6436  12070.8  109.319
 24.6856  11697.7  107.357
 24.7276  11724.5  107.807
 24.7696  11734.6  107.957
 24.8116  11609.8  107.567
 24.8536  11536.3  107.23
 24.8956  11691.4  107.681
 24.9376  11655.3  107.435
 24.9796  11439.9  106.801
 25.0216  11436.4  106.905
 25.0636  11544.8  107.063
 25.1056  11309  106.658
 25.1476  11339.1  108.414
 25.1896  11191.4  106.233
 25.2316  11262  105.825
 25.2736  11230.7  105.348
 25.3156  11269.1  105.586
 25.3576  11185.9  105.638
 25.3996  11196.4  105.674
 25.4416  11216.7  105.744
 25.4836  10984.7  105.166
 25.5256  11067  104.92
 25.5676  11176.5  105.17
 25.6096  10911.1  104.486
 25.6516  11098.8  104.885
 25.6936  11126.3  105.329
 25.7356  10970.4  104.721
 25.7776  11021.6  104.554
 25.8196  10864.2  104.049
 25.8616  10997.9  104.613
 25.9036  10936.5  103.785
 25.9456  10923.3  104.324
 25.9876  10796.1  103.774
 26.0296  11039  104.453
 26.0716  10967  104.539
 26.1136  11068.7  104.952
 26.1556  10878  103.419
 26.1976  10922.8  104.573
 26.2396  10856.2  103.405
 26.2816  10871.8  104.085
 26.3236  10905.2  104.412
 26.3656  11002  104.599
 26.4076  10944.8  104.523
 26.4496  11095.4  104.836
 26.4916  11115.9  104.82
 26.5336  11288.3  105.972
 26.5756  11553.9  107.097
 26.6176  10893.4  104.007
 26.6596  10806.9  103.9
 26.7016  10805.2  103.66
 26.7436  10878.6  104.141
 26.7856  10691.5  103.224
 26.8276  10600.6  102.752
 26.8696  10670.8  102.961
 26.9116  10765.3  103.361
 26.9536  10426.1  101.763
 26.9956  10499  102.148
 27.0376  10561.9  102.682
 27.0796  10487.8  102.053
 27.1216  10636.9  102.829
 27.1636  10384.9  101.775
 27.2056  10472.3  102.083
 27.2476  10303.8  101.242
 27.2896  10289.3  101.296
 27.3316  10419  101.642
 27.3736  10312  101.394
 27.4156  10445.8  101.887
 27.4576  10377  101.774
 27.4996  10392.3  101.46
 27.5416  10400.5  101.797
 27.5836  10251.2  100.906
 27.6256  10263  101.137
 27.6676  10278.8  101.204
 27.7096  10335  101.368
 27.7516  10248.9  101.092
 27.7936  10526  102.607
 27.8356  10361.8  101.403
 27.8776  10444.5  101.88
 27.9196  10132.4  100.205
 27.9616  10282.4  101.138
 28.0036  10064  100.013
 28.0456  10088.8  100.281
 28.0876  10069.1  100.268
 28.1296  10006.3  99.7944
 28.1716  10201.2  100.784
 28.2136  10114.9  100.318
 28.2556  10037.6  100.047
 28.2976  9849.5  99.0949
 28.3396  9996.3  99.5873
 28.3816  10156.6  100.392
 28.4236  9867.72  99.1038
 28.4656  9760.77  98.6144
 28.5076  9906.98  98.9823
 28.5496  10012.5  99.7697
 28.5916  9960.01  99.3237
 28.6336  9982.14  99.7809
 28.6756  9903.36  98.5789
 28.7176  9899  99.1169
 28.7596  9833.14  98.6784
 28.8016  9887.05  98.9905
 28.8436  9746.63  98.5173
 28.8856  9815.09  98.7185
 28.9276  9766.02  98.7134
 28.9696  9755.91  98.3216
 29.0116  9631.14  97.8599
 29.0536  9672.51  98.2897
 29.0956  9722.59  98.2357
 29.1376  9650.58  97.8582
 29.1796  9797.29  98.6517
 29.2216  9605.92  97.5206
 29.2636  9783.22  98.4955
 29.3056  9676.56  97.7379
 29.3476  9737.13  98.5638
 29.3896  9641.33  98.1883
 29.4316  9582.83  97.2182
 29.4736  9518.3  96.9455
 29.5156  9588.11  97.2363
 29.5576  9399.96  97.0094
 29.5996  9472.35  96.6435
 29.6416  9467.55  96.7435
 29.6836  9416.29  96.4027
 29.7256  9348.56  96.6132
 29.7676  9405.11  96.5625
 29.8096  9333.63  96.1459
 29.8516  9248.72  96.0279
 29.8936  9426.4  97.0432
 29.9356  9403.96  96.6862
 29.9776  9340.96  96.5136
 30.0196  9392.6  96.1783
 30.0616  9324.64  96.1946
 30.1036  9359.8  96.2115
 30.1456  9340.86  96.3285
 30.1876  9414.02  96.6956
 30.2296  9165.33  95.3485
 30.2716  9304.59  95.718
 30.3136  9317.21  96.6332
 30.3556  9504.38  97.6102
 30.3976  9352.21  98.3041
 30.4396  9690.76  97.4161
 30.4816  9557.22  96.3388
 30.5236  9659.99  96.8451
 30.5656  9460.38  96.5115
 30.6076  9598.86  96.611
 30.6496  9487.24  96.4618
 30.6916  9371.69  95.9536
 30.7336  9493.21  96.7396
 30.7756  9517.64  96.9474
 30.8176  9636.78  97.468
 30.8596  9480.4  96.4249
 30.9016  9488.64  96.8159
 30.9436  9512.38  96.6888
 30.9856  9553.41  97.0277
 31.0276  9383.16  95.7826
 31.0696  9356.16  96.2021
 31.1116  9274.73  95.7606
 31.1536  9240.54  95.4408
 31.1956  9420.19  96.4771
 31.2376  9103.69  94.8494
 31.2796  9281.43  95.3152
 31.3216  9250.59  95.0713
 31.3636  9366.49  96.3891
 31.4056  9300.2  97.3457
 31.4476  9374.37  95.6599
 31.4896  9391.48  96.253
 31.5316  9322.62  95.2964
 31.5736  9511.92  96.0917
 31.6156  9393.49  95.4989
 31.6576  9497.54  96.1037
 31.6996  9381.45  95.1913
 31.7416  9404.71  96.398
 31.7836  9392.25  95.3241
 31.8256  9370.34  95.4951
 31.8676  9282.56  95.0189
 31.9096  9272.1  95.3381
 31.9516  9008.48  94.148
 31.9936  9118.72  94.5408
 32.0356  9419.04  96.1488
 32.0776  9271.58  95.2814
 32.1196  9277.2  95.4125
 32.1616  9402.6  95.4963
 32.2036  9069.14  94.3005
 32.2456  9250.96  95.6189
 32.2876  9271.1  95.2157
 32.3296  9130.28  94.4546
 32.3716  8924.53  93.4884
 32.4136  8951.03  93.8191
 32.4556  9117.08  94.076
 32.4976  9054.46  93.6492
 32.5396  9167.08  94.2983
 32.5816  9149.27  94.3434
 32.6236  8974.84  93.4946
 32.6656  9068.8  94.5345
 32.7076  8866.34  93.1276
 32.7496  8976.89  93.385
 32.7916  9000.83  93.4623
 32.8336  8960.52  93.3533
 32.8756  9014.09  93.3461
 32.9176  8863.11  93.0381
 32.9596  8986.21  93.7561
 33.0016  8953.86  93.3718
 33.0436  9011.98  93.8197
 33.0856  8875.76  93.2256
 33.1276  8815.15  92.6442
 33.1696  9056.21  93.7228
 33.2116  9041.63  93.8881
 33.2536  8928.54  93.288
 33.2956  8910.53  93.2784
 33.3376  8934.76  93.1428
 33.3796  8909.62  93.2346
 33.4216  8835.15  92.4214
 33.4636  8942.18  93.1467
 33.5056  8724.54  92.2543
 33.5476  8889.54  93.096
 33.5896  8864.65  92.7647
 33.6316  8876.74  93.1364
 33.6736  8769.81  92.8134
 33.7156  8794.6  92.9796
 33.7576  8914.67  93.2495
 33.7996  8862.53  92.7295
 33.8416  8584.17  91.4563
 33.8836  8658.88  91.6254
 33.9256  8853.87  92.715
 33.9676  8757.52  92.1033
 34.0096  8797.23  92.6263
 34.0516  8758.79  92.0617
 34.0936  8698.01  92.0102
 34.1356  8823.73  92.4157
 34.1776  8637.88  91.4196
 34.2196  8618.21  91.5112
 34.2616  8564.64  91.3704
 34.3036  8733.06  92.5023
 34.3456  8633.95  91.7307
 34.3876  8673.7  91.9183
 34.4296  8672.97  91.6027
 34.4716  8790.36  92.3735
 34.5136  8614.45  91.6275
 34.5556  8579.99  91.707
 34.5976  8609.99  91.6797
 34.6396  8616.93  91.4263
 34.6816  8735.97  92.1694
 34.7236  8619.16  91.3122
 34.7656  8728.65  92.1116
 34.8076  8530.19  91.3907
 34.8496  8545.04  91.3127
 34.8916  8483.98  90.8583
 34.9336  8667.26  91.8095
 34.9756  8561.17  91.1689
 35.0176  8598.77  91.8985
 35.0596  8653  92.0147
 35.1016  8713.85  92.0878
 35.1436  8794.01  92.1888
 35.1856  8553.06  91.0449
 35.2276  8518.52  91.028
 35.2696  8659.4  91.9817
 35.3116  8517.58  91.3215
 35.3536  8538.76  91.1393
 35.3956  8519.2  90.7461
 35.4376  8509.01  91.2611
 35.4796  8546.01  91.4988
 35.5216  8413.9  90.7455
 35.5636  8310.54  90.9307
 35.6056  8383.29  90.333
 35.6476  8479.88  90.7713
 35.6896  8474.59  90.8347
 35.7316  8422.45  90.5302
 35.7736  8354.58  90.3403
 35.8156  8432.12  90.7706
 35.8576  8408.34  90.8906
 35.8996  8479.57  91.2301
 35.9416  8435.33  90.5244
 35.9836  8439.63  90.8734
 36.0256  8548.35  91.4722
 36.0676  8576.54  91.385
 36.1096  8527.53  91.2661
 36.1516  8638.02  91.743
 36.1936  8546.84  91.0926
 36.2356  8464.15  91.3135
 36.2776  8319.38  90.0026
 36.3196  8317.1  89.6672
 36.3616  8418.16  90.3293
 36.4036  8383.15  90.2186
 36.4456  8410.94  90.5798
 36.4876  8209.94  89.4294
 36.5296  8284.35  89.8732
 36.5716  8327  90.8822
 36.6136  8266.28  89.3237
 36.6556  8127.67  88.7592
 36.6976  8101.08  89.11
 36.7396  8094.57  88.8174
 36.7816  8187.2  89.6963
 36.8236  8162.52  89.4781
 36.8656  8073.72  89.0538
 36.9076  8048.36  88.8119
 36.9496  8054.93  88.8243
 36.9916  8116.34  88.7982
 37.0336  8082.03  88.9064
 37.0756  8055.9  88.5754
 37.1176  7906.1  88.0123
 37.1596  8085.12  89.0111
 37.2016  7903.37  88.2217
 37.2436  8061.13  88.4132
 37.2856  8108.34  88.9316
 37.3276  8173.89  88.6486
 37.3696  8006.82  88.6216
 37.4116  8029.36  88.6371
 37.4536  8015.9  88.4342
 37.4956  7986.33  88.3105
 37.5376  8161.54  90.8851
 37.5796  8093.16  90.4274
 37.6216  8080.15  88.6162
 37.6636  8119.9  88.7311
 37.7056  8217.14  89.4296
 37.7476  8204.05  88.9228
 37.7896  8043.81  88.5383
 37.8316  8101.52  89.0272
 37.8736  7996.61  87.9627
 37.9156  8157.38  88.842
 37.9576  8134.95  88.638
 37.9996  8091.79  88.1146
 38.0416  8013.41  88.484
 38.0836  8212.39  89.4783
 38.1256  8052.59  88.584
 38.1676  7985.03  88.3282
 38.2096  8098.23  88.5662
 38.2516  7997.49  88.2251
 38.2936  8155.24  88.8902
 38.3356  8205.91  89.0889
 38.3776  7847.32  87.3753
 38.4196  8031.01  88.2334
 38.4616  7988.47  88.2614
 38.5036  8141.6  88.9477
 38.5456  7972.67  88.8554
 38.5876  7956.55  88.7743
 38.6296  8030.58  88.1872
 38.6716  8011.26  87.8772
 38.7136  7999.02  87.7523
 38.7556  8061.37  88.6088
 38.7976  7967.6  88.0214
 38.8396  7939.58  88.3259
 38.8816  7945.93  88.1531
 38.9236  7896.71  87.68
 38.9656  7961.64  87.9448
 39.0076  8077.44  87.9788
 39.0496  8045.83  88.3705
 39.0916  8073.36  88.1628
 39.1336  8083.85  88.6354
 39.1756  8060.15  88.5494
 39.2176  7892.83  88.1736
 39.2596  8000.88  88.696
 39.3016  7878.75  87.6071
 39.3436  7929.61  88.2901
 39.3856  8063.17  88.4744
 39.4276  8104.66  89.2235
 39.4696  8102.69  88.8196
 39.5116  7986.16  88.7041
 39.5536  8033.69  89.3732
 39.5956  7942.46  87.9742
 39.6376  7950.16  88.0002
 39.6796  7964.62  87.8404
 39.7216  7967.68  87.9453
 39.7636  7910.35  88.1923
 39.8056  8000.97  88.4851
 39.8476  7846.85  87.8874
 39.8896  7973.2  88.2251
 39.9316  7892.35  88.0003
 39.9736  7923.43  87.7669
 40.0156  7897.27  87.4537
 40.0576  7903.79  87.8451
 40.0996  7967.23  87.3694
 40.1416  7984.93  88.2691
 40.1836  8048.27  88.5032
 40.2256  8112.61  88.8913
 40.2676  7889.93  87.77
 40.3096  7899.36  87.7531
 40.3516  8061.73  88.7655
 40.3936  7992.66  87.9274
 40.4356  7903.91  87.6555
 40.4776  8031.82  88.7624
 40.5196  8046.91  88.9702
 40.5616  8125.77  89.0526
 40.6036  7853.36  87.8037
 40.6456  7989.51  88.1518
 40.6876  7967.39  88.0306
 40.7296  7945.32  88.0424
 40.7716  8036.2  88.6608
 40.8136  7863.79  87.6569
 40.8556  7972.43  88.3937
 40.8976  7963.4  88.2677
 40.9396  8036.4  89.0236
 40.9816  7953.9  87.8532
 41.0236  7950.49  87.6108
 41.0656  8106.58  89.0194
 41.1076  7900.07  87.6422
 41.1496  7953.61  87.8505
 41.1916  7923.98  88.0098
 41.2336  7937.3  88.083
 41.2756  7916.75  87.562
 41.3176  8011.3  88.6953
 41.3596  7992.06  88.3276
 41.4016  7854.4  87.8099
 41.4436  8036.57  88.6186
 41.4856  7960.48  88.3614
 41.5276  7948.73  88.3129
 41.5696  7908.75  87.7298
 41.6116  7895.85  88.039
 41.6536  7818.34  87.4686
 41.6956  7993.39  88.5085
 41.7376  7882.11  87.9117
 41.7796  7904.44  87.9072
 41.8216  8010.59  88.7394
 41.8636  7994.22  88.5916
 41.9056  7878.78  87.7441
 41.9476  7934.14  88.2762
 41.9896  8042.47  88.5459
 42.0316  7996.88  88.3829
 42.0736  8036.61  88.7109
 42.1156  7940.41  88.01
 42.1576  7987.31  88.3765
 42.1996  7999.76  88.5679
 42.2416  7938.64  87.8207
 42.2836  7978.59  88.1642
 42.3256  7869.92  87.6561
 42.3676  8089.66  88.6866
 42.4096  7905.25  87.6382
 42.4516  7972.1  88.0976
 42.4936  7904.35  87.7771
 42.5356  7818.91  87.4463
 42.5776  7898.55  87.8325
 42.6196  7896.01  87.8768
 42.6616  7688.84  86.8834
 42.7036  7874.04  87.3037
 42.7456  7925.05  87.9382
 42.7876  7781.98  87.2366
 42.8296  7863.34  87.5284
 42.8716  7832.6  87.5221
 42.9136  7808.71  87.1745
 42.9556  7883.39  87.7263
 42.9976  7864.44  87.5911
 43.0396  7850.83  87.2391
 43.0816  7730.36  86.9493
 43.1236  7785.82  87.3007
 43.1656  7749.91  86.9341
 43.2076  7786.23  87.2457
 43.2496  7823.05  87.2764
 43.2916  7766.24  87.32
 43.3336  7901.62  87.9024
 43.3756  7831.59  87.2783
 43.4176  7591.6  86.0094
 43.4596  7828.18  87.1928
 43.5016  7789.09  87.3744
 43.5436  7722.96  86.9121
 43.5856  7697.91  86.7895
 43.6276  7762.84  87.0544
 43.6696  7663.01  86.7389
 43.7116  7813.88  87.0956
 43.7536  7842.31  87.7601
 43.7956  7678.83  88.0413
 43.8376  7651.1  86.4047
 43.8796  7563.07  85.982
 43.9216  7562.8  85.8965
 43.9636  7583.79  86.1218
 44.0056  7614.98  86.5269
 44.0476  7521.29  85.6263
 44.0896  7501.53  85.8623
 44.1316  7618.44  86.0492
 44.1736  7448.27  85.2093
 44.2156  7615.86  86.0268
 44.2576  7590.68  86.192
 44.2996  7690.79  86.7404
 44.3416  7600.86  85.9839
 44.3836  7518.71  85.852
 44.4256  7436.76  85.0201
 44.4676  7497.27  85.5268
 44.5096  7564.22  86.05
 44.5516  7497.92  85.6389
 44.5936  7404.44  85.0503
 44.6356  7715.98  86.5608
 44.6776  7491.42  85.6171
 44.7196  7514.45  86.0398
 44.7616  7533.87  87.4973
 44.8036  7514.98  85.8002
 44.8456  7759.55  87.3995
 44.8876  7711.54  86.9709
 44.9296  7704.29  86.376
 44.9716  7666.75  86.5955
 45.0136  7716.17  86.8092
 45.0556  7756.22  87.0185
 45.0976  7579.27  86.1737
 45.1396  7533.2  85.6587
 45.1816  7607.33  86.0219
 45.2236  7626.13  86.037
 45.2656  7538.47  86.0252
 45.3076  7576.69  86.0197
 45.3496  7539.4  86.1315
 45.3916  7545.73  86.4399
 45.4336  7656.97  86.9216
 45.4756  7590.89  86.3982
 45.5176  7665.8  86.44
 45.5596  7636.67  86.3946
 45.6016  7506.94  86.0776
 45.6436  7675.9  86.2069
 45.6856  7524.76  86.02
 45.7276  7416.21  86.7049
 45.7696  7541.51  87.1158
 45.8116  7551.74  86.6218
 45.8536  7409.32  85.686
 45.8956  7620.77  86.251
 45.9376  7497.73  85.0106
 45.9796  7591.04  86.2336
 46.0216  7720.75  87.3074
 46.0636  7692.49  86.2689
 46.1056  7539.34  85.4121
 46.1476  7590.26  86.296
 46.1896  7613.55  86.5751
 46.2316  7455.6  85.5395
 46.2736  7444.84  85.8583
 46.3156  7677.97  86.769
 46.3576  7608.43  86.5812
 46.3996  7511.87  86.1876
 46.4416  7629.74  86.4309
 46.4836  7395.34  85.45
 46.5256  7514.84  86.0773
 46.5676  7604.01  86.7006
 46.6096  7488.3  85.9654
 46.6516  7669.79  86.036
 46.6936  7488.51  85.5085
 46.7356  7679.07  86.6879
 46.7776  7379.81  85.823
 46.8196  7382.13  85.4335
 46.8616  7359.77  85.2379
 46.9036  7392.43  85.0953
 46.9456  7400.48  84.7679
 46.9876  7493.62  85.3883
 47.0296  7409.55  85.598
 47.0716  7303.3  84.8115
 47.1136  7494.53  85.5914
 47.1556  7399.12  84.8989
 47.1976  7505.26  85.6004
 47.2396  7448.61  85.6756
 47.2816  7411.29  85.1598
 47.3236  7399.88  85.4599
 47.3656  7531.23  86.1532
 47.4076  7412.36  85.2621
 47.4496  7373.86  85.1281
 47.4916  7355.41  85.2234
 47.5336  7564.73  86.2483
 47.5756  7449.32  85.701
 47.6176  7358.52  85.0703
 47.6596  7313.03  84.5223
 47.7016  7541.74  85.6459
 47.7436  7490.64  85.7018
 47.7856  7512.83  85.8576
 47.8276  7366.1  85.0567
 47.8696  7417.53  85.4403
 47.9116  7383.37  84.9603
 47.9536  7390.55  84.9336
 47.9956  7330.15  85.3079
 48.0376  7301.85  84.9122
 48.0796  7285.28  84.9438
 48.1216  7382.62  85.3339
 48.1636  7516.51  85.668
 48.2056  7494.76  85.8103
 48.2476  7516.65  86.2556
 48.2896  7515.84  86.1571
 48.3316  7470.83  85.8284
 48.3736  7250.72  84.5862
 48.4156  7412.91  85.3715
 48.4576  7390.95  85.5487
 48.4996  7558.63  85.9604
 48.5416  7516.06  86.049
 48.5836  7438.31  85.27
 48.6256  7442.42  85.5111
 48.6676  7493  86.3067
 48.7096  7440.64  85.27
 48.7516  7364.43  84.988
 48.7936  7298.71  84.6654
 48.8356  7381.6  85.1994
 48.8776  7368.17  85.7055
 48.9196  7458.68  85.5848
 48.9616  7380.83  85.5241
 49.0036  7379.29  85.8656
 49.0456  7367.12  85.7679
 49.0876  7421.85  85.6128
 49.1296  7247.45  84.7803
 49.1716  7221.78  84.4939
 49.2136  7498.73  86.0258
 49.2556  7445.12  85.7506
 49.2976  7388.56  85.487
 49.3396  7344.93  85.2815
 49.3816  7505.12  85.6427
 49.4236  7302.48  84.9007
 49.4656  7328.36  85.063
 49.5076  7352.47  84.9561
 49.5496  7349.68  85.0113
 49.5916  7471.09  85.618
 49.6336  7264.38  84.6317
 49.6756  7487.44  86.1674
 49.7176  7300.65  85.0204
 49.7596  7343.16  85.0266
 49.8016  7409.59  85.3283
 49.8436  7279.72  84.8848
 49.8856  7283.87  84.8993
 49.9276  7290.69  85.0518
 49.9696  7327.52  85.2483
 50.0116  7384.23  85.714
 50.0536  7276.32  85.0295
 50.0956  7211.52  84.721
 50.1376  7343.04  85.1745
 50.1796  7314.07  85.2899
 50.2216  7297.89  85.1847
 50.2636  7231.9  84.4159
 50.3056  7228.1  84.578
 50.3476  7274.93  84.8614
 50.3896  7244.95  84.6669
 50.4316  7353.71  85.123
 50.4736  7181.93  84.3492
 50.5156  7250.36  84.7339
 50.5576  7268.61  84.6038
 50.5996  7243.34  84.7437
 50.6416  7216.2  84.5127
 50.6836  7284.23  84.9763
 50.7256  7239.32  84.6315
 50.7676  7332.9  85.5157
 50.8096  7177.17  84.1194
 50.8516  7266.59  85.0622
 50.8936  7102.53  83.8702
 50.9356  7304.85  85.177
 50.9776  7186.26  84.6351
 51.0196  7112.4  84.3222
 51.0616  6989.53  82.9203
 51.1036  7130.18  84.1036
 51.1456  7153.71  84.1628
 51.1876  7046.5  82.8387
 51.2296  7139.03  84.0429
 51.2716  6984.21  82.8271
 51.3136  7089.14  83.9207
 51.3556  7101.44  83.5975
 51.3976  7040.74  83.4023
 51.4396  6872.36  82.7113
 51.4816  7109.66  83.9788
 51.5236  6995.74  83.3942
 51.5656  6960.3  82.7667
 51.6076  7045.61  83.3654
 51.6496  7042.09  83.5255
 51.6916  6980.97  83.5412
 51.7336  6943.36  83.3945
 51.7756  7031.13  83.6196
 51.8176  6898.49  82.9366
 51.8596  6970.74  83.3843
 51.9016  7136.54  83.9641
 51.9436  7101.94  85.2903
 51.9856  7208.53  86.3582
 52.0276  7101.76  84.1631
 52.0696  7120.46  84.3434
 52.1116  7057.01  84.0824
 52.1536  7171.95  84.6562
 52.1956  7007.72  83.1306
 52.2376  7185.01  84.3479
 52.2796  7080.91  83.5604
 52.3216  6982.81  83.6664
 52.3636  7142.31  84.1692
 52.4056  6997.83  83.1789
 52.4476  6993.23  83.5249
 52.4896  6929.7  83.1921
 52.5316  7041.45  83.9286
 52.5736  6871.18  82.6119
 52.6156  7012.34  83.8674
 52.6576  6939.53  82.8472
 52.6996  6731.17  82.5871
 52.7416  6850.44  83.1589
 52.7836  7024.72  84.1091
 52.8256  6948.12  82.8499
 52.8676  6833.94  82.7373
 52.9096  6923.85  83.3582
 52.9516  6947.85  83.9096
 52.9936  6908.15  84.052
 53.0356  6960.07  83.3565
 53.0776  7017.16  83.9765
 53.1196  7088.52  84.5313
 53.1616  7037.26  84.2705
 53.2036  6768.72  82.6122
 53.2456  6901.33  83.524
 53.2876  6981.67  83.696
 53.3296  6970.92  83.9641
 53.3716  7157.18  84.8205
 53.4136  6996.78  84.0152
 53.4556  6857.39  83.204
 53.4976  6892.12  83.2494
 53.5396  6931.75  83.888
 53.5816  7051.16  84.2396
 53.6236  6841.13  83.3352
 53.6656  6935.56  83.5084
 53.7076  6965.37  83.6355
 53.7496  6975.92  83.8373
 53.7916  6896.6  83.5008
 53.8336  6932.21  83.5995
 53.8756  6877.2  83.8231
 53.9176  6867.7  83.1109
 53.9596  6707.44  82.8564
 54.0016  6654.43  81.89
 54.0436  6624.31  81.9058
 54.0856  6819.01  82.5314
 54.1276  6700.8  81.9958
 54.1696  6719.38  82.262
 54.2116  6798.35  82.5179
 54.2536  6690.77  81.6628
 54.2956  6686.07  81.6941
 54.3376  6629.3  81.8293
 54.3796  6644  81.8284
 54.4216  6670.73  82.0485
 54.4636  6670.77  82.01
 54.5056  6747.33  82.2822
 54.5476  6548.93  81.3969
 54.5896  6705.21  82.2044
 54.6316  6629.67  81.568
 54.6736  6687.62  82.0354
 54.7156  6594.48  81.4771
 54.7576  6593.9  81.4387
 54.7996  6679.67  82.1178
 54.8416  6658.14  82.0614
 54.8836  6597.41  81.7708
 54.9256  6537.49  81.1602
 54.9676  6521.09  80.9074
 55.0096  6557.64  81.1833
 55.0516  6470.34  80.8787
 55.0936  6534.5  80.9443
 55.1356  6514.16  80.8621
 55.1776  6681.52  82.136
 55.2196  6530.04  80.9731
 55.2616  6656.75  81.9955
 55.3036  6441.22  80.8278
 55.3456  6458.87  81.0723
 55.3876  6537.77  81.2853
 55.4296  6458.57  80.7955
 55.4716  6468.77  80.9088
 55.5136  6490.47  80.7917
 55.5556  6674.59  81.9811
 55.5976  6469.58  80.7859
 55.6396  6626.59  81.7126
 55.6816  6462.91  80.5616
 55.7236  6393.44  80.1588
 55.7656  6613.22  81.2587
 55.8076  6459.48  80.3232
 55.8496  6406.15  80.3169
 55.8916  6397.17  80.4586
 55.9336  6562.65  81.3201
 55.9756  6408.09  80.2318
 56.0176  6337.12  79.9338
 56.0596  6472.81  80.7851
 56.1016  6275.21  79.5556
 56.1436  6401.06  80.6062
 56.1856  6245.79  79.3685
 56.2276  6563.35  81.4299
 56.2696  6414.39  80.4518
 56.3116  6496.36  81.3611
 56.3536  6444.35  80.6973
 56.3956  6451.9  80.7125
 56.4376  6373.06  80.2684
 56.4796  6222.46  79.1257
 56.5216  6379.22  80.5116
 56.5636  6261.54  79.3305
 56.6056  6524.49  81.2097
 56.6476  6375.15  79.8995
 56.6896  6495.53  81.1222
 56.7316  6340.02  80.0465
 56.7736  6313.41  79.8815
 56.8156  6342.79  80.0856
 56.8576  6203.24  79.1352
 56.8996  6324.63  79.814
 56.9416  6372.52  80.4448
 56.9836  6302.65  79.5258
 57.0256  6266.18  79.5897
 57.0676  6366.81  80.3606
 57.1096  6330.58  79.915
 57.1516  6256.94  79.4992
 57.1936  6327.82  79.6975
 57.2356  6149.49  78.8822
 57.2776  6322.51  79.9664
 57.3196  6268.36  79.9811
 57.3616  6258.63  79.4048
 57.4036  6276.52  79.576
 57.4456  6400.49  80.3472
 57.4876  6251.96  79.2655
 57.5296  6246.78  79.554
 57.5716  6236.23  79.4982
 57.6136  6173.31  78.9288
 57.6556  6259.85  79.6109
 57.6976  6225.45  79.2298
 57.7396  6140.14  79.0185
 57.7816  6088.41  79.0602
 57.8236  6182.87  79.4649
 57.8656  6269.67  79.6789
 57.9076  6293.01  79.8358
 57.9496  6223.87  79.7663
 57.9916  6275.63  79.6096
 58.0336  6218.68  79.521
 58.0756  6288.25  79.6033
 58.1176  6187.63  78.9538
 58.1596  6166.9  79.4119
 58.2016  5986.14  77.4524
 58.2436  6049.8  78.2708
 58.2856  5960.17  77.6132
 58.3276  6038.37  78.4902
 58.3696  5923.55  77.5099
 58.4116  6010.57  77.935
 58.4536  6005.54  77.793
 58.4956  5896.2  77.2556
 58.5376  6050.73  77.8294
 58.5796  5897.38  77.2511
 58.6216  5974.84  77.5847
 58.6636  6001.66  77.9594
 58.7056  5984.27  77.7104
 58.7476  5985.72  78.1621
 58.7896  5897.35  77.2327
 58.8316  5940.94  77.52
 58.8736  5982.58  77.797
 58.9156  5886.84  77.2172
 58.9576  5900.81  77.6126
 58.9996  5990.85  77.471
 59.0416  6100.92  78.5301
 59.0836  6083.86  78.3404
 59.1256  5901.83  77.8574
 59.1676  5849.19  77.8191
 59.2096  5891.21  77.3912
 59.2516  6054.96  78.0401
 59.2936  6097.85  78.6455
 59.3356  5875.98  77.0809
 59.3776  5989.3  77.9889
 59.4196  5901.45  77.3521
 59.4616  5837.76  76.7954
 59.5036  5792.9  76.5344
 59.5456  5921.3  77.0744
 59.5876  5935.93  77.359
 59.6296  5872.02  77.0096
 59.6716  5875.17  77.0874
 59.7136  5946.06  77.5395
 59.7556  5965.7  77.803
 59.7976  5965.56  77.5459
 59.8396  5903.28  77.0356
 59.8816  5906.63  77.5967
 59.9236  5866.84  76.9837
 59.9656  5956.99  77.8319
 60.0076  5916.64  76.9318
 60.0496  5907.14  77.3681
 60.0916  6114.58  78.1296
 60.1336  5891.39  77.7838
 60.1756  5912.6  79.095
 60.1996  0.0000000E+00  0.0000000E+00