File: docs/examples/opeando_xrd/IS17_D/Data/IS17_D/17_Da_f00149.xye
# /beamlines/bl04/projects/cycle2025-II/20250340211-lsimonelli/DATA/IS17_D/17_Da_f00149.xye : mythproc.py merge -s 0.006 -l 0.5 -f /beamlines/bl04/inhouse/ff/FlatField/ff_20Nov2024rod8mm60s_17keV.raw -b True -c true -o xye /beamlines/bl04/projects/cycle2025-II/20250340211-lsimonelli/DATA/IS17_D/17_Da_00149.dat
# IsMon = [6763656, 6773769, 6766836]  IsPos = [-1.4999, -2.4883, -3.4988]
# Wave = 0.4962  CalPath /beamlines/bl04/projects/cycle2025-II/20250340211-lsimonelli/DATA/Align/Si_Pos1_25keV_f00001.cal
# Date = 2025-09-25_11:05:08 Dt = 4.8000  Bin = 0.0060  <imon> = 6768087 +/- 4222 (Min/Max) 6763656 / 6773769
# icurr 251.3966  mocoIn 1.7152E-05  mocoOut 0.8042  i15 7.0872e+06  imon 6.76809e+06  i7 6.6667  iEMpd_timer 4.8000  iEMpd_1 3.3476E-08  iEMpd_2 7.8035E-08  iEMpd_3 1.7234E-08  iEMpd_4 4.7312E-08  iEMhp_timer 4.8000  iEMhp_1 4.9111E-06  iEMhp_2 -2.5454E-08  iEMhp_3 -2.3702E-08  iEMhp_4 -2.0222E-08
#      9776
 1.5856  41073.8  208.175
 1.6276  48309.2  221.893
 1.6696  55015.6  235.959
 1.7116  63139.9  253.276
 1.7536  72414.8  270.086
 1.7956  76751  278.75
 1.8376  73456.1  273.133
 1.8796  61970.2  249.022
 1.9216  49856.1  224.254
 1.9636  42058.6  205.128
 2.0056  37981.3  194.176
 2.0476  35477.4  189.724
 2.0896  33710.3  183.854
 2.1316  32965  180.936
 2.1736  31055.7  177.011
 2.2156  31574.4  177.051
 2.2576  30365.9  174.249
 2.2996  29330  171.883
 2.3416  29784.8  171.828
 2.3836  29141.7  170.067
 2.4256  28261  168.024
 2.4676  27626.7  165.892
 2.5096  27672.9  166.085
 2.5516  26779.5  167.113
 2.5936  26960.1  164.282
 2.6356  26289.4  162.91
 2.6776  26232.1  161.627
 2.7196  25965.8  160.956
 2.7616  25857.9  160.764
 2.8036  25492.3  159.793
 2.8456  25628.3  160.835
 2.8876  25048.6  158.863
 2.9296  24608.8  157.604
 2.9716  24179.3  155.723
 3.0136  24274.4  156.095
 3.0556  24202.3  156.258
 3.0976  24052.7  154.733
 3.1396  23682  154.228
 3.1816  23573.5  153.537
 3.2236  23587.7  153.842
 3.2656  23684.6  153.188
 3.3076  23373.4  153.643
 3.3496  23728.6  153.728
 3.3916  24087.6  154.732
 3.4336  24464.8  156.516
 3.4756  24680.5  157.148
 3.5176  25680.5  160.078
 3.5596  25599  162.281
 3.6016  25794.5  160.496
 3.6436  25014.4  159.136
 3.6856  24451.2  155.657
 3.7276  23579.9  153.926
 3.7696  23612.4  154.246
 3.8116  23194  152.755
 3.8536  23045.5  152.211
 3.8956  23104.9  152.22
 3.9376  22962  152.001
 3.9796  22863.2  151.182
 4.0216  23124.5  151.06
 4.0636  23056.2  152.328
 4.1056  23004.3  151.784
 4.1476  23261.4  152.978
 4.1896  23575.1  153.852
 4.2316  23513.3  153.491
 4.2736  23965.1  154.73
 4.3156  24286.6  155.999
 4.3576  25001.9  158.199
 4.3996  25378.4  159.629
 4.4416  25606.5  159.948
 4.4836  26133.2  161.72
 4.5256  26672.5  164.023
 4.5676  26576.7  163.973
 4.6096  26935.3  163.74
 4.6516  27577.3  165.375
 4.6936  27608.2  166.289
 4.7356  27864.8  166.885
 4.7776  27819.3  166.57
 4.8196  27566.1  166.488
 4.8616  26928.2  163.999
 4.9036  26682.7  163.028
 4.9456  26542.7  163.226
 4.9876  26071.1  161.678
 5.0296  26471.5  162.721
 5.0716  26311.3  163.024
 5.1136  26409.9  163.028
 5.1556  26951.8  164.141
 5.1976  27113.8  164.655
 5.2396  27401.9  165.212
 5.2816  27158.7  164.944
 5.3236  27457.5  165.546
 5.3656  27084.8  165.345
 5.4076  26749.4  164.471
 5.4496  26885.1  164.359
 5.4916  26891.2  164.142
 5.5336  26985.3  164.427
 5.5756  26848.6  164.061
 5.6176  27128.1  164.328
 5.6596  27176.3  165.466
 5.7016  27558.7  165.878
 5.7436  27770.4  166.782
 5.7856  27579.5  166.279
 5.8276  28099.4  167.543
 5.8696  28269.9  168.234
 5.9116  28184.7  168.267
 5.9536  28275.4  168.623
 5.9956  28596.4  168.932
 6.0376  28670.3  169.788
 6.0796  28766.5  169.9
 6.1216  28892.8  170.528
 6.1636  29144  170.268
 6.2056  29145.7  170.938
 6.2476  29151.2  170.837
 6.2896  29399.1  171.238
 6.3316  29334.4  171.238
 6.3736  29452.7  171.463
 6.4156  29362.8  171.11
 6.4576  29496  171.091
 6.4996  29895.9  172.722
 6.5416  29641.2  172.131
 6.5836  29779.7  172.756
 6.6256  29852.6  172.535
 6.6676  30259.7  173.274
 6.7096  30113.1  173.722
 6.7516  30598.1  174.751
 6.7936  30692.3  174.465
 6.8356  30787.1  174.797
 6.8776  31210.9  176.793
 6.9196  31106.7  176.91
 6.9616  31665.1  177.91
 7.0036  32228.4  179.156
 7.0456  32046.7  177.942
 7.0876  32132.7  179.882
 7.1296  32226.4  179.275
 7.1716  32140.2  178.581
 7.2136  31906.8  177.7
 7.2556  32032.8  178.211
 7.2976  32107.3  178.919
 7.3396  31864.5  178.438
 7.3816  31964.3  178.951
 7.4236  32260.8  179.064
 7.4656  32516  179.253
 7.5076  32595.9  179.608
 7.5496  32483.2  179.844
 7.5916  32513.4  179.954
 7.6336  32894.5  180.901
 7.6756  33213.3  181.626
 7.7176  33394.1  182.428
 7.7596  33348.4  183.561
 7.8016  33509.2  186.21
 7.8436  34199.2  184.716
 7.8856  34375.7  184.809
 7.9276  35179.3  187.367
 7.9696  35394.8  188.24
 8.0116  36148.2  188.755
 8.0536  36662.9  190.354
 8.0956  36063.1  189.951
 8.1376  36941.9  191.739
 8.1796  36772  191.827
 8.2216  37560  192.616
 8.2636  38057.4  194.149
 8.3056  37722.6  194.079
 8.3476  38594.4  195.609
 8.3896  38445.4  195.314
 8.4316  38579.8  195.819
 8.4736  38550.6  195.209
 8.5156  38061.9  194.244
 8.5576  37794.4  195.173
 8.5996  37929.2  193.747
 8.6416  37806.8  194.69
 8.6836  37821.8  194.595
 8.7256  38182.3  194.918
 8.7676  37492  196.121
 8.8096  37276.7  192.875
 8.8516  37104.2  192.056
 8.8936  36901  191.418
 8.9356  36700.6  191.25
 8.9776  37237.5  192.734
 9.0196  36727.4  191.095
 9.0616  37020.4  191.296
 9.1036  36618.3  191.471
 9.1456  36768.2  191.201
 9.1876  36586.2  190.68
 9.2296  36857.3  190.776
 9.2716  36404.3  189.671
 9.3136  36140.6  188.971
 9.3556  36390.5  189.608
 9.3976  34966.8  186.396
 9.4396  35467.6  187.605
 9.4816  34804.4  185.717
 9.5236  35035.1  186.236
 9.5656  34911  186.207
 9.6076  34647.3  186.056
 9.6496  34288.2  185.019
 9.6916  34615.1  185.866
 9.7336  34386.1  185.031
 9.7756  34652.2  186.983
 9.8176  33757.3  184.034
 9.8596  33482  181.721
 9.9016  33219.7  181.001
 9.9436  32857.2  179.919
 9.9856  32636.1  179.539
 10.0276  32371.1  179.877
 10.0696  32706.6  179.884
 10.1116  31606.5  177.098
 10.1536  31506.8  176.986
 10.1956  31003.6  175.165
 10.2376  30730.5  173.916
 10.2796  30839.8  174.331
 10.3216  30526.1  173.713
 10.3636  30433.3  173.479
 10.4056  30277.8  173.416
 10.4476  30175.8  172.767
 10.4896  30421.3  173.04
 10.5316  29651.1  171.421
 10.5736  29521.1  171.461
 10.6156  29193.2  170.293
 10.6576  29319.1  169.192
 10.6996  28940.4  168.754
 10.7416  28655.8  168.179
 10.7836  28925.4  169.656
 10.8256  28409.1  168.588
 10.8676  28737.6  169.067
 10.9096  28204.9  167.566
 10.9516  27874.6  165.49
 10.9936  27949.4  165.926
 11.0356  27889.1  166.375
 11.0776  27737  165.221
 11.1196  27125.4  164.138
 11.1616  27149.4  163.882
 11.2036  27307.6  164.231
 11.2456  27165.5  164.495
 11.2876  27072.1  163.973
 11.3296  26810.6  163.069
 11.3716  27240.6  164.068
 11.4136  27150  164.7
 11.4556  27394.1  165.097
 11.4976  27821  165.321
 11.5396  27833  165.508
 11.5816  27389.2  164.674
 11.6236  26893.1  163.376
 11.6656  26561  161.54
 11.7076  26049.5  160.812
 11.7496  25814.4  164.056
 11.7916  25779.7  159.238
 11.8336  25645  159.715
 11.8756  25418.3  158.537
 11.9176  25455.4  158.294
 11.9596  25034.1  157.19
 12.0016  25044.6  157.709
 12.0436  24937.9  157.103
 12.0856  24826  157.272
 12.1276  24872.1  157.332
 12.1696  24690.5  155.881
 12.2116  24959.3  156.714
 12.2536  24498.8  156.104
 12.2956  24636.2  155.869
 12.3376  24485.9  155.623
 12.3796  24554  156.282
 12.4216  24530.1  155.426
 12.4636  24215  155.351
 12.5056  24480.7  155.465
 12.5476  24589.8  155.33
 12.5896  24548.2  155.827
 12.6316  24331.5  155.318
 12.6736  24208.4  155.571
 12.7156  24141.1  155.056
 12.7576  24267.1  155.688
 12.7996  24759.9  155.892
 12.8416  24370  155.722
 12.8836  24712.1  156.552
 12.9256  24934.3  156.347
 12.9676  25016.1  157.02
 13.0096  24731.2  157.255
 13.0516  24996.6  157.104
 13.0936  24874  157.141
 13.1356  25290.5  157.407
 13.1776  24982.9  157.445
 13.2196  25139.6  157.592
 13.2616  24967.4  157.35
 13.3036  24954.3  157.292
 13.3456  25010.5  157.82
 13.3876  24885.3  156.733
 13.4296  24886.8  156.878
 13.4716  25049.1  156.991
 13.5136  24937.7  156.795
 13.5556  25198.2  158.239
 13.5976  24977.4  157.685
 13.6396  25182  157.684
 13.6816  24825  157.068
 13.7236  25489.7  158.798
 13.7656  24684.7  156.817
 13.8076  25159.2  157.076
 13.8496  24671.7  156.159
 13.8916  24708.7  157.279
 13.9336  24663.6  156.343
 13.9756  24567.7  155.397
 14.0176  24586.6  156.14
 14.0596  24289.1  155.164
 14.1016  24185.3  155.228
 14.1436  23943.2  153.587
 14.1856  23834.5  153.526
 14.2276  23389.6  152.577
 14.2696  23605.4  153.117
 14.3116  23388.5  152.297
 14.3536  22814.8  150.608
 14.3956  23005.4  150.946
 14.4376  23171.6  151.281
 14.4796  22950  150.552
 14.5216  22633.7  150.312
 14.5636  22398.6  149.088
 14.6056  22679.5  149.609
 14.6476  22698.4  148.882
 14.6896  22180.6  147.72
 14.7316  21782.4  147.424
 14.7736  21804.2  146.619
 14.8156  21500.8  145.647
 14.8576  21505.8  145.513
 14.8996  21080  145.277
 14.9416  20862.3  144.525
 14.9836  20905.6  144.627
 15.0256  20738  142.948
 15.0676  20779.6  143.56
 15.1096  20581.9  142.463
 15.1516  20171  141.588
 15.1936  20014.5  140.471
 15.2356  20100.2  140.916
 15.2776  19827.6  139.675
 15.3196  19475  139.437
 15.3616  19613.2  139.694
 15.4036  19162.7  137.919
 15.4456  19769.1  139.738
 15.4876  19410.2  138.139
 15.5296  19015.6  136.999
 15.5716  18895.9  136.181
 15.6136  18864  136.371
 15.6556  18763.3  135.266
 15.6976  18544.1  134.755
 15.7396  18598.2  135.363
 15.7816  18509  134.533
 15.8236  18240.8  134.276
 15.8656  18310.2  134.309
 15.9076  17994.4  132.972
 15.9496  17902  135.467
 15.9916  18027.4  136.37
 16.0336  17710.8  132.07
 16.0756  17803.1  132.716
 16.1176  17556.3  131.873
 16.1596  17317  132.153
 16.2016  17447  131.372
 16.2436  17154.1  130.665
 16.2856  17032.2  129.74
 16.3276  16854.7  129.48
 16.3696  17138.2  130.378
 16.4116  16829.5  129.669
 16.4536  17260.6  131.095
 16.4956  16801.2  129.086
 16.5376  16840.9  129.424
 16.5796  16736  128.369
 16.6216  16795  128.904
 16.6636  16798.9  129.071
 16.7056  16720.7  128.644
 16.7476  16894.3  128.828
 16.7896  16756.6  129.058
 16.8316  16691.7  128.771
 16.8736  16673.3  128.969
 16.9156  16866.2  130.052
 16.9576  16559.5  129.642
 16.9996  16539.4  130.054
 17.0416  16614.1  128.663
 17.0836  16594.9  128.355
 17.1256  16204.8  126.853
 17.1676  16379  127.53
 17.2096  16042.3  126.087
 17.2516  16010  125.741
 17.2936  16052.7  126.234
 17.3356  15651.2  124.664
 17.3776  15492.2  124.2
 17.4196  15792.4  125.084
 17.4616  15732  124.776
 17.5036  15578.7  124.521
 17.5456  15546.3  125.053
 17.5876  15327.7  123.212
 17.6296  15459.1  123.556
 17.6716  15393.2  123.866
 17.7136  15330.7  123.778
 17.7556  15385.3  124.278
 17.7976  15035  122.597
 17.8396  14940.7  121.709
 17.8816  15190.8  123.261
 17.9236  15165  122.977
 17.9656  15207.1  123.688
 18.0076  15324.2  123.757
 18.0496  15239.5  122.527
 18.0916  15159.8  122.762
 18.1336  15154.2  122.827
 18.1756  15263.7  122.784
 18.2176  14962.1  121.797
 18.2596  15043.3  121.851
 18.3016  15097.3  122.329
 18.3436  15112.7  122.394
 18.3856  14869.6  121.566
 18.4276  15002.1  121.766
 18.4696  14972.4  121.75
 18.5116  15045.1  122.332
 18.5536  15029  122.636
 18.5956  14779  121.154
 18.6376  14594  120.792
 18.6796  14692.6  120.524
 18.7216  14766.6  121.308
 18.7636  14609.4  120.663
 18.8056  14567.4  120.43
 18.8476  14421.7  120.46
 18.8896  14518.5  120.186
 18.9316  14615.1  120.576
 18.9736  14631.2  120.326
 19.0156  14466.8  120.049
 19.0576  14435.6  118.794
 19.0996  14661.4  120.559
 19.1416  14308.4  119.38
 19.1836  14460.9  119.599
 19.2256  14308.7  119.186
 19.2676  14532.5  120.21
 19.3096  14443.4  120.079
 19.3516  14380.9  119.786
 19.3936  14323.6  119.434
 19.4356  14359.1  119.473
 19.4776  14359.5  119.562
 19.5196  14332.3  119.295
 19.5616  14299.4  119.417
 19.6036  14315.5  118.983
 19.6456  14204.9  118.641
 19.6876  14393.3  119.062
 19.7296  14333.3  119.286
 19.7716  14333.5  119.428
 19.8136  14468.9  120.229
 19.8556  14655.2  120.456
 19.8976  14514.2  119.945
 19.9396  14702.8  120.292
 19.9816  14861.4  121.252
 20.0236  15006.8  121.998
 20.0656  14991.8  121.927
 20.1076  14672.9  121.103
 20.1496  14360.4  119.812
 20.1916  14189.2  118.612
 20.2336  14105.5  118.189
 20.2756  13902.7  117.768
 20.3176  13702.7  116.665
 20.3596  13874.5  117.359
 20.4016  14073.9  118.012
 20.4436  13867.8  117.699
 20.4856  13664.4  116.642
 20.5276  13646.3  117.009
 20.5696  13694.8  116.688
 20.6116  13627.2  116.666
 20.6536  13583  115.986
 20.6956  13724.8  116.708
 20.7376  13551.2  116.196
 20.7796  13530.6  115.8
 20.8216  13545.3  115.567
 20.8636  13406.3  115.355
 20.9056  13355.8  115.075
 20.9476  13263.8  114.527
 20.9896  13667.9  116.115
 21.0316  13545.9  115.487
 21.0736  13298  114.952
 21.1156  13409.2  115.587
 21.1576  13473.5  115.919
 21.1996  13405.2  115.604
 21.2416  13290.5  114.944
 21.2836  13252.2  114.731
 21.3256  13161.9  114.434
 21.3676  13296.5  114.556
 21.4096  13429.2  115.437
 21.4516  12993.9  113.43
 21.4936  13006.3  113.729
 21.5356  13179.8  114.438
 21.5776  13170.6  114.236
 21.6196  13089.7  113.923
 21.6616  13068.4  113.913
 21.7036  13001.1  113.41
 21.7456  13127.2  114.026
 21.7876  12957.1  113.038
 21.8296  13007.5  113.107
 21.8716  12940.9  113.046
 21.9136  13314.5  114.875
 21.9556  12938.5  112.911
 21.9976  12954.5  112.995
 22.0396  13052  113.684
 22.0816  12975.8  113.894
 22.1236  13022  113.546
 22.1656  12989.1  113.523
 22.2076  13097  113.448
 22.2496  12878.2  112.512
 22.2916  12944.2  112.688
 22.3336  12939.8  113.392
 22.3756  12991.7  113.351
 22.4176  12860.8  112.631
 22.4596  12845.6  113.17
 22.5016  12861.2  112.71
 22.5436  12937.6  112.942
 22.5856  13037.6  113.619
 22.6276  12943.3  113.382
 22.6696  12900.6  113.51
 22.7116  12869.5  112.875
 22.7536  13006.6  113.46
 22.7956  12971.6  112.616
 22.8376  12844.4  112.613
 22.8796  12913.9  112.705
 22.9216  13031.7  113.782
 22.9636  12979.1  112.684
 23.0056  12977.2  112.813
 23.0476  13086.2  113.866
 23.0896  13310.9  114.201
 23.1316  12944.3  113.058
 23.1736  12725  114.864
 23.2156  12957.5  113.477
 23.2576  12819.8  113.016
 23.2996  12954.4  113.387
 23.3416  12764.6  113.079
 23.3836  12906.5  112.932
 23.4256  12838.1  112.747
 23.4676  12865.9  112.563
 23.5096  12833.6  113.104
 23.5516  12864.9  112.517
 23.5936  12826.4  113.258
 23.6356  12868.6  113.097
 23.6776  12816  113.092
 23.7196  12588.9  111.653
 23.7616  12774.3  112.394
 23.8036  12914.1  113.055
 23.8456  12689.9  111.631
 23.8876  12494.1  111.124
 23.9296  12561.1  111.909
 23.9716  12474.5  110.718
 24.0136  12657  112.442
 24.0556  12443.6  111.215
 24.0976  12437.4  110.994
 24.1396  12346.1  113.248
 24.1816  12365.7  111.738
 24.2236  12150.7  110.357
 24.2656  12108.2  109.636
 24.3076  12277.4  110.657
 24.3496  12238.7  110.356
 24.3916  12131.2  109.93
 24.4336  12071.3  109.869
 24.4756  12093.9  109.842
 24.5176  11835.3  108.309
 24.5596  11912.9  108.792
 24.6016  11868.1  108.875
 24.6436  11844  108.255
 24.6856  11801.9  107.815
 24.7276  11918.8  108.655
 24.7696  11772.1  108.117
 24.8116  11688.9  107.908
 24.8536  11841.3  108.611
 24.8956  11566.3  107.081
 24.9376  11628.1  107.305
 24.9796  11507.9  107.105
 25.0216  11361.6  106.543
 25.0636  11645.9  107.499
 25.1056  11258.3  106.404
 25.1476  11547.4  109.465
 25.1896  11572.6  108.02
 25.2316  11467.5  106.807
 25.2736  11317  105.742
 25.3156  11444.8  106.434
 25.3576  11276.7  106.067
 25.3996  11465.7  106.938
 25.4416  11197.1  105.656
 25.4836  11211.8  106.248
 25.5256  11322.5  106.131
 25.5676  11232  105.424
 25.6096  11039.5  105.1
 25.6516  11318.7  105.904
 25.6936  11273.1  106.025
 25.7356  11270.3  106.141
 25.7776  11297.1  105.875
 25.8196  11201.3  105.656
 25.8616  11224.7  105.691
 25.9036  11300.3  105.503
 25.9456  11135.9  105.324
 25.9876  11207.4  105.737
 26.0296  11329.3  105.803
 26.0716  11139.4  105.351
 26.1136  11169.8  105.434
 26.1556  11238.4  105.134
 26.1976  11154.3  105.671
 26.2396  11121  104.666
 26.2816  11185.2  105.586
 26.3236  11116.3  105.408
 26.3656  11096.2  105.05
 26.4076  11166.9  105.55
 26.4496  11711.2  107.61
 26.4916  11245.2  105.454
 26.5336  11088.5  105.038
 26.5756  11654.3  107.483
 26.6176  11014.6  104.573
 26.6596  10944.8  104.573
 26.7016  10916.8  104.189
 26.7436  10816.8  103.862
 26.7856  10767.3  103.598
 26.8276  10825.5  103.832
 26.8696  10861.9  103.879
 26.9116  10761.4  103.341
 26.9536  10694.2  103.064
 26.9956  10720.1  103.213
 27.0376  10666.7  103.185
 27.0796  10800.1  103.543
 27.1216  10587.2  102.609
 27.1636  10585  102.756
 27.2056  10614  102.781
 27.2476  10494  102.201
 27.2896  10653.7  103.114
 27.3316  10550.3  102.293
 27.3736  10583  102.713
 27.4156  10408.7  101.719
 27.4576  10478.2  102.286
 27.4996  10469.1  101.838
 27.5416  10667  103.114
 27.5836  10520.6  102.221
 27.6256  10799.5  103.723
 27.6676  10711.1  103.325
 27.7096  10460.4  101.979
 27.7516  10378.3  101.726
 27.7936  10442.4  102.225
 27.8356  10460  101.913
 27.8776  10309.7  101.237
 27.9196  10276.6  100.913
 27.9616  10320.6  101.32
 28.0036  10416.9  101.759
 28.0456  10263.4  101.135
 28.0876  10223.3  101.04
 28.1296  10297  101.168
 28.1716  10199.7  100.778
 28.2136  10390.1  101.668
 28.2556  10160.1  100.663
 28.2976  10139.2  100.537
 28.3396  10258.8  100.901
 28.3816  10107.7  100.166
 28.4236  10197.9  100.765
 28.4656  10123.8  100.437
 28.5076  10176.9  100.326
 28.5496  10082.6  100.132
 28.5916  10086.4  99.9564
 28.6336  10040.7  100.077
 28.6756  10065.2  99.3929
 28.7176  10027.8  99.6526
 28.7596  9984.41  99.4394
 28.8016  10155.4  100.313
 28.8436  9858.39  99.0852
 28.8856  9999.22  99.6791
 28.9276  10029.8  100.043
 28.9696  9933.48  99.2184
 29.0116  9974.89  99.6124
 29.0536  9790.25  98.8885
 29.0956  9801.41  98.6637
 29.1376  9944.99  99.3429
 29.1796  9850.19  98.9114
 29.2216  9907  99.038
 29.2636  9940.4  99.279
 29.3056  9922.29  98.9771
 29.3476  9917.82  99.4852
 29.3896  9976.59  99.8753
 29.4316  10183.2  100.216
 29.4736  10001.4  99.3905
 29.5156  9938  98.9797
 29.5576  9956.42  99.8207
 29.5996  9886.86  98.7299
 29.6416  9881.18  98.8092
 29.6836  9742.74  98.051
 29.7256  9777.46  98.5535
 29.7676  9804.6  98.6007
 29.8096  9793.84  98.4791
 29.8516  9700.39  98.3506
 29.8936  9806.19  98.9731
 29.9356  9880.46  99.0988
 29.9776  9759.27  98.6424
 30.0196  9525.37  97.1092
 30.0616  9824.25  98.7298
 30.1036  9757.78  98.2125
 30.1456  9717.72  98.2623
 30.1876  9631.97  97.7861
 30.2296  9762.42  98.4134
 30.2716  9755.46  98.0048
 30.3136  9858.71  99.3958
 30.3556  9815.47  99.2036
 30.3976  9663.99  99.982
 30.4396  9702.93  97.5084
 30.4816  9764.14  97.4001
 30.5236  9531.06  96.2594
 30.5656  9762.08  98.074
 30.6076  9697.93  97.1784
 30.6496  9661.39  97.3821
 30.6916  9584.71  97.0855
 30.7336  9613.89  97.3891
 30.7756  9539.13  97.1028
 30.8176  9639.74  97.5276
 30.8596  9704.29  97.6185
 30.9016  9671.19  97.7986
 30.9436  9632.9  97.3566
 30.9856  9635.04  97.4802
 31.0276  9515.24  96.4709
 31.0696  9389.47  96.41
 31.1116  9345.41  96.1594
 31.1536  9482.33  96.7432
 31.1956  9408.95  96.4558
 31.2376  9437.98  96.6136
 31.2796  9530.11  96.6169
 31.3216  9521.41  96.5182
 31.3636  9442.67  96.789
 31.4056  9503.77  98.4375
 31.4476  9418.2  95.8599
 31.4896  9338.49  95.9583
 31.5316  9474.75  96.0428
 31.5736  9407.76  95.5275
 31.6156  9378.48  95.4007
 31.6576  9489.19  96.0588
 31.6996  9471.94  95.6343
 31.7416  9268.23  95.6689
 31.7836  9350.41  95.105
 31.8256  9296.72  95.1154
 31.8676  9464.31  95.9486
 31.9096  9290.21  95.4228
 31.9516  9186.82  95.0526
 31.9936  9268.82  95.2838
 32.0356  9287.33  95.46
 32.0776  9272.54  95.2684
 32.1196  9322  95.614
 32.1616  9275.81  94.8282
 32.2036  9230.93  95.1284
 32.2456  9182.77  95.2514
 32.2876  9335.52  95.5311
 32.3296  9180.75  94.7
 32.3716  9158.5  94.6857
 32.4136  9205.16  95.1561
 32.4556  9288.28  94.9384
 32.4976  9232.46  94.5686
 32.5396  9181.61  94.3866
 32.5816  9121.86  94.2031
 32.6236  9249.09  94.9261
 32.6656  9365.94  96.0695
 32.7076  9183.07  94.7787
 32.7496  9126.37  94.1442
 32.7916  9168.83  94.3315
 32.8336  9291.54  95.045
 32.8756  9295.95  94.8064
 32.9176  9147.19  94.5147
 32.9596  9134.28  94.5378
 33.0016  9125.57  94.2816
 33.0436  9274.28  95.2201
 33.0856  9054.21  94.1518
 33.1276  9016.24  93.6791
 33.1696  9184.85  94.3955
 33.2116  9199.2  94.6954
 33.2536  9064.56  94.0168
 33.2956  9052.21  94.0302
 33.3376  9048.79  93.7569
 33.3796  9058.65  94.008
 33.4216  9211.11  94.3856
 33.4636  9156.79  94.255
 33.5056  9038.26  93.8839
 33.5476  8931.28  93.3305
 33.5896  9133.56  94.1385
 33.6316  8949.83  93.5177
 33.6736  8885.84  93.4134
 33.7156  8910.08  93.5923
 33.7576  8972.13  93.5341
 33.7996  9140.7  94.1736
 33.8416  8808.19  92.6357
 33.8836  9016.44  93.4895
 33.9256  8993.73  93.4484
 33.9676  8989.26  93.3033
 34.0096  8832.71  92.8197
 34.0516  8848.28  92.5324
 34.0936  8828.26  92.6896
 34.1356  8781.44  92.1911
 34.1776  8846.91  92.5393
 34.2196  8861.29  92.7991
 34.2616  8772.52  92.4571
 34.3036  8743.47  92.5741
 34.3456  8729.67  92.2472
 34.3876  8746.93  92.3107
 34.4296  8756.63  92.0412
 34.4716  8831.96  92.5787
 34.5136  8840.8  92.8409
 34.5556  8738.83  92.5546
 34.5976  8838.53  92.8828
 34.6396  8683.55  91.8962
 34.6816  8753.58  92.2662
 34.7236  8701.34  91.7694
 34.7656  8760.77  92.2821
 34.8076  8729.06  92.4323
 34.8496  8671.85  92.0674
 34.8916  8681.07  91.9118
 34.9336  8859.75  92.8045
 34.9756  8749.72  92.1581
 35.0176  8852.15  93.234
 35.0596  8619.26  91.8332
 35.1016  8718.41  92.1149
 35.1436  8905.26  92.7749
 35.1856  8718.07  91.9263
 35.2276  8675.97  91.8759
 35.2696  8680.86  92.0964
 35.3116  8676.94  92.1676
 35.3536  8674.19  91.8675
 35.3956  8545.06  90.8893
 35.4376  8527.37  91.348
 35.4796  8695.04  92.3075
 35.5216  8613.44  91.8321
 35.5636  8389.22  91.3696
 35.6056  8721.03  92.1588
 35.6476  8615.42  91.4884
 35.6896  8632.01  91.6624
 35.7316  8492.74  90.9001
 35.7736  8482.91  91.0509
 35.8156  8480.72  91.04
 35.8576  8615.93  92.0138
 35.8996  8644.61  92.1416
 35.9416  8593.8  91.3638
 35.9836  8558.97  91.525
 36.0256  8587.42  91.7011
 36.0676  8578.92  91.4029
 36.1096  8348.16  90.3088
 36.1516  8494.74  90.9863
 36.1936  8515.1  90.9421
 36.2356  8425.7  91.1119
 36.2776  8507.67  91.0332
 36.3196  8540.64  90.8668
 36.3616  8552.39  91.0625
 36.4036  8469.59  90.6771
 36.4456  8476.61  90.929
 36.4876  8426.24  90.5924
 36.5296  8379.69  90.3911
 36.5716  8462.25  91.622
 36.6136  8638.79  91.2998
 36.6556  8611.25  91.3771
 36.6976  8554.23  91.5718
 36.7396  8396.52  90.6263
 36.7816  8381.8  90.7512
 36.8236  8444.11  91.0006
 36.8656  8308.18  90.3445
 36.9076  8476.57  91.1245
 36.9496  8448.01  90.9765
 36.9916  8462.07  90.6675
 37.0336  8515.62  91.283
 37.0756  8435.32  90.6318
 37.1176  8291.24  90.1241
 37.1596  8443.63  90.9477
 37.2016  8409.59  91.0021
 37.2436  8297.4  89.7064
 37.2856  8386.63  90.4379
 37.3276  8391.9  89.8126
 37.3696  8346.57  90.4621
 37.4116  8433.37  90.8478
 37.4536  8199.96  89.2853
 37.4956  8268.25  89.8708
 37.5376  8240.31  91.281
 37.5796  8293.08  91.5376
 37.6216  8130.23  88.8989
 37.6636  8153.61  88.9372
 37.7056  8200.66  89.3891
 37.7476  8294.84  89.4321
 37.7896  8138.36  89.0758
 37.8316  8024.46  88.6278
 37.8736  8266.1  89.4731
 37.9156  8082.57  88.4756
 37.9576  8309.38  89.597
 37.9996  8092.57  88.1226
 38.0416  8093.56  88.9554
 38.0836  8222.25  89.5652
 38.1256  8110.54  88.9092
 38.1676  8000.05  88.4396
 38.2096  8145.01  88.862
 38.2516  8218.84  89.4618
 38.2936  8144.66  88.8618
 38.3356  8227.29  89.217
 38.3776  7991.2  88.2117
 38.4196  8321.34  89.8634
 38.4616  8159.05  89.2163
 38.5036  8149.12  89.0114
 38.5456  8126.72  89.7115
 38.5876  8053.57  89.5111
 38.6296  7971.7  87.8492
 38.6716  8016.71  87.8956
 38.7136  8021.1  87.8623
 38.7556  7939.89  87.9223
 38.7976  8072.73  88.588
 38.8396  8064.95  88.7963
 38.8816  7845.5  87.5514
 38.9236  7953.25  87.9756
 38.9656  8145.77  88.9459
 39.0076  8044.85  87.7985
 39.0496  8062.18  88.4471
 39.0916  8094.05  88.2465
 39.1336  8018.82  88.2619
 39.1756  7982.93  88.1306
 39.2176  7978.33  88.6242
 39.2596  7983.93  88.5898
 39.3016  7894.75  87.5902
 39.3436  8051.59  88.9606
 39.3856  7946.22  87.827
 39.4276  8044.72  88.8784
 39.4696  8010.9  88.3011
 39.5116  7928.8  88.3753
 39.5536  8209.35  90.3503
 39.5956  8093.75  88.7971
 39.6376  8077.46  88.7249
 39.6796  8066.65  88.3935
 39.7216  8039.27  88.3541
 39.7636  8116.91  89.35
 39.8056  8056.04  88.7972
 39.8476  8023.41  88.871
 39.8896  7980.67  88.2586
 39.9316  8026.01  88.7627
 39.9736  8174.27  89.2296
 40.0156  8027.7  88.1702
 40.0576  7955.28  88.1097
 40.0996  8113.26  88.1724
 40.1416  8082.64  88.8054
 40.1836  8162.78  89.141
 40.2256  8140.79  89.0614
 40.2676  8010.75  88.4608
 40.3096  8120.84  88.984
 40.3516  8165.63  89.336
 40.3936  8123.53  88.6636
 40.4356  8024.64  88.3101
 40.4776  8186.76  89.6252
 40.5196  8163.43  89.5312
 40.5616  8126.61  89.0641
 40.6036  8018.27  88.7137
 40.6456  8174.7  89.1799
 40.6876  8220.14  89.4061
 40.7296  8126.28  88.9271
 40.7716  8128.17  89.1813
 40.8136  8080.26  88.8563
 40.8556  8079.68  89.0019
 40.8976  8056.76  88.7894
 40.9396  8039.77  89.0545
 40.9816  8201.87  89.2133
 41.0236  8064.83  88.2472
 41.0656  8123.26  89.1068
 41.1076  8126.25  88.8906
 41.1496  8111.61  88.7218
 41.1916  8122.02  89.0964
 41.2336  8074.88  88.8444
 41.2756  8068.02  88.4
 41.3176  7972.49  88.4979
 41.3596  8094.18  88.893
 41.4016  8063.9  88.9909
 41.4436  8096.35  88.9526
 41.4856  8062.26  88.9224
 41.5276  8078.95  89.0361
 41.5696  8081.55  88.6707
 41.6116  7990.36  88.5825
 41.6536  8112.28  89.1019
 41.6956  7998.27  88.5333
 41.7376  7923.99  88.1478
 41.7796  7994.51  88.4271
 41.8216  8101.14  89.2478
 41.8636  8045.76  88.8776
 41.9056  7997.17  88.3955
 41.9476  8000.57  88.5431
 41.9896  8070.68  88.712
 42.0316  8057.49  88.7183
 42.0736  7973.85  88.3741
 42.1156  8009.12  88.3979
 42.1576  8011.27  88.485
 42.1996  8005.27  88.6189
 42.2416  8013.64  88.2401
 42.2836  7941.91  87.9639
 42.3256  7937.66  88.0544
 42.3676  8000.04  88.2103
 42.4096  8127.43  88.8657
 42.4516  7877.7  87.5794
 42.4936  7911.52  87.8323
 42.5356  7905.25  87.9199
 42.5776  7876.63  87.7133
 42.6196  7992.02  88.3967
 42.6616  7803.46  87.524
 42.7036  7887.44  87.3778
 42.7456  7893.27  87.7757
 42.7876  7846.51  87.6121
 42.8296  7884.84  87.6622
 42.8716  7861.02  87.6789
 42.9136  7922.01  87.8121
 42.9556  7841.57  87.4935
 42.9976  8000.68  88.3286
 43.0396  7845.65  87.2107
 43.0816  7844.08  87.5819
 43.1236  7854.83  87.7032
 43.1656  7809.98  87.2798
 43.2076  7792.73  87.3
 43.2496  7843.09  87.3876
 43.2916  7827.07  87.6636
 43.3336  7834.21  87.5405
 43.3756  7863.1  87.4527
 43.4176  7774.25  87.04
 43.4596  7691.47  86.4324
 43.5016  7674.64  86.739
 43.5436  7848.06  87.6119
 43.5856  7726.74  86.9614
 43.6276  7789.51  87.206
 43.6696  7800.17  87.5306
 43.7116  7830.63  87.192
 43.7536  7807.74  87.5542
 43.7956  7780.87  88.6095
 43.8376  7846.8  87.4843
 43.8796  7757.95  87.0777
 43.9216  7769.11  87.0603
 43.9636  7743  87.0289
 44.0056  7723.12  87.1395
 44.0476  7749.2  86.9247
 44.0896  7510.1  85.9048
 44.1316  7770.88  86.8934
 44.1736  7566.38  85.8714
 44.2156  7722.88  86.598
 44.2576  7599.83  86.2466
 44.2996  7737.96  86.9835
 44.3416  7729.16  86.7076
 44.3836  7544.72  85.9852
 44.4256  7578.93  85.8387
 44.4676  7500.32  85.5399
 44.5096  7672.47  86.6592
 44.5516  7515.81  85.7359
 44.5936  7478.96  85.4783
 44.6356  7654.31  86.2116
 44.6776  7534.85  85.7736
 44.7196  7659.01  86.8764
 44.7616  7516.66  87.3867
 44.8036  7522.71  85.8705
 44.8456  7593.95  86.4799
 44.8876  7580.52  86.2519
 44.9296  7503.96  85.2745
 44.9716  7555.67  85.9926
 45.0136  7522.52  85.7449
 45.0556  7619.29  86.2694
 45.0976  7540.32  85.9703
 45.1396  7487.28  85.4431
 45.1816  7452.6  85.1757
 45.2236  7514.76  85.4322
 45.2656  7493.79  85.8108
 45.3076  7407.53  85.105
 45.3496  7382.34  85.2597
 45.3916  7378.57  85.5044
 45.4336  7510.34  86.1092
 45.4756  7413.06  85.4041
 45.5176  7484.64  85.4343
 45.5596  7505.91  85.6735
 45.6016  7478.35  85.9394
 45.6436  7481.89  85.1353
 45.6856  7358.44  85.0782
 45.7276  7336.87  86.2651
 45.7696  7346.29  85.9779
 45.8116  7399.12  85.7122
 45.8536  7471.86  86.038
 45.8956  7444.78  85.2284
 45.9376  7464.15  84.8067
 45.9796  7438.81  85.3417
 46.0216  7373.59  85.3173
 46.0636  7505.34  85.214
 46.1056  7527.19  85.3235
 46.1476  7421.93  85.318
 46.1896  7494.07  85.8832
 46.2316  7289.01  84.5684
 46.2736  7219.07  84.5262
 46.3156  7486.23  85.6601
 46.3576  7371.71  85.2035
 46.3996  7429.17  85.6941
 46.4416  7350.68  84.8232
 46.4836  7331.94  85.0616
 46.5256  7293.86  84.7739
 46.5676  7348.47  85.2167
 46.6096  7356.4  85.1917
 46.6516  7353.14  84.2185
 46.6936  7378.15  84.8535
 46.7356  7339.48  84.7451
 46.7776  7323.6  85.4968
 46.8196  7255.59  84.6877
 46.8616  7157.42  84.0653
 46.9036  7236.59  84.1843
 46.9456  7270.26  84.0306
 46.9876  7187  83.6183
 47.0296  7201.21  84.3891
 47.0716  7113.06  83.6996
 47.1136  7214.3  83.977
 47.1556  7194.56  83.7275
 47.1976  7262.05  84.1925
 47.2396  7181.39  84.1226
 47.2816  7211.52  83.9955
 47.3236  7250.93  84.6036
 47.3656  7167.52  84.0348
 47.4076  7127.11  83.613
 47.4496  7092.55  83.4995
 47.4916  7194.74  84.295
 47.5336  7254.7  84.4558
 47.5756  7259.84  84.6031
 47.6176  7148.78  83.859
 47.6596  7106.75  83.3117
 47.7016  7222.59  83.8149
 47.7436  7195.92  83.9901
 47.7856  7336.32  84.8458
 47.8276  7117.49  83.6184
 47.8696  7083.48  83.497
 47.9116  7170.65  83.7259
 47.9536  7111.78  83.3272
 47.9956  7114.96  84.0468
 48.0376  7094.78  83.6954
 48.0796  7240.54  84.673
 48.1216  7225.9  84.4055
 48.1636  7361.53  84.7853
 48.2056  7100.02  83.5219
 48.2476  7161.27  84.1981
 48.2896  7163.79  84.1177
 48.3316  7058.07  83.4411
 48.3736  7089.18  83.6411
 48.4156  7083.14  83.4483
 48.4576  7091.53  83.7995
 48.4996  7165.95  83.6832
 48.5416  7099.42  83.6348
 48.5836  7106.24  83.3428
 48.6256  7006.11  82.969
 48.6676  7139.27  84.2592
 48.7096  7066.49  83.1012
 48.7516  7102.54  83.4602
 48.7936  6941.64  82.5664
 48.8356  7045.41  83.2374
 48.8776  7004.21  83.5536
 48.9196  7165.02  83.8843
 48.9616  7019.05  83.404
 49.0036  7120.5  84.3586
 49.0456  6986.81  83.5337
 49.0876  7069.4  83.5598
 49.1296  6947.69  82.9938
 49.1716  6886.03  82.4979
 49.2136  7080.72  83.5638
 49.2556  6923.9  82.7928
 49.2976  6993.99  83.1865
 49.3396  6963.54  83.0543
 49.3816  7079.12  83.1693
 49.4236  6992.11  83.0818
 49.4656  6881.86  82.4041
 49.5076  6847.19  81.9846
 49.5496  6873.64  82.1968
 49.5916  7043.5  83.1311
 49.6336  6957.67  82.8327
 49.6756  6945.18  82.9833
 49.7176  6999.87  83.2499
 49.7596  6896.63  82.4058
 49.8016  7037.14  83.1604
 49.8436  6899.25  82.6262
 49.8856  6907.92  82.6941
 49.9276  6801.83  82.1454
 49.9696  6770.13  81.9438
 50.0116  6978.18  83.3345
 50.0536  6858.42  82.5555
 50.0956  6840.97  82.5224
 50.1376  6848.46  82.2671
 50.1796  6871.43  82.673
 50.2216  6791.36  82.1898
 50.2636  6817.55  81.9655
 50.3056  6816.04  82.1147
 50.3476  6808.92  82.104
 50.3896  6813.45  82.1023
 50.4316  6936.67  82.6809
 50.4736  6790.46  82.022
 50.5156  6880.45  82.5505
 50.5576  6818.46  81.9466
 50.5996  6757.6  81.9753
 50.6416  6751.45  81.7487
 50.6836  6814.04  82.1815
 50.7256  6817.55  82.13
 50.7676  6767.21  82.1277
 50.8096  6732.97  81.4799
 50.8516  6803.66  82.3162
 50.8936  6747.83  81.7624
 50.9356  6849.25  82.4759
 50.9776  6787.05  82.2549
 51.0196  6746.41  82.1247
 51.0616  6623.12  80.6992
 51.1036  6786.73  82.046
 51.1456  6806.4  82.0695
 51.1876  6729.92  80.9667
 51.2296  6664.14  81.3065
 51.2716  6612.85  80.6036
 51.3136  6659.86  81.3313
 51.3556  6673.11  81.0483
 51.3976  6675.98  81.2107
 51.4396  6508.69  80.4693
 51.4816  6681.15  81.4041
 51.5236  6725.25  81.7619
 51.5656  6629.36  80.7758
 51.6076  6648.22  80.9649
 51.6496  6724.26  81.6307
 51.6916  6644.32  81.484
 51.7336  6654.92  81.6545
 51.7756  6656.42  81.3524
 51.8176  6608.27  81.1633
 51.8596  6583.85  81.0314
 51.9016  6921.51  82.6841
 51.9436  6586.11  82.1231
 51.9856  6556.35  82.353
 52.0276  6483.5  80.4478
 52.0696  6594.87  81.1978
 52.1116  6617.82  81.4564
 52.1536  6506.73  80.6564
 52.1956  6660.86  81.0592
 52.2376  6746.59  81.7676
 52.2796  6668.28  81.0987
 52.3216  6492.36  80.7089
 52.3636  6628.46  81.1297
 52.4056  6585.67  80.7231
 52.4476  6604.99  81.2097
 52.4896  6512.13  80.6871
 52.5316  6526.69  80.8217
 52.5736  6609.67  81.0552
 52.6156  6500.8  80.7596
 52.6576  6518.61  80.3209
 52.6996  6407.13  80.5917
 52.7416  6544.3  81.2943
 52.7836  6607.74  81.5832
 52.8256  6544.23  80.423
 52.8676  6368.11  79.8872
 52.9096  6607.58  81.4681
 52.9516  6591.43  81.7143
 52.9936  6481.04  81.4241
 53.0356  6408.53  79.9735
 53.0776  6347.83  79.8509
 53.1196  6354.43  80.0203
 53.1616  6275.03  79.5653
 53.2036  6403.82  80.3249
 53.2456  6404.95  80.4406
 53.2876  6460.44  80.4941
 53.3296  6431.72  80.6382
 53.3716  6473.15  80.6526
 53.4136  6296.55  79.6756
 53.4556  6315.15  79.8322
 53.4976  6255.31  79.3044
 53.5396  6335.99  80.1936
 53.5816  6302.96  79.6319
 53.6236  6302.09  79.8905
 53.6656  6343.17  79.8581
 53.7076  6378.4  80.0353
 53.7496  6374.27  80.1394
 53.7916  6477.37  80.8993
 53.8336  6302.91  79.7147
 53.8756  6273.6  80.0674
 53.9176  6288.01  79.5037
 53.9596  6474.33  81.4578
 54.0016  6353.02  80.0157
 54.0436  6344.03  80.1778
 54.0856  6446.62  80.2491
 54.1276  6436.08  80.3934
 54.1696  6350.62  80.0207
 54.2116  6361.35  79.8528
 54.2536  6368.52  79.7074
 54.2956  6398.51  79.8813
 54.3376  6279.11  79.6715
 54.3796  6277.05  79.5452
 54.4216  6441.39  80.6309
 54.4636  6388.77  80.3157
 54.5056  6393.17  80.1275
 54.5476  6325.39  80.0271
 54.5896  6378.85  80.1978
 54.6316  6275.18  79.3983
 54.6736  6420.39  80.3863
 54.7156  6336.98  79.8839
 54.7576  6239.39  79.2576
 54.7996  6351.21  80.105
 54.8416  6360.31  80.1148
 54.8836  6299.43  79.9506
 54.9256  6219.32  79.1874
 54.9676  6392.66  80.1385
 55.0096  6294.04  79.5849
 55.0516  6378.93  80.3585
 55.0936  6333.11  79.6969
 55.1356  6247.98  79.1929
 55.1776  6291.83  79.7522
 55.2196  6332.05  79.8329
 55.2616  6297.83  79.7873
 55.3036  6182.94  79.2101
 55.3456  6246.04  79.7566
 55.3876  6257.59  79.5776
 55.4296  6337.4  80.0977
 55.4716  6264.07  79.628
 55.5136  6303.98  79.6278
 55.5556  6246.25  79.3479
 55.5976  6290.39  79.6808
 55.6396  6242.55  79.3257
 55.6816  6261.27  79.3196
 55.7236  6299.69  79.6064
 55.7656  6277.36  79.2217
 55.8076  6438.31  80.2135
 55.8496  6147.04  78.6976
 55.8916  6214.32  79.3215
 55.9336  6238.73  79.2986
 55.9756  6178.01  78.808
 56.0176  6241.55  79.3605
 56.0596  6218.34  79.2022
 56.1016  6303.59  79.7558
 56.1436  6171.4  79.1734
 56.1856  6253.32  79.4329
 56.2276  6210.36  79.2219
 56.2696  6302.93  79.7988
 56.3116  6139.31  79.1418
 56.3536  6222.01  79.3276
 56.3956  6234.66  79.3979
 56.4376  6228.86  79.3921
 56.4796  6226.09  79.177
 56.5216  6181.92  79.2731
 56.5636  6263.17  79.3753
 56.6056  6169.26  79.011
 56.6476  6315.18  79.5667
 56.6896  6188.02  79.2141
 56.7316  6184.64  79.1057
 56.7736  6238.24  79.435
 56.8156  6292.34  79.7756
 56.8576  6200.97  79.1293
 56.8996  6145.38  78.7177
 56.9416  6171.06  79.1785
 56.9836  6187.08  78.8064
 57.0256  6152.11  78.89
 57.0676  6106.93  78.733
 57.1096  6219.81  79.2447
 57.1516  6278.12  79.6784
 57.1936  6296.06  79.5355
 57.2356  6189.41  79.1756
 57.2776  6297.3  79.8246
 57.3196  6281.65  79.8779
 57.3616  6183.45  78.9611
 57.4036  6303.08  79.7825
 57.4456  6171.09  78.9155
 57.4876  6295.77  79.5579
 57.5296  6154.01  79.0046
 57.5716  6086.86  78.5595
 57.6136  6208.89  79.1474
 57.6556  6208.5  79.2964
 57.6976  6208.34  79.0213
 57.7396  6170.58  79.2524
 57.7816  6003.77  78.5259
 57.8236  6183.49  79.4817
 57.8656  6178.9  79.1075
 57.9076  6182.32  79.1677
 57.9496  6148.17  79.2971
 57.9916  6137.55  78.7392
 58.0336  6115.91  78.8769
 58.0756  6161.17  78.8015
 58.1176  6158.4  78.7824
 58.1596  6089.16  78.9033
 58.2016  6265.12  79.2457
 58.2436  6163.66  79.009
 58.2856  6198.86  79.1613
 58.3276  6186.66  79.451
 58.3696  6095.15  78.6007
 58.4116  6157.95  78.876
 58.4536  6138.91  78.6338
 58.4956  6133.32  78.7875
 58.5376  6160.11  78.6463
 58.5796  6130.96  78.7748
 58.6216  6125.8  78.5495
 58.6636  6223.77  79.396
 58.7056  6196.04  79.0673
 58.7476  6190  79.4789
 58.7896  6156.94  78.9108
 58.8316  6186.57  79.2022
 58.8736  6245.15  79.4755
 58.9156  6203.28  79.25
 58.9576  6216.48  79.6647
 58.9996  6292.37  79.3665
 59.0416  6344.99  80.0823
 59.0836  6213.85  79.1762
 59.1256  6060.86  78.8883
 59.1676  6117.27  79.5573
 59.2096  6268.13  79.8646
 59.2516  6424.11  80.4201
 59.2936  6239.33  79.5886
 59.3356  6141.24  78.8372
 59.3776  6257.48  79.7518
 59.4196  6239.52  79.5727
 59.4616  6276.36  79.664
 59.5036  6232.65  79.4216
 59.5456  6418.79  80.2831
 59.5876  6191.11  79.0399
 59.6296  6222.7  79.3116
 59.6716  6135.42  78.8118
 59.7136  6209.41  79.2737
 59.7556  6215.37  79.4502
 59.7976  6159.33  78.8308
 59.8396  6294.37  79.5823
 59.8816  6228.09  79.7157
 59.9236  6204.58  79.2043
 59.9656  6126.99  78.9703
 60.0076  6234.72  79.0083
 60.0496  6278.69  79.8003
 60.0916  6423.45  80.1147
 60.1336  6136.12  79.4187
 60.1756  6103.08  80.3952
 60.1996  0.0000000E+00  0.0000000E+00