File: docs/examples/opeando_xrd/IS17_D/Data/IS17_D/17_Da_f00069.xye
# /beamlines/bl04/projects/cycle2025-II/20250340211-lsimonelli/DATA/IS17_D/17_Da_f00069.xye : mythproc.py merge -s 0.006 -l 0.5 -f /beamlines/bl04/inhouse/ff/FlatField/ff_20Nov2024rod8mm60s_17keV.raw -b True -c true -o xye /beamlines/bl04/projects/cycle2025-II/20250340211-lsimonelli/DATA/IS17_D/17_Da_00069.dat
# IsMon = [6771742, 6773378, 6764974]  IsPos = [-1.4999, -2.4884, -3.4988]
# Wave = 0.4962  CalPath /beamlines/bl04/projects/cycle2025-II/20250340211-lsimonelli/DATA/Align/Si_Pos1_25keV_f00001.cal
# Date = 2025-09-24_12:46:23 Dt = 4.8000  Bin = 0.0060  <imon> = 6770031 +/- 3638 (Min/Max) 6764974 / 6773378
# icurr 250.9415  mocoIn 1.7130E-05  mocoOut 0.8035  i15 7.09069e+06  imon 6.77003e+06  i7 3.3333  iEMpd_timer 4.8000  iEMpd_1 3.2786E-08  iEMpd_2 7.8235E-08  iEMpd_3 1.5925E-08  iEMpd_4 4.7377E-08  iEMhp_timer 4.8000  iEMhp_1 4.9029E-06  iEMhp_2 -2.3856E-08  iEMhp_3 -2.5590E-08  iEMhp_4 -2.1254E-08
#      9776
 1.5856  39320.4  203.59
 1.6276  46506.4  217.614
 1.6696  53092.5  231.693
 1.7116  61868.6  250.6
 1.7536  71845.6  268.9
 1.7956  75897  277.069
 1.8376  71783.9  269.884
 1.8796  60634.1  246.216
 1.9216  48379.7  220.808
 1.9636  40662.1  201.601
 2.0056  36942.2  191.414
 2.0476  34167.4  186.103
 2.0896  32517.4  180.49
 2.1316  31730.3  177.435
 2.1736  30014.2  173.939
 2.2156  30379.9  173.591
 2.2576  29498.9  171.668
 2.2996  28607.2  169.675
 2.3416  28809.1  168.914
 2.3836  28234.3  167.323
 2.4256  27448.3  165.515
 2.4676  27260.2  164.713
 2.5096  27248.3  164.731
 2.5516  32339.2  183.6
 2.5936  110760  332.934
 2.6356  28706.6  170.211
 2.6776  25820.5  160.332
 2.7196  25208.5  158.927
 2.7616  25165  158.572
 2.8036  24551.2  156.795
 2.8456  24723.6  157.947
 2.8876  24017.7  155.554
 2.9296  23786.9  154.93
 2.9716  23501.7  153.504
 3.0136  23222.1  152.65
 3.0556  23258.6  153.156
 3.0976  23268.9  152.149
 3.1396  22839.6  151.432
 3.1816  22801.5  151.247
 3.2236  22673.9  150.821
 3.2656  22739.9  150.098
 3.3076  22664.8  151.276
 3.3496  22842  150.82
 3.3916  22999.7  151.172
 3.4336  23707.9  154.054
 3.4756  23982  154.869
 3.5176  24849.3  157.444
 3.5596  24804.5  159.723
 3.6016  24813.6  157.415
 3.6436  24106.8  156.227
 3.6856  23656.8  153.105
 3.7276  22641.6  150.837
 3.7696  22518.8  150.644
 3.8116  22190.6  149.415
 3.8536  22423.2  150.139
 3.8956  22288.2  149.505
 3.9376  22901.8  151.802
 3.9796  22270.9  149.213
 4.0216  22195  148.002
 4.0636  22145  149.286
 4.1056  22144.1  148.928
 4.1476  22388.8  150.06
 4.1896  22558.9  150.502
 4.2316  22797.2  151.126
 4.2736  23152.2  152.081
 4.3156  23444.5  153.281
 4.3576  24295.9  155.95
 4.3996  24504.7  156.868
 4.4416  24977.6  157.971
 4.4836  26200.6  161.936
 4.5256  26209  162.575
 4.5676  25791.6  161.532
 4.6096  26318.4  161.839
 4.6516  27116.4  163.989
 4.6936  27107.7  164.787
 4.7356  27790.6  166.663
 4.7776  27152.9  164.579
 4.8196  26606.3  163.541
 4.8616  26213.2  161.813
 4.9036  26067.3  161.117
 4.9456  26167.5  162.077
 4.9876  25493.1  159.878
 5.0296  25642.9  160.17
 5.0716  25381  160.125
 5.1136  25740.8  160.953
 5.1556  26037.6  161.354
 5.1976  32927.4  181.425
 5.2396  26661.5  162.961
 5.2816  26492.9  162.893
 5.3236  26452.9  162.488
 5.3656  25987.5  161.961
 5.4076  25642.7  161.031
 5.4496  25994.3  161.627
 5.4916  26036.1  161.511
 5.5336  25953.8  161.27
 5.5756  25821.3  160.873
 5.6176  26022.7  160.95
 5.6596  26232.6  162.552
 5.7016  26368.5  162.256
 5.7436  26549.1  163.077
 5.7856  26362.3  162.561
 5.8276  26796.9  163.63
 5.8696  26963.4  164.298
 5.9116  26892.8  164.681
 5.9536  27414.5  166.017
 5.9956  27696.8  166.242
 6.0376  27366.1  165.879
 6.0796  27674.8  166.643
 6.1216  27698  166.923
 6.1636  27666.2  165.899
 6.2056  28176.6  168.082
 6.2476  28142.6  167.854
 6.2896  28547.9  168.741
 6.3316  28167.1  167.779
 6.3736  28538.1  168.781
 6.4156  28296.6  167.953
 6.4576  28793.2  169.038
 6.4996  28947.7  169.975
 6.5416  28853.6  169.827
 6.5836  29278.6  171.309
 6.6256  29173.5  170.562
 6.6676  29237  170.322
 6.7096  29253.5  171.203
 6.7516  29737.2  172.279
 6.7936  30651.1  174.341
 6.8356  31004.9  175.414
 6.8776  30867.2  175.834
 6.9196  30276  174.533
 6.9616  30919.9  175.814
 7.0036  31359.7  176.724
 7.0456  31392.7  176.115
 7.0876  31176.1  177.184
 7.1296  31038.7  175.94
 7.1716  31372.4  176.43
 7.2136  31023  175.218
 7.2556  31247.4  176.014
 7.2976  31258.9  176.54
 7.3396  31330.6  176.944
 7.3816  31286.7  177.042
 7.4236  31403.1  176.668
 7.4656  31869.5  177.459
 7.5076  32192.2  178.493
 7.5496  31782  177.905
 7.5916  31917.2  178.293
 7.6336  32591.1  180.066
 7.6756  32466.9  179.575
 7.7176  32775.8  180.722
 7.7596  32847.4  182.175
 7.8016  37008.2  195.665
 7.8436  33718.7  183.456
 7.8856  33945.7  183.69
 7.9276  34606.6  185.881
 7.9696  34586.8  186.12
 8.0116  35739.8  187.73
 8.0536  36192.2  189.171
 8.0956  38134.9  195.372
 8.1376  36623.2  190.953
 8.1796  36728.9  191.747
 8.2216  37563.5  192.669
 8.2636  38446.9  195.172
 8.3056  37537.3  193.648
 8.3476  39515.3  197.975
 8.3896  38284.4  194.948
 8.4316  38028  194.458
 8.4736  38252.8  194.491
 8.5156  37657.6  193.253
 8.5576  37488.5  193.778
 8.5996  37271.3  192.102
 8.6416  37276.6  193.363
 8.6836  37330.3  193.364
 8.7256  37999.8  194.493
 8.7676  39687.2  201.795
 8.8096  39375.2  198.226
 8.8516  37327.7  192.617
 8.8936  38809.6  196.31
 8.9356  36796.5  191.444
 8.9776  37180.4  192.57
 9.0196  36584.3  190.671
 9.0616  37029.5  191.303
 9.1036  38417.4  196.107
 9.1456  36770.9  191.214
 9.1876  36354.1  190.064
 9.2296  36308.5  189.36
 9.2716  35535.4  187.377
 9.3136  35630.7  187.616
 9.3556  35897.3  188.305
 9.3976  34260.7  184.463
 9.4396  34607  185.302
 9.4816  34251.3  184.197
 9.5236  34339.7  184.363
 9.5656  33969.5  183.676
 9.6076  33972.2  184.239
 9.6496  33648.3  183.268
 9.6916  33840.7  183.781
 9.7336  33721.7  183.219
 9.7756  34009.7  185.259
 9.8176  33145  182.332
 9.8596  33077.3  180.591
 9.9016  32417.1  178.776
 9.9436  32349.3  178.501
 9.9856  32486  179.108
 10.0276  32000.2  178.869
 10.0696  31693.3  177.054
 10.1116  31309.4  176.241
 10.1536  31220  176.154
 10.1956  30616.2  174.045
 10.2376  29962.6  171.683
 10.2796  30273.9  172.701
 10.3216  29982.7  172.138
 10.3636  30040.9  172.335
 10.4056  32255  178.981
 10.4476  32227.8  178.52
 10.4896  35425.5  186.571
 10.5316  33011.5  180.861
 10.5736  29892.6  172.51
 10.6156  29221.7  170.329
 10.6576  33748.8  181.499
 10.6996  29041.8  169.036
 10.7416  28326.2  167.183
 10.7836  29499.7  171.339
 10.8256  27915.1  167.115
 10.8676  27873.8  166.512
 10.9096  27852.4  166.508
 10.9516  27383.9  164.025
 10.9936  28164.6  166.551
 11.0356  27900.7  166.411
 11.0776  28682.3  168.016
 11.1196  28433.8  168.048
 11.1616  27090.4  163.715
 11.2036  27754.9  165.573
 11.2456  29099  170.27
 11.2876  26673.9  162.747
 11.3296  26711  162.764
 11.3716  27252.5  164.099
 11.4136  26887.7  163.901
 11.4556  27171.7  164.438
 11.4976  28402.1  167.043
 11.5396  28027  166.087
 11.5816  26360.5  161.553
 11.6236  26109.6  160.992
 11.6656  25780  159.128
 11.7076  25180  158.107
 11.7496  25560.9  163.22
 11.7916  25956.2  159.782
 11.8336  24979.9  157.644
 11.8756  25253  158.024
 11.9176  25031  156.971
 11.9596  24505.2  155.509
 12.0016  24474.9  156.206
 12.0436  24483.6  155.649
 12.0856  24264.5  155.482
 12.1276  24291.3  155.481
 12.1696  24366.6  154.861
 12.2116  24806.3  156.251
 12.2536  26321.2  161.816
 12.2956  24856.5  156.575
 12.3376  24313.5  155.057
 12.3796  24322.7  155.549
 12.4216  24491.5  155.306
 12.4636  25109.4  158.184
 12.5056  24038.6  154.047
 12.5476  24356.9  154.595
 12.5896  24120.5  154.481
 12.6316  23676.6  153.201
 12.6736  23910.7  154.442
 12.7156  24002.3  154.587
 12.7576  24095.3  155.143
 12.7996  24296.4  154.429
 12.8416  24408.2  155.843
 12.8836  25194.1  158.165
 12.9256  24528.1  155.068
 12.9676  24788.9  156.321
 13.0096  24365.3  156.065
 13.0516  24567  155.75
 13.0936  24429.6  155.712
 13.1356  24864.8  156.077
 13.1776  24794.5  156.847
 13.2196  24420.1  155.319
 13.2616  24390  155.537
 13.3036  24671.9  156.401
 13.3456  24504.7  156.228
 13.3876  24679.9  156.067
 13.4296  24477.6  155.581
 13.4716  24768.3  156.115
 13.5136  24702.3  156.054
 13.5556  24701.1  156.657
 13.5976  24438.9  155.976
 13.6396  24929.8  156.902
 13.6816  24452.7  155.884
 13.7236  25259.5  158.078
 13.7656  24646.3  156.678
 13.8076  25413.3  157.867
 13.8496  24483.9  155.547
 13.8916  24370  156.199
 13.9336  24230.3  154.979
 13.9756  24144.8  154.052
 14.0176  24042.9  154.413
 14.0596  24610  156.188
 14.1016  23875.1  154.231
 14.1436  23463.2  152.025
 14.1856  23667.8  152.99
 14.2276  23479.5  152.857
 14.2696  23660.4  153.284
 14.3116  23113.9  151.416
 14.3536  22684.1  150.176
 14.3956  22501.3  149.29
 14.4376  22829.8  150.164
 14.4796  22594.9  149.374
 14.5216  22227.9  148.953
 14.5636  22570.6  149.668
 14.6056  22292.1  148.321
 14.6476  22091.1  146.876
 14.6896  21680.4  146.037
 14.7316  21409.4  146.148
 14.7736  21258.4  144.785
 14.8156  21094.5  144.265
 14.8576  21034  143.904
 14.8996  20762.8  144.183
 14.9416  20408.6  142.944
 14.9836  20534.5  143.352
 15.0256  20527  142.25
 15.0676  20329.7  141.885
 15.1096  20139.8  140.957
 15.1516  19600  139.592
 15.1936  19687.8  139.351
 15.2356  19625.1  139.408
 15.2776  19496.6  138.53
 15.3196  19155.4  138.318
 15.3616  19248.3  138.423
 15.4036  18951  137.189
 15.4456  19286.2  138.052
 15.4876  18914.3  136.394
 15.5296  18914.7  136.668
 15.5716  18419.1  134.482
 15.6136  18483.4  135.028
 15.6556  20236.3  140.506
 15.6976  18611.4  135.026
 15.7396  18609.1  135.442
 15.7816  18384.2  134.111
 15.8236  17983.8  133.361
 15.8656  17895.3  132.81
 15.9076  17896.2  132.64
 15.9496  18062.9  136.062
 15.9916  17468  134.236
 16.0336  17302  130.509
 16.0756  17638.5  132.093
 16.1176  17275.2  130.803
 16.1596  16860.8  130.393
 16.2016  17158.2  130.292
 16.2436  16794.6  129.276
 16.2856  16774.2  128.745
 16.3276  16222.2  127.019
 16.3696  16675.6  128.594
 16.4116  16627.3  128.877
 16.4536  16623.1  128.641
 16.4956  17131.2  130.317
 16.5376  16812.2  129.3
 16.5796  16446  127.244
 16.6216  16506.7  127.783
 16.6636  16583.7  128.25
 16.7056  16774.6  128.825
 16.7476  16503.1  127.314
 16.7896  16541.2  128.218
 16.8316  16312.3  127.289
 16.8736  16643.4  128.827
 16.9156  16372.8  128.12
 16.9576  16211.7  128.266
 16.9996  16234.9  128.858
 17.0416  16178.2  126.962
 17.0836  16128.1  126.526
 17.1256  15882.5  125.57
 17.1676  16427.4  127.7
 17.2096  15977.1  125.813
 17.2516  15904.6  125.307
 17.2936  15601  124.431
 17.3356  15318.1  123.301
 17.3776  15277.9  123.328
 17.4196  15505.3  123.937
 17.4616  15573.8  124.128
 17.5036  15913.8  125.844
 17.5456  15047.4  123.012
 17.5876  14992.7  121.841
 17.6296  15210.3  122.539
 17.6716  15188.3  123.029
 17.7136  15602.3  124.838
 17.7556  14864.6  122.141
 17.7976  15109.3  122.883
 17.8396  15071  122.222
 17.8816  14823.7  121.762
 17.9236  14694.8  121.039
 17.9656  15078.8  123.17
 18.0076  15398.3  124.054
 18.0496  15993.7  125.522
 18.0916  19096.5  137.76
 18.1336  17441.3  131.772
 18.1756  15848.7  125.114
 18.2176  15716.7  124.833
 18.2596  14893.7  121.252
 18.3016  15537.8  124.117
 18.3436  15731.9  124.884
 18.3856  15076.9  122.391
 18.4276  14905.6  121.373
 18.4696  14943.9  121.636
 18.5116  14978.1  122.062
 18.5536  14877.9  122.028
 18.5956  14738.2  120.985
 18.6376  14830.3  121.768
 18.6796  14598.6  120.134
 18.7216  14777.1  121.353
 18.7636  14383  119.711
 18.8056  14203.7  118.917
 18.8476  14116.2  119.184
 18.8896  14086  118.382
 18.9316  14553.9  120.332
 18.9736  14262.2  118.801
 19.0156  14511.6  120.243
 19.0576  14509.5  119.085
 19.0996  14237.8  118.683
 19.1416  14252.2  119.128
 19.1836  14087  118.045
 19.2256  13880.4  117.385
 19.2676  14038.9  118.152
 19.3096  14136.3  118.808
 19.3516  13991.6  118.151
 19.3936  14038  118.243
 19.4356  14015.2  118.022
 19.4776  14123.6  118.58
 19.5196  14091.1  118.293
 19.5616  14005.7  118.187
 19.6036  13987.3  117.624
 19.6456  14119.6  118.28
 19.6876  14489.7  119.469
 19.7296  14179.9  118.634
 19.7716  14048.3  118.243
 19.8136  14343.5  119.692
 19.8556  14878.3  121.374
 19.8976  14908.4  121.562
 19.9396  14738.3  120.435
 19.9816  14694.3  120.504
 20.0236  14828  121.269
 20.0656  14195.7  118.655
 20.1076  13794.6  117.409
 20.1496  13755.3  117.26
 20.1916  13855.1  117.194
 20.2336  13765.9  116.753
 20.2756  13549.7  116.262
 20.3176  13567.8  116.089
 20.3596  13644.6  116.397
 20.4016  13514.1  115.64
 20.4436  13632.4  116.704
 20.4856  13288.1  115.006
 20.5276  13425.8  116.065
 20.5696  13431.4  115.546
 20.6116  13387.6  115.636
 20.6536  13362.8  115.041
 20.6956  13359.5  115.145
 20.7376  13448.2  115.764
 20.7796  13147.8  114.154
 20.8216  13391  114.909
 20.8636  13480.9  115.658
 20.9056  14164.1  118.51
 20.9476  13402.3  115.111
 20.9896  14167.3  118.218
 21.0316  13430.1  114.998
 21.0736  13452.1  115.615
 21.1156  13814.9  117.332
 21.1576  13361  115.436
 21.1996  13153  114.509
 21.2416  12985.8  113.606
 21.2836  13116.9  114.152
 21.3256  13066  114.004
 21.3676  13311.1  114.621
 21.4096  13360  115.144
 21.4516  13150.4  114.117
 21.4936  12897.7  113.262
 21.5356  12960.9  113.489
 21.5776  13091.1  113.888
 21.6196  13037.4  113.692
 21.6616  12936.3  113.339
 21.7036  12950.4  113.185
 21.7456  12924.6  113.142
 21.7876  12773.2  112.228
 21.8296  12613  111.38
 21.8716  12728.6  112.11
 21.9136  13021.4  113.604
 21.9556  13043.5  113.368
 21.9976  12852  112.552
 22.0396  12756.1  112.38
 22.0816  12808.4  113.171
 22.1236  13178.9  114.229
 22.1656  12884.9  113.086
 22.2076  12812.2  112.229
 22.2496  12819  112.274
 22.2916  12902.7  112.531
 22.3336  12819.8  112.891
 22.3756  12735.8  112.254
 22.4176  12697.5  111.938
 22.4596  12554.2  111.906
 22.5016  12930.4  113.047
 22.5436  12823.7  112.473
 22.5856  12874.4  112.932
 22.6276  12745.5  112.488
 22.6696  12714.6  112.717
 22.7116  12559.1  111.528
 22.7536  12778.5  112.484
 22.7956  12631.9  111.154
 22.8376  12524.3  111.229
 22.8796  12698.2  111.786
 22.9216  12812.2  112.85
 22.9636  12801.1  111.933
 23.0056  12646.2  111.39
 23.0476  12883.8  113.008
 23.0896  13100  113.319
 23.1316  12927  113.009
 23.1736  12651  114.738
 23.2156  12641  112.095
 23.2576  12649.5  112.236
 23.2996  12545.5  111.585
 23.3416  12441.5  111.608
 23.3836  12646.2  111.775
 23.4256  12773  112.439
 23.4676  12710.2  111.867
 23.5096  12681.8  112.423
 23.5516  12455.2  110.7
 23.5936  12777.3  113.032
 23.6356  12907.8  113.266
 23.6776  12510.6  111.739
 23.7196  12394.5  110.788
 23.7616  12833.6  112.656
 23.8036  12672  111.968
 23.8456  12613.3  111.291
 23.8876  12290.6  110.193
 23.9296  12273  110.612
 23.9716  12483.9  110.755
 24.0136  12402.6  111.288
 24.0556  12316.1  110.634
 24.0976  12173.8  109.801
 24.1396  12207.8  112.597
 24.1816  12288.1  111.376
 24.2236  12158.3  110.376
 24.2656  12211.8  110.089
 24.3076  11916.2  108.997
 24.3496  12291.4  110.587
 24.3916  12127.1  109.9
 24.4336  12072.7  109.861
 24.4756  11983.6  109.329
 24.5176  11793.2  108.102
 24.5596  11640.8  107.526
 24.6016  11781.6  108.463
 24.6436  11836.2  108.199
 24.6856  11913  108.312
 24.7276  11903.8  108.589
 24.7696  11698.1  107.761
 24.8116  11665.5  107.788
 24.8536  11743.4  108.141
 24.8956  11614.6  107.289
 24.9376  11805.1  108.103
 24.9796  11497.2  107.039
 25.0216  11464.1  106.995
 25.0636  11437.7  106.52
 25.1056  11223.9  106.229
 25.1476  11434.4  108.915
 25.1896  11352.4  106.991
 25.2316  11554.7  107.217
 25.2736  11468.9  106.454
 25.3156  11274.3  105.636
 25.3576  11303.4  106.189
 25.3996  11335.3  106.318
 25.4416  11226.1  105.791
 25.4836  11071.5  105.583
 25.5256  11228.9  105.69
 25.5676  11360.1  106.026
 25.6096  11058.2  105.184
 25.6516  11141.2  105.076
 25.6936  11058.1  104.994
 25.7356  11140  105.529
 25.7776  11157.8  105.218
 25.8196  11037.6  104.879
 25.8616  11120.9  105.204
 25.9036  11274.4  105.385
 25.9456  11075.1  105.04
 25.9876  11012.5  104.811
 26.0296  11123.7  104.84
 26.0716  11109.7  105.204
 26.1136  11274.8  105.931
 26.1556  11404.3  105.916
 26.1976  10916  104.54
 26.2396  11084.8  104.493
 26.2816  10945  104.445
 26.3236  11112.8  105.397
 26.3656  10986.3  104.516
 26.4076  11033.9  104.958
 26.4496  11455.8  106.423
 26.4916  11130.4  104.911
 26.5336  10969.9  104.476
 26.5756  11058.9  104.763
 26.6176  11082.5  104.928
 26.6596  10755.1  103.67
 26.7016  10798  103.627
 26.7436  10676.9  103.175
 26.7856  10639.8  102.983
 26.8276  10714.7  103.3
 26.8696  10731.6  103.259
 26.9116  10743  103.251
 26.9536  10567.6  102.449
 26.9956  10701.5  103.132
 27.0376  10520.2  102.458
 27.0796  10711.8  103.123
 27.1216  10652.1  102.912
 27.1636  10432  102.013
 27.2056  10483.2  102.146
 27.2476  10612.6  102.777
 27.2896  10487.9  102.283
 27.3316  10375.9  101.441
 27.3736  10439.7  102.03
 27.4156  10280.6  101.076
 27.4576  10428.8  102.045
 27.4996  10495.3  101.956
 27.5416  10419.9  101.912
 27.5836  10513.6  102.188
 27.6256  10711.3  103.3
 27.6676  10513.9  102.38
 27.7096  10501  102.171
 27.7516  10953.6  104.516
 27.7936  10761.2  103.759
 27.8356  10575.1  102.473
 27.8776  10471  102.013
 27.9196  10347.1  101.262
 27.9616  10547.5  102.433
 28.0036  10308.9  101.238
 28.0456  10344.8  101.549
 28.0876  10234.3  101.09
 28.1296  10221.1  100.865
 28.1716  10221.5  100.876
 28.2136  10229.5  100.88
 28.2556  10097.3  100.341
 28.2976  10147.1  100.586
 28.3396  10378.2  101.485
 28.3816  10174.1  100.497
 28.4236  10274.7  101.153
 28.4656  10028.5  99.9633
 28.5076  9950.26  99.2129
 28.5496  9973.23  99.5869
 28.5916  10032.9  99.6907
 28.6336  9888.8  99.3114
 28.6756  10051.4  99.3252
 28.7176  10033.2  99.7876
 28.7596  9879.63  98.9169
 28.8016  9869.89  98.898
 28.8436  9737.79  98.4823
 28.8856  9931.97  99.3045
 28.9276  9968.93  99.7332
 28.9696  9719.96  98.1448
 29.0116  9826.69  98.8688
 29.0536  9657.55  98.2127
 29.0956  9868.1  98.9967
 29.1376  9933.46  99.2811
 29.1796  9676.46  98.0292
 29.2216  9725.29  98.1243
 29.2636  9790.01  98.5176
 29.3056  9675.71  97.7424
 29.3476  9875.35  99.2727
 29.3896  9879.11  99.391
 29.4316  9886.87  98.7698
 29.4736  9767.36  98.2436
 29.5156  9827.29  98.4551
 29.5576  9826.05  99.186
 29.5996  9915.23  98.8908
 29.6416  9624.57  97.5349
 29.6836  9763.87  98.1798
 29.7256  9894.02  99.399
 29.7676  9688.65  98.0394
 29.8096  9788.22  98.4756
 29.8516  9650.78  98.1275
 29.8936  9724.7  98.5847
 29.9356  9620.27  97.8079
 29.9776  9664.41  98.1849
 30.0196  9813.8  98.3097
 30.0616  9674  97.9968
 30.1036  9647.14  97.6746
 30.1456  9571.95  97.5482
 30.1876  9517.62  97.2265
 30.2296  9541.1  97.3096
 30.2716  9646.64  97.4787
 30.3136  9703.25  98.6266
 30.3556  9578.37  97.9966
 30.3976  9538.22  99.307
 30.4396  9719.53  97.5691
 30.4816  9626.06  96.7055
 30.5236  9597.74  96.5628
 30.5656  9586.64  97.1809
 30.6076  9688.7  97.1257
 30.6496  9627.56  97.2024
 30.6916  9447.64  96.3883
 30.7336  9547.14  97.0425
 30.7756  9412.35  96.4448
 30.8176  9386.64  96.2309
 30.8596  9629.16  97.2276
 30.9016  9332.33  96.063
 30.9436  9538.82  96.8723
 30.9856  9429.63  96.4142
 31.0276  9438.36  96.0665
 31.0696  9356.44  96.2311
 31.1116  9509.58  96.9926
 31.1536  9450.47  96.5795
 31.1956  9370.61  96.2532
 31.2376  9341.99  96.1252
 31.2796  9442.33  96.1648
 31.3216  9332.29  95.5477
 31.3636  9379.43  96.4598
 31.4056  9410.03  97.9664
 31.4476  9365.08  95.5757
 31.4896  9119.82  94.8171
 31.5316  9455.17  95.9358
 31.5736  9871.59  97.839
 31.6156  9760.11  97.3021
 31.6576  9509.59  96.1547
 31.6996  9393.45  95.2376
 31.7416  9395.06  96.298
 31.7836  9456.11  95.6276
 31.8256  9158.39  94.3782
 31.8676  9353.37  95.3737
 31.9096  9162.95  94.7554
 31.9516  9102.42  94.6005
 31.9936  9168.09  94.7641
 32.0356  9319.91  95.6139
 32.0776  9361.21  95.7108
 32.1196  9215.38  95.0454
 32.1616  9126.44  94.0492
 32.2036  9090.32  94.3772
 32.2456  9046.65  94.5295
 32.2876  9216.24  94.9054
 32.3296  9072.21  94.1249
 32.3716  9118.19  94.4719
 32.4136  9136.89  94.8058
 32.4556  9331.21  95.1618
 32.4976  9285.84  94.8555
 32.5396  9099.93  93.9609
 32.5816  8964.88  93.3792
 32.6236  8956.34  93.4086
 32.6656  9257.49  95.5139
 32.7076  8932.15  93.4662
 32.7496  9090.77  93.963
 32.7916  9202.11  94.5006
 32.8336  9017.38  93.6397
 32.8756  9171.87  94.169
 32.9176  9078.67  94.171
 32.9596  9037.88  94.0336
 33.0016  9050.29  93.894
 33.0436  9122.02  94.4488
 33.0856  8998  93.8626
 33.1276  8841.66  92.7691
 33.1696  9130.06  94.1185
 33.2116  9012.27  93.7283
 33.2536  9028.1  93.8151
 33.2956  9103.24  94.295
 33.3376  8871.25  92.8316
 33.3796  9041.58  93.9197
 33.4216  8965.41  93.134
 33.4636  8882.51  92.8332
 33.5056  8848.78  92.8931
 33.5476  8890.27  93.1024
 33.5896  8959.22  93.2344
 33.6316  8794.23  92.6917
 33.6736  8724.48  92.5645
 33.7156  8772.82  92.8676
 33.7576  8855.69  92.9262
 33.7996  9050.5  93.7158
 33.8416  8747.32  92.3077
 33.8836  8906.22  92.9277
 33.9256  8783.12  92.3402
 33.9676  8973.9  93.237
 34.0096  8668.41  91.9411
 34.0516  8750.5  92.0171
 34.0936  8694.97  91.9882
 34.1356  8814.39  92.3622
 34.1776  8677.76  91.6597
 34.2196  8610.45  91.4741
 34.2616  8647.85  91.8043
 34.3036  8696.54  92.3162
 34.3456  8667.94  91.9222
 34.3876  8662  91.8503
 34.4296  8744.59  91.9794
 34.4716  8883.05  92.8479
 34.5136  8727.07  92.2445
 34.5556  8636.34  92.0196
 34.5976  8812.1  92.7473
 34.6396  8656.43  91.6362
 34.6816  8628.22  91.5966
 34.7236  8695.88  91.7386
 34.7656  8796.32  92.4662
 34.8076  8590.95  91.6958
 34.8496  8639.77  91.8241
 34.8916  8618.14  91.5757
 34.9336  8754.49  92.2628
 34.9756  8779.92  92.3116
 35.0176  8584.41  91.8166
 35.0596  8534.81  91.3652
 35.1016  8596.28  91.4692
 35.1436  8690.63  91.656
 35.1856  8618.41  91.3999
 35.2276  8567.57  91.3073
 35.2696  8550.99  91.4049
 35.3116  8595.73  91.7436
 35.3536  8436.4  90.6014
 35.3956  8548.95  90.9044
 35.4376  8580.35  91.6367
 35.4796  8483.75  91.1766
 35.5216  8499.63  91.2232
 35.5636  8346.1  91.1346
 35.6056  8513.9  91.0645
 35.6476  8622.71  91.5324
 35.6896  8596.73  91.4828
 35.7316  8493.67  90.9119
 35.7736  8415.46  90.6868
 35.8156  8483.08  91.0432
 35.8576  8427.05  90.9992
 35.8996  8542.42  91.5809
 35.9416  8895.92  92.877
 35.9836  8489.18  91.1537
 36.0256  8498.4  91.2198
 36.0676  8522.45  91.0986
 36.1096  8433.24  90.769
 36.1516  8462.82  90.8178
 36.1936  8493.59  90.8303
 36.2356  8515.04  91.5868
 36.2776  8389.64  90.4043
 36.3196  8335.6  89.7736
 36.3616  8427.28  90.3959
 36.4036  8509.09  90.8915
 36.4456  8440.59  90.723
 36.4876  8364.67  90.2698
 36.5296  8232.69  89.5953
 36.5716  8496.94  91.8111
 36.6136  8566.19  90.9431
 36.6556  8568.27  91.172
 36.6976  8433.16  90.9418
 36.7396  8373.3  90.3396
 36.7816  8416.28  90.9573
 36.8236  8356.68  90.5451
 36.8656  8320.95  90.4403
 36.9076  8380.55  90.6267
 36.9496  8295.28  90.1719
 36.9916  8286.46  89.7428
 37.0336  8461.83  91.0155
 37.0756  8332.3  90.0973
 37.1176  8210.93  89.708
 37.1596  8262.84  89.9927
 37.2016  8195.69  89.8577
 37.2436  8344.32  89.9806
 37.2856  8255.15  89.7406
 37.3276  8400.07  89.8805
 37.3696  8161.27  89.4699
 37.4116  8343.29  90.3824
 37.4536  8198.09  89.4534
 37.4956  8127.01  89.1196
 37.5376  8254.34  91.3572
 37.5796  8163.38  90.8185
 37.6216  8101.54  88.7414
 37.6636  8137.69  88.834
 37.7056  8181.31  89.2727
 37.7476  8148.25  88.6167
 37.7896  8093.71  88.8327
 37.8316  7886.52  87.8458
 37.8736  8248.92  89.3827
 37.9156  8119.69  88.6721
 37.9576  8176.25  88.8625
 37.9996  7948.03  87.3387
 38.0416  8065.42  88.7867
 38.0836  8232.65  89.6112
 38.1256  8183.96  89.3084
 38.1676  8060.3  88.7677
 38.2096  8018.21  88.1476
 38.2516  8150.71  89.1003
 38.2936  8120.85  88.718
 38.3356  8112.98  88.6053
 38.3776  7967.31  88.0683
 38.4196  8220.43  89.3216
 38.4616  8092.47  88.8501
 38.5036  8155.57  89.0389
 38.5456  8009.87  89.0696
 38.5876  8098.78  89.5859
 38.6296  8043.92  88.2413
 38.6716  8084.74  88.2554
 38.7136  8005.8  87.7659
 38.7556  7951.65  87.9711
 38.7976  7953.88  87.9245
 38.8396  7992.07  88.5896
 38.8816  7948.78  88.1266
 38.9236  7850.55  87.3944
 38.9656  7908.56  87.6306
 39.0076  8041.07  87.7637
 39.0496  7932.55  87.7131
 39.0916  7998.98  87.7168
 39.1336  7940.13  87.8114
 39.1756  7936.54  87.8553
 39.2176  7881.46  88.0858
 39.2596  7980.65  88.5547
 39.3016  7975.16  88.0838
 39.3436  7986.03  88.5869
 39.3856  8032.13  88.287
 39.4276  7945.78  88.3108
 39.4696  7922.53  87.8036
 39.5116  7907.42  88.2336
 39.5536  8040.7  89.4224
 39.5956  8071.75  88.6805
 39.6376  7994.15  88.2732
 39.6796  7942.7  87.7125
 39.7216  7964.66  87.9477
 39.7636  8013.74  88.7874
 39.8056  7892.55  87.8899
 39.8476  7965.97  88.5512
 39.8896  7890.32  87.7534
 39.9316  7868.48  87.8899
 39.9736  8052.75  88.4728
 40.0156  7988.99  87.9529
 40.0576  7990.72  88.3193
 40.0996  8183.11  88.5476
 40.1416  7992.24  88.3079
 40.1836  7945.77  87.9467
 40.2256  8111.3  88.8999
 40.2676  7937.52  88.0514
 40.3096  8037.4  88.5174
 40.3516  8129.01  89.1262
 40.3936  8086.75  88.4626
 40.4356  8028.67  88.3343
 40.4776  8065.44  88.959
 40.5196  8032.58  88.901
 40.5616  7987.15  88.2872
 40.6036  7942.24  88.2944
 40.6456  8112.31  88.8449
 40.6876  8114.54  88.8434
 40.7296  8041.66  88.5839
 40.7716  8111.74  89.0933
 40.8136  7876.3  87.7313
 40.8556  8037.74  88.7598
 40.8976  7905.14  87.9499
 40.9396  7910.71  88.3251
 40.9816  8058.83  88.4345
 41.0236  8107.52  88.4898
 41.0656  8041.5  88.6544
 41.1076  8009.56  88.2531
 41.1496  8001.91  88.1174
 41.1916  8075.05  88.8445
 41.2336  8007.73  88.4459
 41.2756  8122.86  88.7022
 41.3176  8053.35  88.9347
 41.3596  8063.68  88.7215
 41.4016  8047.34  88.9056
 41.4436  8085.19  88.8874
 41.4856  8037.02  88.7945
 41.5276  7944.44  88.2944
 41.5696  7963.17  88.0219
 41.6116  8014.55  88.7053
 41.6536  8026.96  88.6371
 41.6956  7965.17  88.3477
 41.7376  7995.81  88.5489
 41.7796  8045.28  88.7116
 41.8216  8024.41  88.8251
 41.8636  8045.78  88.8851
 41.9056  7848.47  87.5736
 41.9476  8056.2  88.9553
 41.9896  8056  88.6127
 42.0316  7958.47  88.1712
 42.0736  7977.57  88.3815
 42.1156  7929.66  87.9587
 42.1576  8027.34  88.6021
 42.1996  8101.82  89.1513
 42.2416  7991.1  88.1245
 42.2836  7965.36  88.0924
 42.3256  7845.78  87.5443
 42.3676  8007.12  88.2383
 42.4096  7846.37  87.3102
 42.4516  7836.75  87.3454
 42.4936  7868.73  87.5957
 42.5356  7864.52  87.7082
 42.5776  7874.84  87.7021
 42.6196  8056.84  88.7591
 42.6616  7829.11  87.6697
 42.7036  7926.83  87.5994
 42.7456  7800.65  87.2479
 42.7876  7859.06  87.6801
 42.8296  7805.83  87.2215
 42.8716  8016.61  88.5476
 42.9136  7870.19  87.5226
 42.9556  7892.84  87.7837
 42.9976  7961.02  88.1157
 43.0396  7861.95  87.3006
 43.0816  7883.19  87.802
 43.1236  7811.52  87.4618
 43.1656  7899.26  87.7802
 43.2076  7739.93  87.0002
 43.2496  7851.25  87.424
 43.2916  7743.39  87.1939
 43.3336  7781.71  87.2467
 43.3756  7787.26  87.0237
 43.4176  7771.88  87.0276
 43.4596  7830.27  87.2067
 43.5016  7836.56  87.6527
 43.5436  7755.38  87.092
 43.5856  7714.32  86.8973
 43.6276  7719.69  86.8178
 43.6696  7724.31  87.1109
 43.7116  7790.02  86.9648
 43.7536  7748.05  87.2125
 43.7956  7505.99  87.0217
 43.8376  7699.8  86.6839
 43.8796  7674.16  86.626
 43.9216  7711.12  86.7516
 43.9636  7680.47  86.695
 44.0056  7715.91  87.1219
 44.0476  7561.53  85.8868
 44.0896  7687.81  86.9363
 44.1316  7730.55  86.6972
 44.1736  7733.77  86.8425
 44.2156  7726.5  86.6335
 44.2576  7647.05  86.5326
 44.2996  7661.42  86.5705
 44.3416  7699.48  86.5688
 44.3836  7543.05  86.0002
 44.4256  7482.92  85.3141
 44.4676  7638.16  86.3413
 44.5096  7535.54  85.9026
 44.5516  7535.88  85.8514
 44.5936  7533.54  85.8082
 44.6356  7548.04  85.6302
 44.6776  7506.91  85.7038
 44.7196  7596.99  86.5449
 44.7616  7582.57  87.771
 44.8036  7440.61  85.4017
 44.8456  7507.51  85.982
 44.8876  7464.32  85.5844
 44.9296  7636.28  86.0167
 44.9716  7513.28  85.7439
 45.0136  7580.2  86.0642
 45.0556  7572.98  85.9874
 45.0976  7438.3  85.392
 45.1396  7438.52  85.1589
 45.1816  7418.94  84.9823
 45.2236  7474.38  85.1915
 45.2656  7402.94  85.2946
 45.3076  7419.19  85.1595
 45.3496  7383.28  85.2686
 45.3916  7301.55  85.0474
 45.4336  7381.6  85.3517
 45.4756  7275.32  84.5945
 45.5176  7528  85.6655
 45.5596  7482.88  85.54
 45.6016  7456.61  85.8053
 45.6436  7369.35  84.4839
 45.6856  7305.18  84.7656
 45.7276  7336.11  86.2668
 45.7696  7391.25  86.2403
 45.8116  7391.23  85.6671
 45.8536  7340  85.2617
 45.8956  7406.83  85.0035
 45.9376  7461.94  84.7811
 45.9796  7369.15  84.9284
 46.0216  7503.93  86.0518
 46.0636  7442.74  84.8456
 46.1056  7270.21  83.8428
 46.1476  7467.36  85.5654
 46.1896  7408.69  85.3814
 46.2316  7333.25  84.8174
 46.2736  7180.44  84.2856
 46.3156  7409.54  85.2087
 46.3576  7276.12  84.6401
 46.3996  7329.37  85.1069
 46.4416  7396.29  85.0751
 46.4836  7282.9  84.7702
 46.5256  7337.82  85.027
 46.5676  7295.13  84.8944
 46.6096  7272.49  84.7032
 46.6516  7298.6  83.8948
 46.6936  7304.92  84.4151
 46.7356  7399.21  85.0686
 46.7776  7389.58  85.8797
 46.8196  7266.93  84.7494
 46.8616  7139.16  83.9643
 46.9036  7158.16  83.7292
 46.9456  7146.79  83.3197
 46.9876  7178.24  83.5774
 47.0296  7148.31  84.0883
 47.0716  7201.41  84.2162
 47.1136  7126.86  83.449
 47.1556  7122.25  83.3026
 47.1976  7308.47  84.4602
 47.2396  7119  83.7563
 47.2816  7153.67  83.6609
 47.3236  7065.6  83.5104
 47.3656  7249.31  84.517
 47.4076  7100.85  83.4638
 47.4496  7103.19  83.5679
 47.4916  7091.19  83.6849
 47.5336  7220.06  84.2494
 47.5756  7237.22  84.4657
 47.6176  7106.79  83.6121
 47.6596  7073.42  83.1228
 47.7016  7151.55  83.3993
 47.7436  7218.64  84.124
 47.7856  7190.36  83.9822
 47.8276  7133.84  83.7007
 47.8696  7116.07  83.6912
 47.9116  7154.58  83.6342
 47.9536  7138.66  83.4877
 47.9956  7034.63  83.5694
 48.0376  7011.82  83.2063
 48.0796  7209.97  84.5094
 48.1216  7134.18  83.8718
 48.1636  7248.8  84.1225
 48.2056  7123.95  83.6614
 48.2476  7195.19  84.3852
 48.2896  7065.24  83.5348
 48.3316  7068.84  83.5051
 48.3736  6939.86  82.7566
 48.4156  7004.33  82.9935
 48.4576  6946.03  82.9331
 48.4996  7086.34  83.2243
 48.5416  7140.49  83.8642
 48.5836  7046.05  82.9854
 48.6256  7084.44  83.4148
 48.6676  7080.41  83.9114
 48.7096  7035.56  82.9285
 48.7516  7032.54  83.0496
 48.7936  6975.68  82.7771
 48.8356  7068.59  83.374
 48.8776  7010.24  83.5876
 48.9196  7098.23  83.4837
 48.9616  7004.24  83.311
 49.0036  7022.12  83.7618
 49.0456  6942.95  83.2691
 49.0876  6991.35  83.1108
 49.1296  6902.34  82.7201
 49.1716  6907.36  82.6375
 49.2136  6964.19  82.8871
 49.2556  6953.92  82.8762
 49.2976  6996.31  83.1917
 49.3396  6984.98  83.1832
 49.3816  6985.67  82.6199
 49.4236  6990.02  83.074
 49.4656  6871.24  82.3807
 49.5076  6918.45  82.4108
 49.5496  6905.65  82.3876
 49.5916  6886.31  82.201
 49.6336  6911.71  82.5481
 49.6756  6914.88  82.8006
 49.7176  6851.77  82.3585
 49.7596  6886.66  82.3464
 49.8016  6901.49  82.3545
 49.8436  6803.71  82.0624
 49.8856  6871.33  82.4691
 49.9276  6843.15  82.3962
 49.9696  6794.51  82.0897
 50.0116  6888.78  82.7929
 50.0536  6820.32  82.3235
 50.0956  6779.7  82.1478
 50.1376  6812.22  82.0532
 50.1796  6620.07  81.147
 50.2216  6811.13  82.3012
 50.2636  6904.65  82.4877
 50.3056  6774.28  81.8713
 50.3476  6819.61  82.1701
 50.3896  6693.66  81.3791
 50.4316  6777.56  81.7214
 50.4736  6723.91  81.6198
 50.5156  6875.12  82.5269
 50.5576  6759.8  81.5853
 50.5996  6715.43  81.597
 50.6416  6790.84  81.9837
 50.6836  6794.7  82.0621
 50.7256  6778.09  81.8988
 50.7676  6692.98  81.6644
 50.8096  6725.96  81.4328
 50.8516  6729.9  81.8712
 50.8936  6703.19  81.4962
 50.9356  6823.98  82.3207
 50.9776  6726.66  81.8933
 51.0196  6537.98  80.8636
 51.0616  6702.82  81.1999
 51.1036  6854.96  82.4816
 51.1456  6728.74  81.617
 51.1876  6579.3  80.0756
 51.2296  6722.25  81.5731
 51.2716  6634.09  80.7502
 51.3136  6662.12  81.3675
 51.3556  6631.59  80.8136
 51.3976  6608.06  80.8151
 51.4396  6528.27  80.6263
 51.4816  6559.15  80.6662
 51.5236  6637.38  81.2091
 51.5656  6641.51  80.8681
 51.6076  6651.43  80.9992
 51.6496  6658.76  81.2523
 51.6916  6551.78  80.9271
 51.7336  6660.14  81.7059
 51.7756  6583.49  80.93
 51.8176  6680.74  81.6281
 51.8596  6589.27  81.082
 51.9016  6666.05  81.1625
 51.9436  6632.65  82.3975
 51.9856  6492.46  81.9537
 52.0276  6636.35  81.3798
 52.0696  6524.68  80.7466
 52.1116  6580.29  81.2272
 52.1536  6536.04  80.8251
 52.1956  6626.61  80.8642
 52.2376  6700.22  81.4762
 52.2796  6647.43  80.97
 52.3216  6436.48  80.3563
 52.3636  6564.77  80.7321
 52.4056  6481.81  80.0714
 52.4476  6520.87  80.6813
 52.4896  6397.11  79.961
 52.5316  6472.29  80.4709
 52.5736  6419.11  79.8856
 52.6156  6494.83  80.7058
 52.6576  6568.3  80.6206
 52.6996  6418.82  80.6641
 52.7416  6486.2  80.9414
 52.7836  6487.62  80.8377
 52.8256  6554.39  80.4584
 52.8676  6313.76  79.5493
 52.9096  6612.82  81.4941
 52.9516  6483.96  81.0481
 52.9936  6344.25  80.5551
 53.0356  6378.72  79.7776
 53.0776  6389.95  80.108
 53.1196  6443.36  80.5668
 53.1616  6338.2  79.9537
 53.2036  6312.45  79.748
 53.2456  6282.33  79.6523
 53.2876  6420.3  80.2276
 53.3296  6334.95  80.0201
 53.3716  6474.4  80.6444
 53.4136  6277.47  79.5494
 53.4556  6322.83  79.866
 53.4976  6310.68  79.6434
 53.5396  6366.42  80.3841
 53.5816  6288.85  79.5317
 53.6236  6288.49  79.8621
 53.6656  6261.5  79.3302
 53.7076  6374.37  80.0009
 53.7496  6259.35  79.3972
 53.7916  6294.76  79.7468
 53.8336  6247.86  79.3482
 53.8756  6174.29  79.4178
 53.9176  6361.58  79.9638
 53.9596  6358.75  80.7301
 54.0016  6247.53  79.3516
 54.0436  6263.61  79.6708
 54.0856  6344.72  79.6056
 54.1276  6301.34  79.5426
 54.1696  6309.81  79.761
 54.2116  6326.59  79.6249
 54.2536  6331.65  79.4775
 54.2956  6323.79  79.4686
 54.3376  6369.56  80.2455
 54.3796  6251.65  79.3913
 54.4216  6331.88  79.9564
 54.4636  6313.91  79.7985
 54.5056  6392.5  80.1161
 54.5476  6287.87  79.7894
 54.5896  6259.94  79.4477
 54.6316  6324.88  79.7143
 54.6736  6305.32  79.6632
 54.7156  6321.56  79.7865
 54.7576  6282.59  79.53
 54.7996  6270.51  79.5862
 54.8416  6257.99  79.5675
 54.8836  6195.03  79.2767
 54.9256  6274.71  79.5336
 54.9676  6259.56  79.3105
 55.0096  6185.15  78.8955
 55.0516  6276.68  79.7159
 55.0936  6242.31  79.1218
 55.1356  6230.52  79.085
 55.1776  6207.52  79.2034
 55.2196  6314.58  79.6713
 55.2616  6251.1  79.482
 55.3036  6180.81  79.1944
 55.3456  6187.38  79.3908
 55.3876  6283.59  79.7424
 55.4296  6338.85  80.0728
 55.4716  6209.03  79.2756
 55.5136  6368.97  80.0441
 55.5556  6225.25  79.2077
 55.5976  6274.1  79.5797
 55.6396  6232.96  79.2572
 55.6816  6253.27  79.2726
 55.7236  6277.51  79.4777
 55.7656  6302.85  79.3802
 55.8076  6294.89  79.3179
 55.8496  6097.09  78.3723
 55.8916  6168.85  79.0357
 55.9336  6220.29  79.1802
 55.9756  6213.3  79.017
 56.0176  6170.29  78.9096
 56.0596  6188.32  79.0078
 56.1016  6268.25  79.5345
 56.1436  6159.69  79.0992
 56.1856  6292.08  79.6845
 56.2276  6262.51  79.5427
 56.2696  6168.94  78.9298
 56.3116  6204.06  79.5512
 56.3536  6129.74  78.7374
 56.3956  6240.82  79.4383
 56.4376  6101.37  78.5761
 56.4796  6193.14  78.9708
 56.5216  6153.59  79.0874
 56.5636  6281.83  79.5002
 56.6056  6127.47  78.7371
 56.6476  6175.89  78.6855
 56.6896  6191.81  79.2265
 56.7316  6216.55  79.2956
 56.7736  6239.26  79.443
 56.8156  6204.42  79.2132
 56.8576  6202.68  79.151
 56.8996  6183.61  78.966
 56.9416  6170.34  79.1743
 56.9836  6174.44  78.7201
 57.0256  6197.93  79.1899
 57.0676  6128.52  78.8655
 57.1096  6159.86  78.862
 57.1516  6174.6  79.0284
 57.1936  6196.48  78.9039
 57.2356  6220.84  79.3799
 57.2776  6243.72  79.4833
 57.3196  6260.94  79.9654
 57.3616  6208.19  79.1179
 57.4036  6212.74  79.2094
 57.4456  6185.36  78.9954
 57.4876  6261.49  79.3438
 57.5296  6113.49  78.7418
 57.5716  6046.64  78.297
 57.6136  6078.37  78.3219
 57.6556  6208.75  79.2994
 57.6976  6155.54  78.7736
 57.7396  6052.67  78.4875
 57.7816  6007.61  78.5489
 57.8236  6094.93  78.9133
 57.8656  6121.92  78.746
 57.9076  6119.32  78.7648
 57.9496  6150.65  79.3119
 57.9916  6097.7  78.4781
 58.0336  6161.28  79.17
 58.0756  6055.84  78.1189
 58.1176  6009.3  77.822
 58.1596  6166.42  79.4052
 58.2016  6236.26  79.0829
 58.2436  6106.83  78.661
 58.2856  6134.8  78.77
 58.3276  6111.05  78.9813
 58.3696  6034.5  78.2271
 58.4116  6081.45  78.4062
 58.4536  6100.45  78.4035
 58.4956  6136.06  78.8209
 58.5376  6255.1  79.15
 58.5796  6084.95  78.4969
 58.6216  6196.82  79.0154
 58.6636  6214.58  79.3607
 58.7056  6121.05  78.6058
 58.7476  6100.56  78.924
 58.7896  6125.83  78.7278
 58.8316  6133.74  78.7672
 58.8736  6108.53  78.6225
 58.9156  6205.34  79.2767
 58.9576  6217.8  79.6951
 58.9996  6263.44  79.2053
 59.0416  6251.74  79.5152
 59.0836  6101.02  78.4661
 59.1256  6112.7  79.2501
 59.1676  6132.09  79.6888
 59.2096  6303.14  80.1098
 59.2516  6454.57  80.6332
 59.2936  6358.2  80.3657
 59.3356  6190.19  79.173
 59.3776  6332.89  80.2535
 59.4196  6199.45  79.3382
 59.4616  6030.44  78.1096
 59.5036  6089.82  78.5275
 59.5456  6286.84  79.476
 59.5876  6251.14  79.4445
 59.6296  6148.97  78.8625
 59.6716  6104.26  78.6335
 59.7136  6057.63  78.3209
 59.7556  6276.03  79.8594
 59.7976  5982.24  77.7111
 59.8396  6127.8  78.5443
 59.8816  6073.51  78.7379
 59.9236  6230.84  79.394
 59.9656  6039.46  78.4262
 60.0076  6210.23  78.8752
 60.0496  6271.31  79.7759
 60.0916  6426.06  80.1536
 60.1336  6233.06  80.0661
 60.1756  6085.72  80.3034
 60.1996  0.0000000E+00  0.0000000E+00