File: docs/examples/opeando_xrd/IS17_D/Data/IS17_D/17_Db_f00012.xye
# /beamlines/bl04/projects/cycle2025-II/20250340211-lsimonelli/DATA/IS17_D/17_Db_f00012.xye : mythproc.py merge -s 0.006 -l 0.5 -f /beamlines/bl04/inhouse/ff/FlatField/ff_20Nov2024rod8mm60s_17keV.raw -b True -c true -o xye /beamlines/bl04/projects/cycle2025-II/20250340211-lsimonelli/DATA/IS17_D/17_Db_00012.dat
# IsMon = [6771464, 6773117, 6772520]  IsPos = [-1.5000, -2.4885, -3.4986]
# Wave = 0.4962  CalPath /beamlines/bl04/projects/cycle2025-II/20250340211-lsimonelli/DATA/Align/Si_Pos1_25keV_f00001.cal
# Date = 2025-09-23_21:01:26 Dt = 4.8000  Bin = 0.0060  <imon> = 6772367 +/- 683 (Min/Max) 6771464 / 6773117
# icurr 252.1702  mocoIn 1.7204E-05  mocoOut 0.8074  i15 7.09075e+06  imon 6.77237e+06  i7 6.6667  iEMpd_timer 4.8000  iEMpd_1 3.4190E-08  iEMpd_2 7.8396E-08  iEMpd_3 1.5751E-08  iEMpd_4 4.7116E-08  iEMhp_timer 4.8000  iEMhp_1 4.9275E-06  iEMhp_2 -2.5571E-08  iEMhp_3 -2.3330E-08  iEMhp_4 -2.1393E-08
#      9776
 1.5856  41058.1  208.081
 1.6276  48104.3  221.364
 1.6696  54227.5  234.202
 1.7116  61762.4  250.433
 1.7536  70083  265.633
 1.7956  74586.6  274.72
 1.8376  71219.4  268.872
 1.8796  60712  246.43
 1.9216  49600.9  223.621
 1.9636  43182.1  208.321
 2.0056  38822.5  196.263
 2.0476  36023.1  191.128
 2.0896  34374.4  185.608
 2.1316  33293.4  181.788
 2.1736  32128.7  179.996
 2.2156  32439.9  179.415
 2.2576  31361.4  177.04
 2.2996  29895.9  173.488
 2.3416  30723  174.468
 2.3836  30086.4  172.757
 2.4256  29121.9  170.519
 2.4676  29139.4  170.328
 2.5096  29374.3  171.07
 2.5516  38506.4  200.331
 2.5936  161004  401.466
 2.6356  33409.7  183.65
 2.6776  27836.9  166.526
 2.7196  26507.3  162.98
 2.7616  26360  162.325
 2.8036  25430.2  159.588
 2.8456  25329.2  159.904
 2.8876  25032  158.789
 2.9296  24334.9  156.725
 2.9716  24275.1  156.036
 3.0136  23933.4  155
 3.0556  24038.4  155.716
 3.0976  24016.2  154.586
 3.1396  23566  153.843
 3.1816  23404.3  153.244
 3.2236  23331.4  152.989
 3.2656  23025.7  151.062
 3.3076  22997.6  152.404
 3.3496  23399.3  152.92
 3.3916  23630.6  153.252
 3.4336  23809.9  154.407
 3.4756  24461.2  156.446
 3.5176  25118.5  158.301
 3.5596  24532.6  159.387
 3.6016  24805.2  157.381
 3.6436  24102.1  156.218
 3.6856  23735.5  153.369
 3.7276  22762.9  151.242
 3.7696  22793.1  151.327
 3.8116  22169.4  149.335
 3.8536  22235.6  149.494
 3.8956  22244.1  149.35
 3.9376  23005.6  152.181
 3.9796  21992.9  148.267
 4.0216  22179.1  147.947
 4.0636  22136.3  149.238
 4.1056  22183.9  149.061
 4.1476  22503.7  150.439
 4.1896  22445.8  150.109
 4.2316  22568.6  150.345
 4.2736  23014.5  151.632
 4.3156  23122  152.209
 4.3576  24040.3  155.109
 4.3996  24189.7  155.659
 4.4416  24947.9  157.874
 4.4836  26403.8  162.573
 4.5256  26143.6  162.372
 4.5676  25748  161.387
 4.6096  25952.1  161.073
 4.6516  26734.5  162.815
 4.6936  26907.7  164.168
 4.7356  27765.1  166.581
 4.7776  26948.4  163.943
 4.8196  26690.8  163.796
 4.8616  25954.1  161.155
 4.9036  25995.5  160.891
 4.9456  26000.1  161.55
 4.9876  25408.3  159.605
 5.0296  25224.8  158.86
 5.0716  25027.5  158.841
 5.1136  25207.3  159.28
 5.1556  25718.3  160.352
 5.1976  36398.9  190.737
 5.2396  26558.8  162.641
 5.2816  26006.2  161.401
 5.3236  26001.4  161.083
 5.3656  25432.7  160.225
 5.4076  25175.8  159.548
 5.4496  25003.5  158.514
 5.4916  25245.2  159.034
 5.5336  25130.4  158.682
 5.5756  25239.8  159.038
 5.6176  25064.9  157.95
 5.6596  25627.3  160.517
 5.7016  25545  159.701
 5.7436  25708.7  160.48
 5.7856  25441.8  159.708
 5.8276  25608  159.951
 5.8696  26026.6  161.312
 5.9116  25690.1  160.929
 5.9536  26325.1  162.684
 5.9956  26322.5  162.084
 6.0376  26197.8  162.297
 6.0796  26537  163.18
 6.1216  26542.2  163.385
 6.1636  26959.7  163.746
 6.2056  26791.7  163.895
 6.2476  27277.4  165.062
 6.2896  27373.6  165.228
 6.3316  27331.4  165.263
 6.3736  27485.2  165.629
 6.4156  27213.2  164.755
 6.4576  27748.4  165.941
 6.4996  27691.7  166.235
 6.5416  27864.3  166.88
 6.5836  28188.2  168.079
 6.6256  28003.8  167.098
 6.6676  28252.6  167.418
 6.7096  28377.4  168.627
 6.7516  28753.3  169.4
 6.7936  30376.2  173.272
 6.8356  30751.8  174.682
 6.8776  30038.4  173.44
 6.9196  29211.4  171.429
 6.9616  29720.8  172.34
 7.0036  30191.3  173.392
 7.0456  30539.6  173.705
 7.0876  30444.4  174.996
 7.1296  30117.7  173.302
 7.1716  30019.6  172.566
 7.2136  29807.7  171.741
 7.2556  30129.5  172.819
 7.2976  30101.5  173.227
 7.3396  29824.4  172.628
 7.3816  29901.7  173.077
 7.4236  30308.2  173.551
 7.4656  30566  173.745
 7.5076  30880.2  174.8
 7.5496  30324.8  173.745
 7.5916  30780.3  175.093
 7.6336  31504.2  177.028
 7.6756  31212.4  176.056
 7.7176  31858.6  178.181
 7.7596  31531.7  178.469
 7.8016  38336.3  199.197
 7.8436  32208.8  179.282
 7.8856  31995.6  178.301
 7.9276  32659.8  180.539
 7.9696  32581.5  180.621
 8.0116  33622.2  182.427
 8.0536  34527  184.75
 8.0956  36812.9  191.959
 8.1376  34922.2  186.449
 8.1796  34522.4  185.897
 8.2216  35929.3  188.404
 8.2636  36559.4  190.305
 8.3056  35982.5  189.558
 8.3476  37934.4  193.951
 8.3896  36603.2  191.042
 8.4316  36057.4  189.336
 8.4736  35836.2  188.235
 8.5156  35444.1  187.472
 8.5576  35483.9  188.526
 8.5996  35185.6  186.637
 8.6416  35258.3  188.058
 8.6836  35060.8  187.37
 8.7256  35923.2  189.115
 8.7676  38989.6  200.028
 8.8096  39458.4  198.44
 8.8516  36987.1  191.744
 8.8936  38445.8  195.391
 8.9356  36094.1  189.64
 8.9776  35705.5  188.697
 9.0196  35825.7  188.699
 9.0616  35990.3  188.634
 9.1036  37972.3  194.958
 9.1456  35177.6  186.982
 9.1876  34994  186.424
 9.2296  33947.5  183.078
 9.2716  33850.5  182.857
 9.3136  33884.8  182.948
 9.3556  34287.7  184.006
 9.3976  33185.4  181.527
 9.4396  32795.3  180.358
 9.4816  33000.3  180.797
 9.5236  32578.7  179.524
 9.5656  32343.8  179.236
 9.6076  31805.8  178.244
 9.6496  31940.8  178.516
 9.6916  31706.4  177.814
 9.7336  32158.1  178.867
 9.7756  31956.6  179.49
 9.8176  31635  178.137
 9.8596  31503.4  176.247
 9.9016  31167.1  175.295
 9.9436  30935.5  174.4
 9.9856  31242.9  175.703
 10.0276  30293.5  174.062
 10.0696  30510.3  173.734
 10.1116  30149.7  172.957
 10.1536  29766.4  171.538
 10.1956  29281.6  170.241
 10.2376  28974.4  168.863
 10.2796  28789.4  168.427
 10.3216  28529  167.789
 10.3636  28564.5  168.079
 10.4056  32882.3  180.754
 10.4476  33800  182.845
 10.4896  38083.7  193.461
 10.5316  34519.6  184.577
 10.5736  28600.8  168.779
 10.6156  28694  168.812
 10.6576  34708.4  184.081
 10.6996  28344.9  167.06
 10.7416  27536.2  164.87
 10.7836  28312.5  167.843
 10.8256  26275.2  162.117
 10.8676  26295.9  161.73
 10.9096  26321.7  161.849
 10.9516  25887.9  159.475
 10.9936  26949.9  162.923
 11.0356  26530.6  162.254
 11.0776  28225.2  166.674
 11.1196  27963.7  166.682
 11.1616  25840.4  159.896
 11.2036  27275.8  164.125
 11.2456  29220.6  170.623
 11.2876  25484.9  159.08
 11.3296  25457.5  158.906
 11.3716  25729.2  159.486
 11.4136  25377.6  159.221
 11.4556  25582  159.525
 11.4976  27405.3  164.082
 11.5396  27339.7  164.047
 11.5816  25226.2  158.017
 11.6236  24600.9  156.487
 11.6656  24767.6  155.97
 11.7076  23923.9  154.095
 11.7496  24261.1  159.124
 11.7916  24979.1  156.719
 11.8336  23618.9  153.286
 11.8756  24321.5  155.077
 11.9176  23496.6  152.348
 11.9596  23359.8  151.836
 12.0016  23070.7  151.642
 12.0436  23186.9  151.486
 12.0856  22712.6  150.413
 12.1276  22921.4  151.058
 12.1696  22960.3  150.32
 12.2116  23504.9  152.093
 12.2536  26191.2  161.38
 12.2956  23609.7  152.587
 12.3376  23658.2  152.955
 12.3796  23080  151.544
 12.4216  23655.8  152.62
 12.4636  24445.5  156.098
 12.5056  23047.9  150.848
 12.5476  22850.4  149.72
 12.5896  22508.9  149.228
 12.6316  22635.2  149.79
 12.6736  22474.6  149.597
 12.7156  23100.8  151.659
 12.7576  22669.3  150.478
 12.7996  22998.2  150.229
 12.8416  23306.4  152.273
 12.8836  24222  155.039
 12.9256  23560.7  151.979
 12.9676  23200  151.196
 13.0096  23338.6  152.756
 13.0516  23109.6  151.052
 13.0936  23069.8  151.048
 13.1356  23297.7  151.059
 13.1776  23470.4  152.616
 13.2196  23317  151.765
 13.2616  22787.9  150.34
 13.3036  23285.6  152.108
 13.3456  22881.4  150.749
 13.3876  23618.1  152.661
 13.4296  23401  152.11
 13.4716  23596  152.372
 13.5136  23433.3  151.972
 13.5556  23447.8  152.634
 13.5976  23461  152.851
 13.6396  23626.8  152.755
 13.6816  23703.8  153.353
 13.7236  24113.4  154.386
 13.7656  26075.2  160.981
 13.8076  27178.9  162.99
 13.8496  25108.4  157.499
 13.8916  23939.6  154.737
 13.9336  22930.4  150.736
 13.9756  22937.7  150.148
 14.0176  22738  150.159
 14.0596  23824.3  153.628
 14.1016  22807  150.738
 14.1436  22547.4  149.029
 14.1856  22171.2  148.064
 14.2276  22465  149.521
 14.2696  22585.4  149.773
 14.3116  21743  146.866
 14.3536  21365.4  145.74
 14.3956  21343.6  145.397
 14.4376  21467  145.612
 14.4796  21284.3  144.98
 14.5216  21164.9  145.349
 14.5636  21750.2  146.926
 14.6056  21180.7  144.55
 14.6476  20789.8  142.479
 14.6896  20522.1  142.086
 14.7316  20050.7  141.45
 14.7736  19944  140.237
 14.8156  20071  140.703
 14.8576  19800.3  139.62
 14.8996  19907.1  141.167
 14.9416  19278.9  138.93
 14.9836  19335.4  139.123
 15.0256  18760.7  135.983
 15.0676  18489.2  135.296
 15.1096  18415.7  134.773
 15.1516  18179.8  134.441
 15.1936  18260.9  134.19
 15.2356  18127.5  133.97
 15.2776  18090.4  133.434
 15.3196  17831  133.438
 15.3616  17673.7  132.613
 15.4036  17549.6  132.01
 15.4456  18040.3  133.284
 15.4876  17408.8  130.841
 15.5296  17386.4  131.031
 15.5716  16869.4  128.69
 15.6136  17031.5  129.622
 15.6556  19249.2  137.024
 15.6976  17552.3  130.916
 15.7396  17361.1  130.801
 15.7816  17143.5  129.5
 15.8236  16718.8  128.557
 15.8656  16468.9  127.396
 15.9076  16956.8  129.095
 15.9496  17913.2  135.507
 15.9916  16833.1  131.768
 16.0336  16961.3  129.189
 16.0756  16648.5  128.291
 16.1176  16514.1  127.696
 16.1596  16231.4  127.918
 16.2016  16169.2  126.462
 16.2436  16221  127.037
 16.2856  16216.5  126.534
 16.3276  15729.9  125.057
 16.3696  15911.8  125.598
 16.4116  16018.1  126.464
 16.4536  16078.5  126.505
 16.4956  16883.8  129.373
 16.5376  16316.4  127.367
 16.5796  15856.2  124.939
 16.6216  15900.4  125.36
 16.6636  15723.8  124.85
 16.7056  15732.8  124.752
 16.7476  15487.9  123.458
 16.7896  15438.5  123.851
 16.8316  15447.4  123.867
 16.8736  16375.5  127.788
 16.9156  15808.9  125.867
 16.9576  15411.7  125.049
 16.9996  15705.3  126.699
 17.0416  15549.8  124.496
 17.0836  15439.9  123.826
 17.1256  15330.1  123.392
 17.1676  15862.7  125.48
 17.2096  15621.6  124.42
 17.2516  15592.8  124.385
 17.2936  15039.1  122.212
 17.3356  14774.2  121.115
 17.3776  14738.1  121.148
 17.4196  14691.3  120.666
 17.4616  14912.3  121.48
 17.5036  15319.6  123.486
 17.5456  14352.7  120.131
 17.5876  14637.6  120.396
 17.6296  14793.2  120.857
 17.6716  14584  120.582
 17.7136  15639.1  124.994
 17.7556  14677.9  121.386
 17.7976  14477.7  120.161
 17.8396  14648.9  120.506
 17.8816  14018.5  118.437
 17.9236  14031.4  118.288
 17.9656  14290.6  120.03
 18.0076  14838  121.762
 18.0496  15767.8  124.615
 18.0916  21587.6  146.459
 18.1336  18750.5  136.621
 18.1756  15850  125.144
 18.2176  16286.5  127.072
 18.2596  14301.9  118.818
 18.3016  14995.3  121.933
 18.3436  15670  124.885
 18.3856  14708.3  120.889
 18.4276  14179.1  118.389
 18.4696  14452.1  119.608
 18.5116  14255.4  119.07
 18.5536  13967.7  118.21
 18.5956  14058.7  118.162
 18.6376  14184.6  119.085
 18.6796  13952.3  117.447
 18.7216  14112.8  118.665
 18.7636  13815.1  117.341
 18.8056  13462.9  115.762
 18.8476  13275.3  115.274
 18.8896  13369.3  115.324
 18.9316  13562.5  115.975
 18.9736  13408.4  115.184
 19.0156  13903.2  117.682
 19.0576  14053  117.183
 19.0996  13599.6  115.983
 19.1416  13769.4  117.09
 19.1836  13122.8  113.929
 19.2256  13047  113.815
 19.2676  13156.1  114.372
 19.3096  13143.6  114.553
 19.3516  13404.4  115.468
 19.3936  13284  115.085
 19.4356  13521.8  115.936
 19.4776  13240.5  114.806
 19.5196  13154.9  114.299
 19.5616  13168.9  114.607
 19.6036  13315  114.615
 19.6456  13400.2  115.226
 19.6876  13890.2  116.945
 19.7296  13508.7  115.793
 19.7716  13271.7  114.798
 19.8136  13682.6  116.9
 19.8556  13938  117.473
 19.8976  14292.3  119.02
 19.9396  14058.3  117.628
 19.9816  14140.1  118.218
 20.0236  14437.2  119.618
 20.0656  13406.9  115.299
 20.1076  13245.5  115.058
 20.1496  13009  114.021
 20.1916  13234.5  114.503
 20.2336  13146.6  114.092
 20.2756  12911.9  113.486
 20.3176  12832.8  112.88
 20.3596  12714.5  112.355
 20.4016  12945  113.169
 20.4436  12847.8  113.306
 20.4856  12756.4  112.69
 20.5276  12663.3  112.724
 20.5696  12615  112.081
 20.6116  12799  113.061
 20.6536  12439.4  111.043
 20.6956  12606.6  111.862
 20.7376  12520.8  111.692
 20.7796  12551.3  111.525
 20.8216  12686.6  111.84
 20.8636  13081.3  113.943
 20.9056  14364.5  119.334
 20.9476  13106.7  113.837
 20.9896  14117.1  118.009
 21.0316  12738.6  111.997
 21.0736  13131.9  114.233
 21.1156  13368.6  115.417
 21.1576  12872.3  113.29
 21.1996  12575.1  111.964
 21.2416  12518.1  111.54
 21.2836  12643.1  112.069
 21.3256  12684.9  112.337
 21.3676  12616.9  111.573
 21.4096  12776.8  112.647
 21.4516  12488.8  111.176
 21.4936  12203.2  110.172
 21.5356  12517  111.531
 21.5776  12585.5  111.668
 21.6196  12494.4  111.305
 21.6616  12548.5  111.624
 21.7036  12318.5  110.373
 21.7456  12231.7  110.059
 21.7876  12015.5  108.848
 21.8296  12028.7  108.758
 21.8716  12192.1  109.72
 21.9136  12437.9  111.014
 21.9556  12358  110.344
 21.9976  12232.8  109.814
 22.0396  12158.6  109.727
 22.0816  12206.1  110.457
 22.1236  12577.7  111.591
 22.1656  12097.5  109.629
 22.2076  12045.5  108.807
 22.2496  11846.7  107.936
 22.2916  12009.8  108.561
 22.3336  11979.6  109.112
 22.3756  11888.5  108.441
 22.4176  11837.2  108.061
 22.4596  11499.2  107.077
 22.5016  11846.8  108.203
 22.5436  12037.8  108.95
 22.5856  12236.5  110.088
 22.6276  12280.7  110.41
 22.6696  11880.5  108.951
 22.7116  11667.3  107.49
 22.7536  11781.6  107.999
 22.7956  11904  107.9
 22.8376  11646.4  107.236
 22.8796  11817.1  107.827
 22.9216  11811.5  108.328
 22.9636  11833.1  107.606
 23.0056  11682.8  107.048
 23.0476  11992.9  109.022
 23.0896  12156.9  109.153
 23.1316  12183.2  109.7
 23.1736  11947.6  111.504
 23.2156  12263.6  110.319
 23.2576  12384.2  111.061
 23.2996  11977.3  109.004
 23.3416  12173.4  110.412
 23.3836  12043.3  109.044
 23.4256  12329.9  110.477
 23.4676  12241.3  109.774
 23.5096  12181.4  110.153
 23.5516  12072.4  108.974
 23.5936  12270.2  110.763
 23.6356  12448.8  111.234
 23.6776  12019  109.819
 23.7196  12109.4  109.709
 23.7616  12074.7  109.258
 23.8036  12271.3  110.2
 23.8456  11926.7  108.199
 23.8876  11964  108.72
 23.9296  11810.9  108.501
 23.9716  11905.6  108.155
 24.0136  11975.1  109.359
 24.0556  11828.2  108.403
 24.0976  11720.7  107.734
 24.1396  11580.7  109.635
 24.1816  11832.4  109.598
 24.2236  11916  109.267
 24.2656  11869.8  108.551
 24.3076  11830.5  108.634
 24.3496  11931.1  108.966
 24.3916  12146.6  110.01
 24.4336  11727.4  108.296
 24.4756  11838.1  108.688
 24.5176  11635.4  107.373
 24.5596  11613.5  107.603
 24.6016  11360.8  106.522
 24.6436  11719.8  107.701
 24.6856  11494.4  106.407
 24.7276  11504.3  106.766
 24.7696  11437  106.571
 24.8116  11617.5  107.579
 24.8536  11410  106.623
 24.8956  11345  106.053
 24.9376  11480.5  106.849
 24.9796  11252.4  105.905
 25.0216  11436.4  106.885
 25.0636  11283.4  105.824
 25.1056  10951.3  104.674
 25.1476  10896.4  106.268
 25.1896  10830.1  104.5
 25.2316  10947.3  104.232
 25.2736  11008.4  104.296
 25.3156  10788.9  103.31
 25.3576  10717.5  103.402
 25.3996  10800.8  103.795
 25.4416  10836.6  103.937
 25.4836  10695.9  103.77
 25.5256  10891.7  104.085
 25.5676  10844.5  103.589
 25.6096  10553.3  102.756
 25.6516  10656.7  102.768
 25.6936  10699.7  103.284
 25.7356  10599.8  102.939
 25.7776  10699.5  103.1
 25.8196  10682.8  103.182
 25.8616  10692.8  103.159
 25.9036  10864.5  103.443
 25.9456  10559.7  102.567
 25.9876  10627.8  102.817
 26.0296  10710.8  102.975
 26.0716  10670.7  103.112
 26.1136  10882.6  104.058
 26.1556  10976.7  103.807
 26.1976  10481.2  102.436
 26.2396  10517.4  102.024
 26.2816  10502.9  102.31
 26.3236  10632.5  103.006
 26.3656  10713.1  103.207
 26.4076  10377.1  101.778
 26.4496  10643.5  102.676
 26.4916  10707.2  102.86
 26.5336  11137.8  105.268
 26.5756  11115.2  105.042
 26.6176  10854.9  103.826
 26.6596  10525  102.532
 26.7016  10260.9  101.05
 26.7436  10477.2  102.195
 26.7856  10194.9  100.798
 26.8276  10175.5  100.67
 26.8696  10280.2  101.051
 26.9116  10241.5  100.806
 26.9536  10205.8  100.674
 26.9956  10143.7  100.403
 27.0376  10112.9  100.472
 27.0796  10081  100.087
 27.1216  10335  101.363
 27.1636  10006  99.9026
 27.2056  10146  100.473
 27.2476  10157.6  100.531
 27.2896  9935.77  99.4677
 27.3316  9791.74  98.5304
 27.3736  9727.11  98.48
 27.4156  9999.9  99.689
 27.4576  10170.3  100.747
 27.4996  10110.1  100.069
 27.5416  10008.9  99.864
 27.5836  9909.22  99.2106
 27.6256  9980.27  99.7393
 27.6676  9885.62  99.2602
 27.7096  10047.2  99.9494
 27.7516  10607.4  102.849
 27.7936  10758.7  103.724
 27.8356  10519  102.172
 27.8776  10374.6  101.535
 27.9196  10280.3  100.932
 27.9616  10296.3  101.206
 28.0036  9908.65  99.2511
 28.0456  9849.15  99.0858
 28.0876  9861.09  99.2285
 28.1296  9894.98  99.2389
 28.1716  10038  99.9701
 28.2136  9792.96  98.7083
 28.2556  9797.76  98.8403
 28.2976  9736.9  98.5299
 28.3396  9817.6  98.7392
 28.3816  9790.78  98.5695
 28.4236  9855.01  99.0505
 28.4656  9692.34  98.2638
 28.5076  9539.77  97.138
 28.5496  9555.15  97.464
 28.5916  9677.2  97.9033
 28.6336  9633.7  98.0204
 28.6756  9635.01  97.2331
 28.7176  9532.47  97.261
 28.7596  9355.5  96.2516
 28.8016  9421.37  96.7057
 28.8436  9466.83  97.0983
 28.8856  9551.34  97.3771
 28.9276  9614.74  97.9501
 28.9696  9406.22  96.5448
 29.0116  9353.4  96.4242
 29.0536  9340.12  96.5905
 29.0956  9528.77  97.273
 29.1376  9370.19  96.4265
 29.1796  9364.93  96.4432
 29.2216  9231.73  95.6029
 29.2636  9394.89  96.4318
 29.3056  9209.32  95.341
 29.3476  9314.75  96.4097
 29.3896  9388.51  96.8963
 29.4316  9266.25  95.6098
 29.4736  9045.2  94.5235
 29.5156  9267.13  95.5993
 29.5576  9189.01  95.9167
 29.5996  9069.21  94.5705
 29.6416  8996.1  94.3026
 29.6836  9193.48  95.2614
 29.7256  9063.21  95.1345
 29.7676  9112.92  95.0657
 29.8096  8947.44  94.1425
 29.8516  8842.3  93.9088
 29.8936  9064.68  95.1722
 29.9356  9013.56  94.6654
 29.9776  9030.06  94.8984
 30.0196  9234.41  95.3686
 30.0616  9189.54  95.5004
 30.1036  9080.6  94.7607
 30.1456  8842.38  93.7582
 30.1876  8853.07  93.7719
 30.2296  8821.18  93.5552
 30.2716  9019.39  94.2447
 30.3136  8914.03  94.2731
 30.3556  9182.88  95.9478
 30.3976  9199.81  97.4807
 30.4396  9475.92  96.3252
 30.4816  9209.45  94.5797
 30.5236  9331.25  95.1885
 30.5656  9149.05  94.9114
 30.6076  9215.54  95.0223
 30.6496  9243.77  95.2277
 30.6916  9051.47  94.314
 30.7336  9106.78  94.745
 30.7756  9059.11  94.8115
 30.8176  9209.65  95.2961
 30.8596  9149.32  94.7495
 30.9016  9208.42  94.9294
 30.9436  8983.97  93.9614
 30.9856  9407.3  96.2743
 31.0276  9024.92  93.9419
 31.0696  9083.07  94.6603
 31.1116  9118.8  94.9552
 31.1536  9112.15  94.783
 31.1956  9069.77  94.6818
 31.2376  8805.25  93.2969
 31.2796  8814.05  92.8948
 31.3216  8999.67  93.7899
 31.3636  8892.27  93.9188
 31.4056  8965.59  95.577
 31.4476  9034.93  93.8927
 31.4896  9204.04  95.2685
 31.5316  9233.57  94.8709
 31.5736  9912.01  98.0723
 31.6156  9626.87  96.6568
 31.6576  9398.21  95.5879
 31.6996  9245.32  94.4733
 31.7416  9383.98  96.13
 31.7836  9242.95  94.543
 31.8256  9033.17  93.8091
 31.8676  9257.08  94.8752
 31.9096  8862.4  93.0534
 31.9516  8950.09  93.8248
 31.9936  8726.3  92.4695
 32.0356  8936.39  93.6197
 32.0776  9016.62  93.9395
 32.1196  9102.1  94.4022
 32.1616  9007.41  93.4544
 32.2036  8949.12  93.6569
 32.2456  8862.21  93.574
 32.2876  8905.48  93.134
 32.3296  8852.65  92.9938
 32.3716  8716.37  92.3836
 32.4136  8706.43  92.526
 32.4556  8919.61  93.1041
 32.4976  8856.04  92.6666
 32.5396  8733.35  92.0446
 32.5816  8658.27  91.6777
 32.6236  8621.41  91.6398
 32.6656  8692.28  92.5488
 32.7076  8656.02  92.0215
 32.7496  8591.54  91.3507
 32.7916  8720.89  92.0017
 32.8336  8699.35  91.9779
 32.8756  8764.63  92.1331
 32.9176  8664.74  91.9966
 32.9596  8737.27  92.4554
 33.0016  8809.68  92.6053
 33.0436  8610.58  91.7308
 33.0856  8684.34  92.2156
 33.1276  8517.24  91.061
 33.1696  8519.95  90.8989
 33.2116  8668.12  91.923
 33.2536  8732.95  92.2572
 33.2956  8664.55  91.9849
 33.3376  8443  90.6016
 33.3796  8580.78  91.4963
 33.4216  8537.62  90.8714
 33.4636  8517.58  90.9054
 33.5056  8358.53  90.1377
 33.5476  8568.06  91.399
 33.5896  8524.41  90.9408
 33.6316  8565.2  91.4837
 33.6736  8418.49  90.9395
 33.7156  8322.19  90.4519
 33.7576  8523.29  91.1824
 33.7996  8441.71  90.5084
 33.8416  8303.89  89.9509
 33.8836  8370.15  90.0825
 33.9256  8553.01  91.1203
 33.9676  8490.39  90.688
 34.0096  8444.54  90.7506
 34.0516  8335.03  89.792
 34.0936  8311.44  89.9437
 34.1356  8480.04  90.5941
 34.1776  8262.03  89.4195
 34.2196  8165.09  89.0722
 34.2616  8191.57  89.4128
 34.3036  8252.52  89.9184
 34.3456  8320.35  90.0388
 34.3876  8483  90.9902
 34.4296  8317.12  89.6998
 34.4716  8437.25  90.4898
 34.5136  8402.95  90.4942
 34.5556  8226.99  89.8048
 34.5976  8472.51  90.9697
 34.6396  8373.82  90.1293
 34.6816  8436.34  90.5706
 34.7236  8472.36  90.5324
 34.7656  8282.32  89.7277
 34.8076  8180  89.4947
 34.8496  8276.68  89.8728
 34.8916  8307.15  89.9072
 34.9336  8354.3  90.14
 34.9756  8433.98  90.5136
 35.0176  8391.24  90.7814
 35.0596  8344.08  90.3484
 35.1016  8268.45  89.7007
 35.1436  8520.87  90.7504
 35.1856  8346.33  89.9303
 35.2276  8213.47  89.3894
 35.2696  8253.4  89.7958
 35.3116  8218.6  89.7041
 35.3536  8306.68  89.9275
 35.3956  8287.28  89.4981
 35.4376  8285.71  90.0482
 35.4796  8302.65  90.1696
 35.5216  8273.71  89.9247
 35.5636  8125.66  89.9152
 35.6056  8172.52  89.2018
 35.6476  8268.41  89.6309
 35.6896  8258.22  89.7441
 35.7316  8174.22  89.1821
 35.7736  8118.71  89.0647
 35.8156  8203.1  89.5282
 35.8576  8276.45  90.1611
 35.8996  8257.64  90.0368
 35.9416  8257.8  89.5488
 35.9836  8118.71  89.2403
 36.0256  8302.58  90.156
 36.0676  8341.03  89.8805
 36.1096  8162.6  89.2859
 36.1516  8277.6  89.7999
 36.1936  8213.99  89.299
 36.2356  8196.87  89.8621
 36.2776  8234.57  89.5316
 36.3196  8171.63  88.8743
 36.3616  8168.9  88.9949
 36.4036  8065.84  88.4948
 36.4456  8118.59  88.9761
 36.4876  7997.72  88.2615
 36.5296  8077.88  88.7403
 36.5716  8076.89  89.5034
 36.6136  8227.21  89.1185
 36.6556  8099.98  88.6265
 36.6976  7935.7  88.209
 36.7396  7921.69  87.9622
 36.7816  7813.01  87.6285
 36.8236  7896.12  88.0199
 36.8656  7923.92  88.2371
 36.9076  7836.55  87.7613
 36.9496  7729.08  87.1691
 36.9916  7689.81  86.4419
 37.0336  7960.46  88.2565
 37.0756  7885.46  87.6393
 37.1176  7765.13  87.3224
 37.1596  7784.77  87.3451
 37.2016  7692.01  86.9934
 37.2436  7806.84  87.0226
 37.2856  7706.26  86.6994
 37.3276  7885.38  87.0763
 37.3696  7692.44  86.862
 37.4116  7741.34  87.0464
 37.4536  7672.05  86.5271
 37.4956  7686.76  86.6571
 37.5376  7833.22  89.0336
 37.5796  7840.43  89.0043
 37.6216  7782.97  86.9817
 37.6636  7939.92  87.7439
 37.7056  7855.16  87.4645
 37.7476  7982.24  87.7125
 37.7896  7816.27  87.2938
 37.8316  7747.73  87.0649
 37.8736  7841.73  87.1236
 37.9156  7826.49  87.0261
 37.9576  7763.58  86.7399
 37.9996  7864.73  86.8758
 38.0416  7739.34  86.9717
 38.0836  7884.18  87.6826
 38.1256  7878.5  87.625
 38.1676  7756.75  87.0672
 38.2096  8093.93  88.5518
 38.2516  7924.71  87.7501
 38.2936  7929.53  87.6647
 38.3356  7869.42  87.2639
 38.3776  7722.43  86.684
 38.4196  7867.84  87.3462
 38.4616  7850.22  87.5065
 38.5036  7992.55  88.1373
 38.5456  7813.19  87.9537
 38.5876  7784.93  87.8191
 38.6296  7746.45  86.5739
 38.6716  7775.55  86.5597
 38.7136  7690.45  86.0252
 38.7556  7730.77  86.7539
 38.7976  7772.5  86.9218
 38.8396  7610.61  86.4626
 38.8816  7615.02  86.2839
 38.9236  7671.88  86.4013
 38.9656  7722.53  86.6033
 39.0076  7786.52  86.374
 39.0496  7835.5  87.1942
 39.0916  7917.41  87.2929
 39.1336  7864.95  87.407
 39.1756  7761.82  86.8962
 39.2176  7621.69  86.6269
 39.2596  7726.87  87.156
 39.3016  7781.45  87.0498
 39.3436  7713.77  87.0766
 39.3856  7779.25  86.8916
 39.4276  7914.86  88.1564
 39.4696  7792.63  87.0984
 39.5116  7813.76  87.7263
 39.5536  7806.89  88.0985
 39.5956  7653.86  86.3548
 39.6376  7719.39  86.5575
 39.6796  7574.39  85.649
 39.7216  7665.74  86.2693
 39.7636  7705.21  87.047
 39.8056  7759.88  87.1414
 39.8476  7659.64  86.8294
 39.8896  7676.44  86.562
 39.9316  7691.63  86.8886
 39.9736  7714.78  86.6032
 40.0156  7683.37  86.2602
 40.0576  7600.06  86.1286
 40.0996  7870.56  86.8386
 40.1416  7751.41  86.9712
 40.1836  7788.15  87.067
 40.2256  7772.11  87.0091
 40.2676  7643.49  86.46
 40.3096  7708.18  86.6917
 40.3516  7672.27  86.6695
 40.3936  7934.51  87.6125
 40.4356  7689.4  86.4568
 40.4776  7813.59  87.3869
 40.5196  7678.92  86.9207
 40.5616  7803.9  87.2582
 40.6036  7685.27  86.8505
 40.6456  7727.19  86.7002
 40.6876  7872.17  87.5024
 40.7296  7703.09  86.6864
 40.7716  7688.71  86.7239
 40.8136  7680.22  86.6254
 40.8556  7746.79  87.1325
 40.8976  7800.34  87.3529
 40.9396  7771.98  87.5442
 40.9816  7811.14  87.0558
 41.0236  7667.44  86.0444
 41.0656  7820.99  87.4327
 41.1076  7707.88  86.5674
 41.1496  7846.2  87.2539
 41.1916  7784.03  87.2203
 41.2336  7746.17  87.0063
 41.2756  7710.78  86.4153
 41.3176  7732.94  87.1448
 41.3596  7788.27  87.1955
 41.4016  7612.15  86.4567
 41.4436  7805.13  87.3348
 41.4856  7728.9  87.0708
 41.5276  7743.55  87.1637
 41.5696  7646.6  86.2466
 41.6116  7768.63  87.3245
 41.6536  7849.98  87.6422
 41.6956  7786.08  87.2716
 41.7376  7759.36  87.2239
 41.7796  7683.02  86.7148
 41.8216  7693.27  86.9617
 41.8636  7676.89  86.8178
 41.9056  7667.93  86.556
 41.9476  7685.14  86.8921
 41.9896  7836.07  87.397
 42.0316  7709.87  86.7814
 42.0736  7711.26  86.9203
 42.1156  7660.82  86.4398
 42.1576  7681.8  86.6699
 42.1996  7836.41  87.6629
 42.2416  7764.9  86.8555
 42.2836  7597.63  86.0329
 42.3256  7618.91  86.2562
 42.3676  7835.81  87.275
 42.4096  7656.4  86.2482
 42.4516  7799.66  87.1194
 42.4936  7626.05  86.224
 42.5356  7618.6  86.3213
 42.5776  7730.98  86.8933
 42.6196  7659.03  86.4611
 42.6616  7559.44  86.1447
 42.7036  7710.47  86.3942
 42.7456  7725.64  86.8276
 42.7876  7699.11  86.7549
 42.8296  7634.47  86.3091
 42.8716  7632.72  86.3967
 42.9136  7504.86  85.4263
 42.9556  7681.65  86.5928
 42.9976  7657.09  86.4205
 43.0396  7524.29  85.4071
 43.0816  7544.83  85.9014
 43.1236  7580.72  86.1568
 43.1656  7708.9  86.6891
 43.2076  7612.4  86.2722
 43.2496  7569.47  85.8495
 43.2916  7562.2  86.1603
 43.3336  7570.31  86.0429
 43.3756  7628.95  86.1334
 43.4176  7386.82  84.8344
 43.4596  7596.45  85.8929
 43.5016  7503.85  85.7453
 43.5436  7554.96  85.9544
 43.5856  7486.69  85.5964
 43.6276  7486.86  85.4901
 43.6696  7448.74  85.4128
 43.7116  7603.35  85.915
 43.7536  7582.35  86.286
 43.7956  7413.26  86.5007
 43.8376  7445.09  85.2374
 43.8796  7239.92  84.1303
 43.9216  7516.16  85.6417
 43.9636  7395.12  85.046
 44.0056  7223.15  84.2861
 44.0476  7247.15  84.0665
 44.0896  7238.73  84.3507
 44.1316  7295.01  84.3469
 44.1736  7351.46  84.6577
 44.2156  7390.48  84.7359
 44.2576  7344.11  84.7887
 44.2996  7419.74  85.1967
 44.3416  7245.03  83.9579
 44.3836  7206.2  84.0533
 44.4256  7255.59  83.992
 44.4676  7284.69  84.312
 44.5096  7278.29  84.4133
 44.5516  7377.88  84.9613
 44.5936  7238.09  84.1021
 44.6356  7248.43  83.9059
 44.6776  7317.55  84.6143
 44.7196  7349.46  85.0675
 44.7616  7360.52  86.4726
 44.8036  7414.03  85.4358
 44.8456  7381.39  85.2514
 44.8876  7430.93  85.3793
 44.9296  7407.97  84.7001
 44.9716  7477.38  85.5211
 45.0136  7580.17  86.0513
 45.0556  7412.76  85.1789
 45.0976  7423.8  85.2697
 45.1396  7201.02  83.7761
 45.1816  7420.97  84.7993
 45.2236  7452.18  85.0595
 45.2656  7272.69  84.507
 45.3076  7437.74  85.2597
 45.3496  7224.8  84.3203
 45.3916  7302.98  85.0495
 45.4336  7442.98  85.6999
 45.4756  7302.03  84.7368
 45.5176  7454.45  85.2453
 45.5596  7315.94  84.567
 45.6016  7378.37  85.3474
 45.6436  7374.74  84.5063
 45.6856  7312.95  84.7946
 45.7276  7248.67  86.2395
 45.7696  7315.42  85.7997
 45.8116  7334.85  85.3473
 45.8536  7175.12  84.3058
 45.8956  7363.05  84.7583
 45.9376  7429.76  84.6096
 45.9796  7408.47  85.1897
 46.0216  7274.12  84.7255
 46.0636  7341.87  84.2704
 46.1056  7264.27  83.825
 46.1476  7338.57  84.842
 46.1896  7347.83  85.0374
 46.2316  7454.22  85.509
 46.2736  7299.77  84.8325
 46.3156  7334.73  84.7905
 46.3576  7324.1  84.926
 46.3996  7286.77  84.8694
 46.4416  7304.08  84.5306
 46.4836  7248.69  84.5875
 46.5256  7331.33  85.0035
 46.5676  7240.97  84.5954
 46.6096  7359  85.2054
 46.6516  7446.97  84.7608
 46.6936  7446.03  85.2475
 46.7356  7440.2  85.3143
 46.7776  7228.29  84.9316
 46.8196  7215.11  84.5974
 46.8616  7091.4  83.6802
 46.9036  7191.81  83.9185
 46.9456  7234.02  83.8091
 46.9876  7186.71  83.6236
 47.0296  7183.63  84.2901
 47.0716  7171.37  84.0419
 47.1136  7240.32  84.12
 47.1556  7231.14  83.9418
 47.1976  7330  84.6654
 47.2396  7173.3  84.0786
 47.2816  7217.76  84.0383
 47.3236  7198.46  84.2959
 47.3656  7235.02  84.4391
 47.4076  7203.68  83.9888
 47.4496  7178.48  84.0063
 47.4916  7149.82  84.0256
 47.5336  7213.62  84.2139
 47.5756  7173.32  84.0654
 47.6176  7177.1  84.0226
 47.6596  7149.93  83.5747
 47.7016  7340.3  84.4855
 47.7436  7242.65  84.2571
 47.7856  7315.97  84.7203
 47.8276  7124.9  83.6561
 47.8696  7108.01  83.6354
 47.9116  7222.51  84.0287
 47.9536  7214.43  83.9226
 47.9956  7109.17  84.0126
 48.0376  7061.01  83.4997
 48.0796  7255.99  84.7649
 48.1216  7183.51  84.167
 48.1636  7298.83  84.4133
 48.2056  7196.57  84.0884
 48.2476  7284.99  84.9139
 48.2896  7301.29  84.911
 48.3316  7215.03  84.3522
 48.3736  7211.81  84.3556
 48.4156  7160.81  83.9113
 48.4576  7218.56  84.5421
 48.4996  7354.58  84.7854
 48.5416  7335.24  85.002
 48.5836  7182.83  83.7934
 48.6256  7361.32  85.0412
 48.6676  7176.59  84.4802
 48.7096  7212.4  83.9553
 48.7516  7257.69  84.3654
 48.7936  7076.06  83.3687
 48.8356  7118.34  83.6667
 48.8776  7200.33  84.6417
 48.9196  7302.33  84.6781
 48.9616  7168.88  84.2809
 49.0036  7259.43  85.1722
 49.0456  7150.29  84.5115
 49.0876  7177.56  84.2947
 49.1296  7098.02  83.8996
 49.1716  7084.17  83.6884
 49.2136  7223.97  84.4324
 49.2556  7276.1  84.7686
 49.2976  7230.61  84.5613
 49.3396  7037.61  83.4811
 49.3816  7272.09  84.2888
 49.4236  7149.12  84.0088
 49.4656  7080.09  83.6101
 49.5076  7196.92  84.0519
 49.5496  7130.87  83.6043
 49.5916  7318.52  84.7399
 49.6336  7035.74  83.2828
 49.6756  7084.45  83.8082
 49.7176  7086.73  83.7629
 49.7596  7233.68  84.5767
 49.8016  7236.41  84.3298
 49.8436  7035.88  83.4458
 49.8856  7009.7  83.2992
 49.9276  7123.62  84.0711
 49.9696  7046.13  83.5964
 50.0116  7060.87  83.8142
 50.0536  7088.23  83.9256
 50.0956  6930.54  83.058
 50.1376  7081.69  83.6509
 50.1796  7023.16  83.5807
 50.2216  7065.14  83.8202
 50.2636  7096.64  83.625
 50.3056  7056.65  83.5619
 50.3476  7036.84  83.4594
 50.3896  7004.27  83.2457
 50.4316  7129.64  83.8216
 50.4736  7000.89  83.2743
 50.5156  7090.85  83.8048
 50.5576  7051.06  83.3223
 50.5996  7044.17  83.5718
 50.6416  7069.87  83.6432
 50.6836  7093.89  83.852
 50.7256  7108.98  83.8653
 50.7676  7174.67  84.5313
 50.8096  6943.27  82.7384
 50.8516  6998.8  83.4801
 50.8936  6978.88  83.1468
 50.9356  7155.13  84.2937
 50.9776  7031.16  83.724
 51.0196  6909.65  83.1235
 51.0616  6755.39  81.5123
 51.1036  6970.73  83.1678
 51.1456  6982.47  83.147
 51.1876  6933.31  82.1822
 51.2296  6881.94  82.5184
 51.2716  6803.91  81.7636
 51.3136  6759.35  81.9518
 51.3556  6816.93  81.9215
 51.3976  6822.88  82.1047
 51.4396  6823.13  82.4212
 51.4816  6748.1  81.8205
 51.5236  6825.8  82.3743
 51.5656  6853.59  82.1349
 51.6076  6962.64  82.8743
 51.6496  6763.68  81.8738
 51.6916  6741.4  82.0919
 51.7336  6807.32  82.5873
 51.7756  6819.63  82.3469
 51.8176  6770.8  82.1599
 51.8596  6772.09  82.1922
 51.9016  6870.45  82.3919
 51.9436  6905.12  84.1053
 51.9856  6913.51  84.5638
 52.0276  6926.16  83.1226
 52.0696  7067.8  84.0381
 52.1116  6813.3  82.638
 52.1536  6924.65  83.1408
 52.1956  6931.1  82.6906
 52.2376  7071.82  83.6923
 52.2796  6926.29  82.65
 52.3216  6780.64  82.4612
 52.3636  6903.22  82.7749
 52.4056  6788.48  81.9442
 52.4476  6693.74  81.7275
 52.4896  6835.82  82.6324
 52.5316  6894.53  83.0415
 52.5736  6734.7  81.7935
 52.6156  6911.88  83.2705
 52.6576  6813.07  82.0989
 52.6996  6527.96  81.3365
 52.7416  6685.66  82.1694
 52.7836  6785.18  82.6715
 52.8256  6851.88  82.282
 52.8676  6593.16  81.2842
 52.9096  6961.01  83.5916
 52.9516  6793.42  82.9716
 52.9936  6777.44  83.2378
 53.0356  6727.4  81.9289
 53.0776  6852.94  83.0014
 53.1196  6833.87  82.9801
 53.1616  6875.34  83.2826
 53.2036  6773.73  82.626
 53.2456  6758.11  82.6381
 53.2876  6720.08  82.0938
 53.3296  6773.09  82.7559
 53.3716  6853.38  82.9771
 53.4136  6818.42  82.9249
 53.4556  6763.25  82.6164
 53.4976  6682.96  81.9641
 53.5396  6715.09  82.5561
 53.5816  6796.19  82.6903
 53.6236  6781.59  82.9531
 53.6656  6887.17  83.1807
 53.7076  6846.15  82.9194
 53.7496  6892.39  83.3225
 53.7916  6765.75  82.6883
 53.8336  6743.39  82.4425
 53.8756  6638.82  82.3486
 53.9176  6725.72  82.2205
 53.9596  6543.62  81.863
 54.0016  6526.66  81.0856
 54.0436  6337.83  80.1255
 54.0856  6582.48  81.0922
 54.1276  6535.42  80.9917
 54.1696  6547.68  81.2305
 54.2116  6668.37  81.7233
 54.2536  6431.15  80.0657
 54.2956  6497.31  80.5181
 54.3376  6439.65  80.6527
 54.3796  6454.44  80.6417
 54.4216  6440.23  80.6155
 54.4636  6443.41  80.6044
 54.5056  6504.04  80.7801
 54.5476  6425.51  80.6304
 54.5896  6369.35  80.1121
 54.6316  6476.62  80.6245
 54.6736  6455.8  80.5358
 54.7156  6460.05  80.64
 54.7576  6309.94  79.6713
 54.7996  6601.63  81.6702
 54.8416  6475.72  80.9197
 54.8836  6477.12  81.0231
 54.9256  6383.2  80.2073
 54.9676  6250.49  79.2213
 55.0096  6412.88  80.2708
 55.0516  6279.71  79.6125
 55.0936  6368.49  79.9024
 55.1356  6314.67  79.6063
 55.1776  6528.86  81.1874
 55.2196  6431.82  80.3698
 55.2616  6421.75  80.5316
 55.3036  6318.16  80.0396
 55.3456  6131.89  79.0029
 55.3876  6289.92  79.7395
 55.4296  6221.35  79.2928
 55.4716  6362.21  80.2351
 55.5136  6298.74  79.5772
 55.5556  6483.44  80.7941
 55.5976  6261.59  79.4777
 55.6396  6338.67  79.8243
 55.6816  6278.95  79.4064
 55.7236  6273.32  79.5259
 55.7656  6342.9  79.5832
 55.8076  6241.63  78.954
 55.8496  6336.36  79.9773
 55.8916  6175.65  79.0109
 55.9336  6407.74  80.3525
 55.9756  6298.63  79.5292
 56.0176  6208.11  79.1089
 56.0596  6149.4  78.7304
 56.1016  6132.16  78.6798
 56.1436  6194.77  79.2894
 56.1856  6115.23  78.5467
 56.2276  6346.36  80.0609
 56.2696  6272.31  79.561
 56.3116  6314.02  80.1999
 56.3536  6228.07  79.3298
 56.3956  6123.34  78.6507
 56.4376  6172.42  79.0096
 56.4796  6155.16  78.7097
 56.5216  6202.81  79.3895
 56.5636  6092.44  78.2674
 56.6056  6296.29  79.7792
 56.6476  6169.53  78.574
 56.6896  6294.04  79.8514
 56.7316  6154.83  78.8633
 56.7736  6201.86  79.1714
 56.8156  6180.01  79.0514
 56.8576  6002.58  77.8531
 56.8996  6164.2  78.7872
 56.9416  6120.58  78.7031
 56.9836  6171.17  78.6896
 57.0256  6008.54  77.9403
 57.0676  6202.89  79.3
 57.1096  6171.28  78.9096
 57.1516  6050.88  78.1462
 57.1936  6123.98  78.4034
 57.2356  6068.23  78.3784
 57.2776  6154.01  78.8908
 57.3196  6093.11  78.8477
 57.3616  6083.14  78.2768
 57.4036  6192.3  79.0153
 57.4456  6157.45  78.7986
 57.4876  6139.41  78.5375
 57.5296  6017.72  77.9786
 57.5716  6016.84  78.092
 57.6136  5930.56  77.3605
 57.6556  6093.78  78.5378
 57.6976  6179.26  78.9284
 57.7396  6010.29  78.192
 57.7816  5951.15  78.1621
 57.8236  6005.45  78.3055
 57.8656  5990.5  77.8759
 57.9076  6054.18  78.3127
 57.9496  6008.08  78.3795
 57.9916  5985.77  77.7008
 58.0336  5996.58  78.0922
 58.0756  6002.71  77.71
 58.1176  6130.71  78.5823
 58.1596  5921.83  77.8157
 58.2016  5891.65  76.8679
 58.2436  5842.19  76.924
 58.2856  5729.67  76.11
 58.3276  5863.55  77.3541
 58.3696  5778.38  76.5502
 58.4116  5792.46  76.5095
 58.4536  5810.78  76.5212
 58.4956  5829.85  76.8256
 58.5376  5810.55  76.2775
 58.5796  5816.81  76.7336
 58.6216  5900.79  77.1084
 58.6636  5907.19  77.3591
 58.7056  5766.81  76.2926
 58.7476  5702.54  76.2976
 58.7896  5780.7  76.4687
 58.8316  5766.36  76.3718
 58.8736  5696.47  75.9193
 58.9156  5735.16  76.2136
 58.9576  5771.55  76.6661
 58.9996  5801.06  76.2325
 59.0416  5875.76  77.0835
 59.0836  5649.64  75.5032
 59.1256  5738.2  76.4832
 59.1676  5683.42  76.7081
 59.2096  5825.52  76.9853
 59.2516  5854.52  76.7641
 59.2936  5806.54  76.7707
 59.3356  5756.53  76.32
 59.3776  5963.94  77.8507
 59.4196  5735.03  76.2801
 59.4616  5744.88  76.2085
 59.5036  5674.48  75.7741
 59.5456  5800.92  76.3134
 59.5876  5889.51  77.0826
 59.6296  5607.97  75.2844
 59.6716  5590.77  75.2246
 59.7136  5688.31  75.8666
 59.7556  5796.53  76.7185
 59.7976  5682.23  75.7083
 59.8396  5707.59  75.7743
 59.8816  5769.02  76.713
 59.9236  5810.58  76.6403
 59.9656  5747.52  76.472
 60.0076  5736.95  75.7809
 60.0496  5663.21  75.7803
 60.0916  5872.59  76.5946
 60.1336  5637.64  76.1166
 60.1756  5636.22  77.2511
 60.1996  0.0000000E+00  0.0000000E+00