File: docs/examples/opeando_xrd/IS17_D/Data/IS17_D/17_Db_f00038.xye
# /beamlines/bl04/projects/cycle2025-II/20250340211-lsimonelli/DATA/IS17_D/17_Db_f00038.xye : mythproc.py merge -s 0.006 -l 0.5 -f /beamlines/bl04/inhouse/ff/FlatField/ff_20Nov2024rod8mm60s_17keV.raw -b True -c true -o xye /beamlines/bl04/projects/cycle2025-II/20250340211-lsimonelli/DATA/IS17_D/17_Db_00038.dat
# IsMon = [6746794, 6765527, 6786024]  IsPos = [-1.4999, -2.4885, -3.4986]
# Wave = 0.4962  CalPath /beamlines/bl04/projects/cycle2025-II/20250340211-lsimonelli/DATA/Align/Si_Pos1_25keV_f00001.cal
# Date = 2025-09-24_04:16:57 Dt = 4.8000  Bin = 0.0060  <imon> = 6766115 +/- 16021 (Min/Max) 6746794 / 6786024
# icurr 250.1984  mocoIn 1.7083E-05  mocoOut 0.8009  i15 7.08591e+06  imon 6.76612e+06  i7 3.6667  iEMpd_timer 4.8000  iEMpd_1 3.4113E-08  iEMpd_2 7.7275E-08  iEMpd_3 1.4650E-08  iEMpd_4 4.7724E-08  iEMhp_timer 4.8000  iEMhp_1 4.9024E-06  iEMhp_2 -2.5063E-08  iEMhp_3 -2.3955E-08  iEMhp_4 -2.2402E-08
#      9776
 1.5856  44455.3  216.813
 1.6276  51015.2  228.274
 1.6696  56586.8  239.569
 1.7116  64267  255.809
 1.7536  72355.4  270.273
 1.7956  76506.5  278.612
 1.8376  72821.8  272.251
 1.8796  62735.6  250.843
 1.9216  52104.1  229.507
 1.9636  44858.1  212.079
 2.0056  40687.4  201.196
 2.0476  37906.8  196.328
 2.0896  36568.9  191.702
 2.1316  35560.9  188.133
 2.1736  34057.4  185.573
 2.2156  34701.7  185.817
 2.2576  33228  182.481
 2.2996  32013.9  179.773
 2.3416  32431.1  179.493
 2.3836  31747.9  177.705
 2.4256  30813.7  175.642
 2.4676  30472.1  174.418
 2.5096  30118.9  173.461
 2.5516  28843.8  173.509
 2.5936  28921.4  170.28
 2.6356  28419.4  169.501
 2.6776  28213.2  167.772
 2.7196  27693.7  166.714
 2.7616  27622.5  166.286
 2.8036  27226.6  165.254
 2.8456  27177.8  165.758
 2.8876  26699.7  164.132
 2.9296  26289.4  163.019
 2.9716  26078.8  161.846
 3.0136  25620.5  160.481
 3.0556  25888.2  161.721
 3.0976  25863.7  160.563
 3.1396  25412.2  159.868
 3.1816  25133.2  158.924
 3.2236  24779.6  157.787
 3.2656  24814.4  156.904
 3.3076  24468.7  157.316
 3.3496  24744.6  157.367
 3.3916  25149.5  158.218
 3.4336  25405.5  159.613
 3.4756  25718.8  160.57
 3.5176  26489.3  162.694
 3.5596  26275.5  164.437
 3.6016  26685.5  163.24
 3.6436  25411.5  160.41
 3.6856  25159.6  157.904
 3.7276  24040.2  155.435
 3.7696  23857.1  154.968
 3.8116  23565.3  153.972
 3.8536  23752.7  154.512
 3.8956  23505  153.519
 3.9376  23240.9  152.903
 3.9796  23363.5  152.818
 4.0216  23237.5  151.443
 4.0636  23244.7  152.936
 4.1056  23362.8  152.978
 4.1476  23795.7  154.759
 4.1896  23575.5  153.842
 4.2316  23895.4  154.709
 4.2736  24235.7  155.601
 4.3156  24344.2  156.125
 4.3576  25145.9  158.646
 4.3996  25350.8  159.311
 4.4416  25902.1  160.865
 4.4836  26246.2  162.092
 4.5256  26916.1  164.817
 4.5676  26833.3  164.761
 4.6096  27490.3  165.464
 4.6516  27633  165.537
 4.6936  27648.9  166.35
 4.7356  27921.1  167.052
 4.7776  27768  166.377
 4.8196  27634.1  166.731
 4.8616  27066.4  164.572
 4.9036  26988.6  163.992
 4.9456  26713.1  163.753
 4.9876  26015.1  161.5
 5.0296  26202.9  161.916
 5.0716  26084.8  162.123
 5.1136  26314.4  162.74
 5.1556  26510.5  162.758
 5.1976  27114.8  164.698
 5.2396  27219.4  164.651
 5.2816  27098  164.816
 5.3236  27206.3  164.78
 5.3656  26585.3  163.816
 5.4076  26164.7  162.651
 5.4496  26399.6  162.836
 5.4916  26608.4  163.278
 5.5336  26496.7  162.895
 5.5756  26470.7  162.939
 5.6176  26517.3  162.462
 5.6596  26796.7  164.359
 5.7016  26592.7  162.944
 5.7436  26874.2  164.079
 5.7856  26752.9  163.772
 5.8276  26972.1  164.114
 5.8696  27246.9  165.167
 5.9116  26801.5  164.318
 5.9536  27393.5  166.015
 5.9956  27662.8  166.157
 6.0376  27597.2  166.578
 6.0796  27806.9  167.044
 6.1216  27815.4  167.218
 6.1636  28128.9  167.258
 6.2056  27890  167.179
 6.2476  28110  167.76
 6.2896  28361.9  168.188
 6.3316  28608.3  169.142
 6.3736  28500.4  168.664
 6.4156  28680.2  169.143
 6.4576  28692.4  168.741
 6.4996  28678.7  169.126
 6.5416  28620  169.134
 6.5836  28779.3  169.787
 6.6256  29073.1  170.261
 6.6676  29548.1  171.211
 6.7096  29410.5  171.728
 6.7516  29634.7  171.984
 6.7936  30047.7  172.397
 6.8356  29842.4  172.087
 6.8776  30290.4  174.123
 6.9196  30246.1  174.44
 6.9616  30886.8  175.695
 7.0036  31063.6  175.882
 7.0456  31116.9  175.339
 7.0876  30979.4  176.622
 7.1296  31216.4  176.43
 7.1716  31090.4  175.623
 7.2136  30616  174.049
 7.2556  30985.1  175.261
 7.2976  31130.7  176.163
 7.3396  30727.9  175.239
 7.3816  30808  175.68
 7.4236  31209.7  176.119
 7.4656  31178  175.494
 7.5076  31512.4  176.589
 7.5496  31189  176.149
 7.5916  31668.1  177.605
 7.6336  31681  177.532
 7.6756  31827.7  177.79
 7.7176  32271.2  179.394
 7.7596  31905.7  179.519
 7.8016  32651.8  183.894
 7.8436  32204.7  179.152
 7.8856  32594.2  179.851
 7.9276  33128.9  181.663
 7.9696  33124.6  181.998
 8.0116  34362.3  184.249
 8.0536  34176.5  183.678
 8.0956  34214.3  184.985
 8.1376  35009.3  186.555
 8.1796  35022.6  187.165
 8.2216  35501.2  187.156
 8.2636  35772.8  188.118
 8.3056  35793.6  188.883
 8.3476  36328.3  189.674
 8.3896  36079.2  189.488
 8.4316  35900.7  188.796
 8.4736  36414.9  189.622
 8.5156  35847  188.406
 8.5576  35446.9  188.346
 8.5996  35281.1  186.764
 8.6416  35384  188.314
 8.6836  35068  187.214
 8.7256  35559.5  188.063
 8.7676  35336.9  190.368
 8.8096  35926.7  189.348
 8.8516  35661.8  188.228
 8.8936  35256.2  187.104
 8.9356  35332.3  187.717
 8.9776  35671.5  188.61
 9.0196  35367.5  187.569
 9.0616  35124.9  186.344
 9.1036  34233.2  185.104
 9.1456  34200.3  184.27
 9.1876  34661  185.551
 9.2296  34401.1  184.21
 9.2716  33947.3  183.115
 9.3136  34082.6  183.474
 9.3556  34423.9  184.374
 9.3976  33395.8  182.181
 9.4396  33571.9  182.488
 9.4816  33254.2  181.574
 9.5236  32885.1  180.381
 9.5656  32669.3  180.129
 9.6076  32034.3  178.794
 9.6496  32107.1  178.968
 9.6916  31914.4  178.304
 9.7336  32086.8  178.674
 9.7756  31883.8  179.374
 9.8176  31716.4  178.508
 9.8596  31672.3  176.857
 9.9016  31421.5  176.154
 9.9436  31144  175.288
 9.9856  30727.9  174.378
 10.0276  30525.7  174.856
 10.0696  30481.5  173.785
 10.1116  29679.6  171.742
 10.1536  29566.6  171.566
 10.1956  29296.8  170.397
 10.2376  29099.7  169.388
 10.2796  28987.6  169.129
 10.3216  28619.1  168.332
 10.3636  28460.9  167.891
 10.4056  27647.5  165.828
 10.4476  27936.9  166.354
 10.4896  28063.3  166.19
 10.5316  27456.3  165.093
 10.5736  27551.4  165.779
 10.6156  27339.1  164.931
 10.6576  27228.1  163.162
 10.6996  27028.1  163.254
 10.7416  26680  162.403
 10.7836  26113.2  161.203
 10.8256  26011.3  161.303
 10.8676  26045.3  160.964
 10.9096  25887.4  160.502
 10.9516  25628.4  158.674
 10.9936  25708.4  159.127
 11.0356  25444.4  158.896
 11.0776  25307.5  157.823
 11.1196  24899.1  157.288
 11.1616  24550.7  155.865
 11.2036  24506.8  155.573
 11.2456  24388.7  155.879
 11.2876  24836.8  157.098
 11.3296  24349.8  155.414
 11.3716  24662.7  156.104
 11.4136  24615.1  156.815
 11.4556  24388  155.708
 11.4976  25090.5  157.003
 11.5396  25121.4  157.271
 11.5816  25651.5  159.353
 11.6236  25975.8  160.805
 11.6656  25761.1  159.128
 11.7076  24796.6  156.889
 11.7496  24298.4  159.254
 11.7916  24299.8  154.586
 11.8336  23523  152.94
 11.8756  23602.1  152.773
 11.9176  23515.6  152.37
 11.9596  23734.3  153.102
 12.0016  23393.6  152.694
 12.0436  23438.3  152.359
 12.0856  23134.2  151.812
 12.1276  23078.2  151.568
 12.1696  23294.5  151.413
 12.2116  23035.7  150.526
 12.2536  22981.9  151.192
 12.2956  22794.9  149.897
 12.3376  23096.9  151.186
 12.3796  22877.2  150.881
 12.4216  22974.5  150.415
 12.4636  22487.8  149.723
 12.5056  22885.2  150.32
 12.5476  22948.4  150.049
 12.5896  22680.4  149.76
 12.6316  22873.7  150.633
 12.6736  22795.4  150.608
 12.7156  22736.1  150.509
 12.7576  22847.2  151.066
 12.7996  22934.4  150.028
 12.8416  22634.4  150.059
 12.8836  23023.4  151.167
 12.9256  23207  150.841
 12.9676  23250.5  151.328
 13.0096  23335.9  152.805
 13.0516  23435.9  152.12
 13.0936  23825.5  153.838
 13.1356  23806.6  152.706
 13.1776  23369  152.291
 13.2196  23676.6  152.935
 13.2616  23312  152.017
 13.3036  23753.9  153.463
 13.3456  23214.7  151.795
 13.3876  23905.2  153.624
 13.4296  23492.4  152.41
 13.4716  23570.4  152.296
 13.5136  23486.9  152.148
 13.5556  23465.8  152.702
 13.5976  23693.4  153.608
 13.6396  23538.4  152.432
 13.6816  23604  153.147
 13.7236  24240.6  154.772
 13.7656  25559.9  159.475
 13.8076  26340  160.494
 13.8496  25856.3  159.686
 13.8916  23840.5  154.428
 13.9336  23077.8  151.185
 13.9756  23155.3  150.871
 14.0176  22911.9  150.693
 14.0596  23035.2  151.071
 14.1016  22935.3  151.162
 14.1436  22877.9  150.17
 14.1856  22339.4  148.63
 14.2276  22342.5  149.164
 14.2696  22222.2  148.567
 14.3116  21826  147.104
 14.3536  21658.6  146.739
 14.3956  21469.9  145.827
 14.4376  21801.3  146.744
 14.4796  21607.1  146.085
 14.5216  21186.5  145.434
 14.5636  21287.9  145.355
 14.6056  21332.3  145.074
 14.6476  21104.4  143.554
 14.6896  20890.5  143.359
 14.7316  20610.9  143.414
 14.7736  20442.1  141.985
 14.8156  20309.5  141.544
 14.8576  20200.9  141.027
 14.8996  19932.1  141.258
 14.9416  19542  139.883
 14.9836  19486.5  139.616
 15.0256  18982.4  136.691
 15.0676  19057.1  137.265
 15.1096  18781.4  136.015
 15.1516  18504.4  135.578
 15.1936  18570  135.232
 15.2356  18393  134.856
 15.2776  18308.2  134.143
 15.3196  17946.8  133.781
 15.3616  17884.7  133.279
 15.4036  17803.5  132.878
 15.4456  17921.5  132.721
 15.4876  17739.6  131.989
 15.5296  17576  131.689
 15.5716  17469.6  130.868
 15.6136  17266.7  130.455
 15.6556  17163.3  129.299
 15.6976  17375.9  130.175
 15.7396  17042.2  129.472
 15.7816  17073.9  129.151
 15.8236  16763.5  128.611
 15.8656  16840.2  128.737
 15.9076  16642.3  127.808
 15.9496  17236.1  132.971
 15.9916  16976.6  132.307
 16.0336  17083.2  129.711
 16.0756  16946  129.446
 16.1176  16722.2  128.664
 16.1596  16370.5  128.451
 16.2016  16354  127.119
 16.2436  16223.2  127.039
 16.2856  16279.1  126.783
 16.3276  16044.9  126.298
 16.3696  16183.5  126.664
 16.4116  15991.9  126.354
 16.4536  16280.1  127.297
 16.4956  16222.9  126.872
 16.5376  15924.6  125.827
 16.5796  15929.4  125.223
 16.6216  15916.7  125.437
 16.6636  15573.3  124.197
 16.7056  15688.9  124.583
 16.7476  15801.5  124.645
 16.7896  15865.3  125.552
 16.8316  15790.4  125.232
 16.8736  16005.3  126.391
 16.9156  15790.4  125.801
 16.9576  15598.1  125.852
 16.9996  15594.5  126.267
 17.0416  15767.1  125.43
 17.0836  15782  125.28
 17.1256  15680.1  124.883
 17.1676  15712.3  124.963
 17.2096  15482.3  123.953
 17.2516  15452.1  123.629
 17.2936  15327.3  123.466
 17.3356  15144.7  122.744
 17.3776  15243.2  123.301
 17.4196  15041.8  122.16
 17.4616  14911.8  121.561
 17.5036  14610.6  120.664
 17.5456  14540  121.013
 17.5876  14706.4  120.771
 17.6296  14614.5  120.227
 17.6716  14551.7  120.536
 17.7136  14397.7  120.053
 17.7556  14262.1  119.745
 17.7976  14172.8  118.945
 17.8396  14120.8  118.409
 17.8816  14041.6  118.597
 17.9236  14043.6  118.418
 17.9656  14048.3  119.031
 18.0076  13968.6  118.136
 18.0496  13956.4  117.248
 18.0916  13817.1  117.19
 18.1336  13788.5  117.153
 18.1756  13990.1  117.577
 18.2176  13717.1  116.626
 18.2596  13672.8  116.177
 18.3016  13770.3  116.847
 18.3436  13918.6  117.709
 18.3856  13642.2  116.47
 18.4276  13693.1  116.344
 18.4696  13658.9  116.281
 18.5116  13677  116.628
 18.5536  13692.9  117.004
 18.5956  13522.1  115.885
 18.6376  13503.4  116.197
 18.6796  13395.1  115.063
 18.7216  13583.4  116.418
 18.7636  13485.1  115.975
 18.8056  13467.4  115.787
 18.8476  13372.3  115.694
 18.8896  13431.3  115.589
 18.9316  13475.6  115.576
 18.9736  13437.1  115.309
 19.0156  13215.8  114.707
 19.0576  13516.3  114.961
 19.0996  13430.2  115.258
 19.1416  13430.5  115.692
 19.1836  13242.4  114.449
 19.2256  13103.2  114.06
 19.2676  13083.8  114.06
 19.3096  13188.1  114.713
 19.3516  13170.9  114.636
 19.3936  13047  114.024
 19.4356  13315.7  115.089
 19.4776  13300.5  115.069
 19.5196  13199.9  114.489
 19.5616  13172.3  114.623
 19.6036  13225.1  114.225
 19.6456  13208.8  114.408
 19.6876  13273.8  114.308
 19.7296  13338.4  115.102
 19.7716  13109.7  114.096
 19.8136  13508.6  116.197
 19.8556  13416.3  115.254
 19.8976  13364.2  115.088
 19.9396  13409.5  114.881
 19.9816  13512  115.528
 20.0236  13742.4  116.719
 20.0656  13901.8  117.374
 20.1076  14156.5  118.999
 20.1496  14084.4  118.649
 20.1916  14383.2  119.45
 20.2336  13968.9  117.6
 20.2756  13760.7  117.156
 20.3176  13540  115.961
 20.3596  13280.4  114.8
 20.4016  13203.9  114.298
 20.4436  13029  114.065
 20.4856  13217.6  114.748
 20.5276  13014.9  114.283
 20.5696  13074.8  114.037
 20.6116  12778.6  112.963
 20.6536  12804.1  112.662
 20.6956  12741.1  112.459
 20.7376  12663.6  112.293
 20.7796  12665  112.028
 20.8216  12779.1  112.252
 20.8636  12692.9  112.278
 20.9056  12674.8  112.094
 20.9476  12617  111.734
 20.9896  12795.3  112.341
 21.0316  12648.1  111.569
 21.0736  12550.6  111.676
 21.1156  12429.8  111.259
 21.1576  12679.8  112.447
 21.1996  12494.1  111.608
 21.2416  12526.3  111.617
 21.2836  12516.3  111.51
 21.3256  12415.1  111.169
 21.3676  12473.7  110.94
 21.4096  12336.9  110.642
 21.4516  12299.6  110.35
 21.4936  12163.4  109.958
 21.5356  12243.4  110.302
 21.5776  12320.5  110.489
 21.6196  12253.7  110.228
 21.6616  12276  110.409
 21.7036  12250.7  110.069
 21.7456  12263.9  110.196
 21.7876  12203.9  109.706
 21.8296  12190.8  109.493
 21.8716  12158.4  109.598
 21.9136  12326.7  110.52
 21.9556  12205.1  109.656
 21.9976  12075.3  109.105
 22.0396  12178.5  109.819
 22.0816  12075  109.819
 22.1236  12323.1  110.458
 22.1656  12121.7  109.708
 22.2076  12040.9  108.716
 22.2496  11958.6  108.398
 22.2916  12022.6  108.545
 22.3336  11839.5  108.399
 22.3756  11842.8  108.163
 22.4176  11901.3  108.29
 22.4596  11719.4  107.999
 22.5016  11795  107.897
 22.5436  12054.2  108.923
 22.5856  12157.4  109.652
 22.6276  12199  109.998
 22.6696  11967.1  109.274
 22.7116  11812.6  108.118
 22.7536  11831.8  108.156
 22.7956  11843.3  107.587
 22.8376  11638.8  107.104
 22.8796  11671.3  107.085
 22.9216  12027.2  109.212
 22.9636  11836  107.548
 23.0056  11734.5  107.211
 23.0476  11820.3  108.161
 23.0896  12204.6  109.29
 23.1316  11870.3  108.209
 23.1736  12093.8  112.187
 23.2156  12396.3  110.91
 23.2576  12397.6  111.171
 23.2996  12206.8  109.989
 23.3416  12409.1  111.524
 23.3836  12277.6  110.045
 23.4256  12442.4  111.028
 23.4676  12398.5  110.474
 23.5096  12239.2  110.421
 23.5516  12147.9  109.312
 23.5936  12168.6  110.301
 23.6356  12222.2  110.21
 23.6776  12117.9  110.27
 23.7196  12055.6  109.25
 23.7616  12129.5  109.453
 23.8036  12316.5  110.449
 23.8456  12022.6  108.584
 23.8876  12014.5  109.001
 23.9296  12033.1  109.514
 23.9716  11959.4  108.395
 24.0136  12189  110.328
 24.0556  11851.7  108.508
 24.0976  11715.9  107.706
 24.1396  11660  110.027
 24.1816  11831.2  109.624
 24.2236  11863.3  109.12
 24.2656  11652.1  107.63
 24.3076  11654  107.901
 24.3496  11626.4  107.629
 24.3916  11606.6  107.614
 24.4336  11512.5  107.375
 24.4756  11731.6  108.277
 24.5176  11558.9  107.116
 24.5596  11346.5  106.234
 24.6016  11287.5  106.254
 24.6436  11540.2  106.974
 24.6856  11270.4  105.444
 24.7276  11138.2  105.114
 24.7696  11283.1  105.927
 24.8116  11177.8  105.576
 24.8536  11058.9  105.048
 24.8956  11133.9  105.14
 24.9376  11129.5  105.046
 24.9796  10941.8  104.514
 25.0216  11012.1  104.985
 25.0636  11038.9  104.748
 25.1056  10882  104.386
 25.1476  10868.3  106.173
 25.1896  10875.3  104.716
 25.2316  10756.1  103.324
 25.2736  10848.6  103.535
 25.3156  10838.9  103.559
 25.3576  10815.2  103.876
 25.3996  10742.7  103.512
 25.4416  10691.7  103.242
 25.4836  10532.3  102.978
 25.5256  10757.3  103.443
 25.5676  10613.9  102.488
 25.6096  10634.7  103.156
 25.6516  10671  102.842
 25.6936  10676  103.206
 25.7356  10580.6  102.843
 25.7776  10634.9  102.711
 25.8196  10423.5  101.926
 25.8616  10436.4  101.882
 25.9036  10619  102.271
 25.9456  10534  102.451
 25.9876  10440.9  102.059
 26.0296  10712.5  102.981
 26.0716  10400.6  101.839
 26.1136  10563.9  102.529
 26.1556  10666.8  102.335
 26.1976  10374.3  101.917
 26.2396  10410.2  101.484
 26.2816  10398.1  101.802
 26.3236  10363  101.666
 26.3656  10547.2  102.442
 26.4076  10466.3  102.215
 26.4496  10580.6  102.409
 26.4916  10799.3  103.326
 26.5336  11001  104.619
 26.5756  11153.4  105.217
 26.6176  10599.6  102.569
 26.6596  10439.6  102.124
 26.7016  10309.5  101.27
 26.7436  10428.6  102.004
 26.7856  10195.4  100.801
 26.8276  10328  101.426
 26.8696  10339.4  101.351
 26.9116  10370.5  101.44
 26.9536  10158.8  100.452
 26.9956  10017.9  99.7581
 27.0376  10210.8  100.995
 27.0796  10148.1  100.379
 27.1216  10161  100.545
 27.1636  9909.24  99.4156
 27.2056  10005.6  99.7856
 27.2476  10066.2  100.079
 27.2896  10012.2  99.8468
 27.3316  9996.62  99.5617
 27.3736  9879.64  99.2184
 27.4156  10072.7  100.084
 27.4576  9863.22  99.2287
 27.4996  9937.03  99.2473
 27.5416  9886.2  99.2556
 27.5836  9884.61  99.0867
 27.6256  9859.59  99.1393
 27.6676  9866.92  99.1409
 27.7096  9922.59  99.3311
 27.7516  9832.22  98.9924
 27.7936  10115.9  100.631
 27.8356  9912.56  99.179
 27.8776  10071.6  100.068
 27.9196  9725.78  98.171
 27.9616  9800.91  98.7459
 28.0036  9769.16  98.5495
 28.0456  9672.49  98.1686
 28.0876  9629.1  98.055
 28.1296  9577.67  97.6316
 28.1716  9666.08  98.1366
 28.2136  9611.62  97.7937
 28.2556  9799.39  98.8892
 28.2976  9518.37  97.4218
 28.3396  9460.75  96.8996
 28.3816  9599.78  97.6019
 28.4236  9443.65  96.93
 28.4656  9482.44  97.2021
 28.5076  9518.34  97.0332
 28.5496  9504.56  97.2104
 28.5916  9450.53  96.7531
 28.6336  9499.48  97.3696
 28.6756  9484.93  96.4716
 28.7176  9534.2  97.2733
 28.7596  9386.5  96.4176
 28.8016  9325.72  96.1907
 28.8436  9351.31  96.5026
 28.8856  9402.14  96.6165
 28.9276  9318.04  96.4287
 28.9696  9303.64  96.0171
 29.0116  9272.05  96.0244
 29.0536  9283.33  96.2969
 29.0956  9386.77  96.539
 29.1376  9360.7  96.379
 29.1796  9291.81  96.0982
 29.2216  9354.06  96.2339
 29.2636  9382.61  96.4079
 29.3056  9225.08  95.4239
 29.3476  9282.84  96.2428
 29.3896  9301.14  96.4155
 29.4316  9216.69  95.2895
 29.4736  9087.27  94.6553
 29.5156  9143.59  94.8954
 29.5576  8986.04  94.8106
 29.5996  9101.03  94.6727
 29.6416  9045.79  94.5163
 29.6836  9060.36  94.5068
 29.7256  9113.9  95.3343
 29.7676  9043.86  94.6165
 29.8096  9012.35  94.4193
 29.8516  8868.05  93.9567
 29.8936  8994.61  94.7387
 29.9356  9101.15  95.0591
 29.9776  8894.73  94.1234
 30.0196  8973.75  93.9737
 30.0616  8997.94  94.4376
 30.1036  8953.24  94.0566
 30.1456  8957.2  94.3024
 30.1876  8902.7  93.9962
 30.2296  8863.85  93.6939
 30.2716  8884.09  93.4731
 30.3136  8892.26  94.068
 30.3556  9070.08  95.3585
 30.3976  8946.18  96.1457
 30.4396  9469.63  96.3419
 30.4816  9219.99  94.6306
 30.5236  9068.76  93.8995
 30.5656  9087.74  94.591
 30.6076  9190.91  94.5512
 30.6496  9238.29  95.1975
 30.6916  8961.24  93.8034
 30.7336  8946.68  93.9125
 30.7756  8979.2  94.3457
 30.8176  9243.55  95.461
 30.8596  9144.03  94.7045
 30.9016  9123.6  94.9599
 30.9436  9204.84  95.1195
 30.9856  9305.89  95.8058
 31.0276  9053.5  94.0895
 31.0696  9159.3  95.1018
 31.1116  8945.29  94.0465
 31.1536  9084.48  94.6053
 31.1956  8979.47  94.1959
 31.2376  8762.53  93.0265
 31.2796  9008.68  93.9136
 31.3216  8933.68  93.4442
 31.3636  8976.77  94.3914
 31.4056  8880.98  95.1446
 31.4476  9073.57  94.1606
 31.4896  9128.36  94.9445
 31.5316  8946.64  93.4534
 31.5736  9113.49  94.1128
 31.6156  8991.74  93.4878
 31.6576  9059.7  93.9224
 31.6996  9175.13  94.1782
 31.7416  8836.48  93.4935
 31.7836  8950  93.1058
 31.8256  8918.96  93.2912
 31.8676  9136.27  94.3222
 31.9096  8915.04  93.5439
 31.9516  8681.86  92.4778
 31.9936  8768.95  92.7388
 32.0356  8903.32  93.5189
 32.0776  8902.44  93.4039
 32.1196  8891.45  93.4591
 32.1616  8918.52  93.0602
 32.2036  8964.4  93.8248
 32.2456  8745.7  93.0245
 32.2876  8706.15  92.1346
 32.3296  8628.57  91.8747
 32.3716  8622.47  91.8897
 32.4136  8565.31  91.7457
 32.4556  8734.03  92.1332
 32.4976  8605.85  91.2797
 32.5396  8734.25  92.0521
 32.5816  8757.64  92.2016
 32.6236  8646.68  91.7673
 32.6656  8642.14  92.2859
 32.7076  8604.72  91.7477
 32.7496  8643.8  91.638
 32.7916  8697.62  91.8788
 32.8336  8635.06  91.638
 32.8756  8770.16  92.202
 32.9176  8537.65  91.3246
 32.9596  8574.67  91.5903
 33.0016  8616.33  91.5916
 33.0436  8601.83  91.6506
 33.0856  8512.82  91.3018
 33.1276  8429.06  90.591
 33.1696  8544.24  91.045
 33.2116  8555.3  91.3308
 33.2536  8695.6  92.0906
 33.2956  8596.22  91.6207
 33.3376  8560.42  91.1652
 33.3796  8505.52  91.0975
 33.4216  8443.55  90.3314
 33.4636  8518.15  90.9072
 33.5056  8404.98  90.3632
 33.5476  8529.8  91.2199
 33.5896  8710.85  91.9315
 33.6316  8495.44  91.1462
 33.6736  8321.51  90.4124
 33.7156  8358.54  90.6497
 33.7576  8507.02  91.0943
 33.7996  8482.43  90.7037
 33.8416  8192.7  89.3481
 33.8836  8394.82  90.1967
 33.9256  8570.37  91.2509
 33.9676  8464.62  90.5544
 34.0096  8410.6  90.5949
 34.0516  8346.86  89.8648
 34.0936  8378.44  90.3087
 34.1356  8474.21  90.5651
 34.1776  8280.95  89.5026
 34.2196  8306.95  89.8384
 34.2616  8271.23  89.8248
 34.3036  8288.44  90.1518
 34.3456  8270.71  89.7802
 34.3876  8437.72  90.6878
 34.4296  8241.67  89.2983
 34.4716  8460.96  90.6238
 34.5136  8194.53  89.3727
 34.5556  8187.24  89.5583
 34.5976  8311.56  90.0725
 34.6396  8277.9  89.6141
 34.6816  8311.23  89.9225
 34.7236  8402.6  90.1727
 34.7656  8280.59  89.7169
 34.8076  8193.35  89.567
 34.8496  8159.79  89.2076
 34.8916  8239.88  89.539
 34.9336  8275.89  89.692
 34.9756  8250.1  89.4985
 35.0176  8287.49  90.2215
 35.0596  8330.97  90.3132
 35.1016  8304.34  89.8947
 35.1436  8466.38  90.4614
 35.1856  8173.99  89
 35.2276  8263.57  89.6372
 35.2696  8229.64  89.6697
 35.3116  8226.04  89.7253
 35.3536  8134.89  88.9644
 35.3956  8268.99  89.4029
 35.4376  8216.17  89.7048
 35.4796  8154.24  89.3773
 35.5216  8208.84  89.6019
 35.5636  7923.83  88.7865
 35.6056  8104.71  88.8128
 35.6476  8193.44  89.2283
 35.6896  8233.87  89.6103
 35.7316  8035.03  88.4245
 35.7736  8153.37  89.2535
 35.8156  8220.82  89.6486
 35.8576  8149.99  89.4889
 35.8996  8221.14  89.841
 35.9416  8064.88  88.4955
 35.9836  8123.08  89.1575
 36.0256  8234  89.7853
 36.0676  8282.4  89.5721
 36.1096  8199.77  89.4981
 36.1516  8250.25  89.6516
 36.1936  8203.09  89.2513
 36.2356  8174.41  89.7415
 36.2776  8056.57  88.5399
 36.3196  8147.98  88.7528
 36.3616  8122.63  88.7397
 36.4036  8066.86  88.4984
 36.4456  8116.72  89.0026
 36.4876  7884.31  87.6363
 36.5296  7976.72  88.184
 36.5716  7993.09  89.0421
 36.6136  7788.01  86.6515
 36.6556  7877.31  87.3181
 36.6976  7873.33  87.8036
 36.7396  7871.58  87.6199
 36.7816  7751.59  87.2244
 36.8236  7854.82  87.7507
 36.8656  7687.23  86.8533
 36.9076  7766.28  87.3072
 36.9496  7613.43  86.4548
 36.9916  7763.35  86.7934
 37.0336  7727.22  86.8736
 37.0756  7754.45  86.8497
 37.1176  7635.58  86.5101
 37.1596  7727.52  86.9621
 37.2016  7574.66  86.2932
 37.2436  7871.72  87.3224
 37.2856  7688.85  86.5688
 37.3276  7745.07  86.2395
 37.3696  7681.94  86.7673
 37.4116  7723.71  86.8675
 37.4536  7614.09  86.1354
 37.4956  7591.69  86.0325
 37.5376  7856.76  89.1766
 37.5796  7832.46  88.9567
 37.6216  7700.28  86.5153
 37.6636  7924.28  87.6971
 37.7056  7744.35  86.8448
 37.7476  8021.49  87.9654
 37.7896  7741  86.8321
 37.8316  7773.75  87.2506
 37.8736  7743  86.5351
 37.9156  7928.69  87.6043
 37.9576  7766.75  86.7113
 37.9996  7621.35  85.5193
 38.0416  7689.49  86.6922
 38.0836  7878.27  87.6529
 38.1256  7845.18  87.4409
 38.1676  7580.31  86.0723
 38.2096  7774.73  86.8336
 38.2516  7785.62  86.9728
 38.2936  7847.62  87.2487
 38.3356  7742.88  86.5141
 38.3776  7613.66  86.0728
 38.4196  7812.28  87.0076
 38.4616  7627.34  86.252
 38.5036  7860.21  87.4015
 38.5456  7707.32  87.3618
 38.5876  7615.38  86.8534
 38.6296  7674.61  86.2532
 38.6716  7648.56  85.9149
 38.7136  7576.15  85.4445
 38.7556  7630.74  86.2572
 38.7976  7706.95  86.617
 38.8396  7589.82  86.4054
 38.8816  7557.7  86.0191
 38.9236  7525.96  85.6445
 38.9656  7726.94  86.6986
 39.0076  7699.44  85.9518
 39.0496  7820.11  87.1896
 39.0916  7597.25  85.5729
 39.1336  7667.35  86.3659
 39.1756  7591.72  86.0062
 39.2176  7516.57  86.079
 39.2596  7663.41  86.8564
 39.3016  7626.84  86.243
 39.3436  7624.08  86.6289
 39.3856  7653.78  86.2496
 39.4276  7757.15  87.358
 39.4696  7814.92  87.2864
 39.5116  7692  87.1182
 39.5536  7761.1  87.8447
 39.5956  7607.03  86.0928
 39.6376  7624.31  86.0304
 39.6796  7675.81  86.2281
 39.7216  7575.48  85.7343
 39.7636  7615.25  86.5352
 39.8056  7684.85  86.7251
 39.8476  7559.45  86.2638
 39.8896  7759.6  87.0642
 39.9316  7550.72  86.0894
 39.9736  7644.33  86.2097
 40.0156  7686.93  86.2817
 40.0576  7597.06  86.1237
 40.0996  7799.87  86.4568
 40.1416  7644.7  86.3699
 40.1836  7698.75  86.5654
 40.2256  7639.45  86.2669
 40.2676  7558.93  85.9136
 40.3096  7741.83  86.8804
 40.3516  7692.25  86.7615
 40.3936  7788.08  86.801
 40.4356  7646.93  86.2191
 40.4776  7731.52  87.0901
 40.5196  7681.44  86.9326
 40.5616  7785.78  87.1986
 40.6036  7697.15  86.9229
 40.6456  7654.66  86.26
 40.6876  7746  86.8018
 40.7296  7698.37  86.6414
 40.7716  7679.45  86.6757
 40.8136  7602.51  86.1871
 40.8556  7728.35  87.0629
 40.8976  7689.92  86.7358
 40.9396  7689.73  87.1092
 40.9816  7715.6  86.5312
 41.0236  7676.86  86.0672
 41.0656  7699.83  86.7582
 41.1076  7715.11  86.5939
 41.1496  7766.39  86.8066
 41.1916  7651.98  86.4811
 41.2336  7693.61  86.7442
 41.2756  7616.51  85.8868
 41.3176  7677.64  86.8677
 41.3596  7750.93  86.9861
 41.4016  7582.09  86.2573
 41.4436  7758.61  87.0757
 41.4856  7684.94  86.7995
 41.5276  7591.05  86.3079
 41.5696  7668.31  86.3674
 41.6116  7638.11  86.626
 41.6536  7706.78  86.838
 41.6956  7669.53  86.7273
 41.7376  7557.92  86.0834
 41.7796  7513.2  85.7375
 41.8216  7745.25  87.2601
 41.8636  7562.13  86.1387
 41.9056  7489.7  85.5534
 41.9476  7756.05  87.2831
 41.9896  7799.73  87.2342
 42.0316  7664.53  86.5314
 42.0736  7591.79  86.2503
 42.1156  7652.61  86.4042
 42.1576  7606.26  86.219
 42.1996  7761.24  87.2506
 42.2416  7614.31  85.9866
 42.2836  7618.94  86.1567
 42.3256  7595.53  86.1291
 42.3676  7747.18  86.8161
 42.4096  7587.86  85.8637
 42.4516  7675.63  86.4647
 42.4936  7549.77  85.7927
 42.5356  7473.02  85.474
 42.5776  7679.52  86.6073
 42.6196  7579.85  85.9943
 42.6616  7464.75  85.6064
 42.7036  7511.67  85.2665
 42.7456  7681.02  86.6016
 42.7876  7582.19  86.1108
 42.8296  7586.32  86.0631
 42.8716  7428.43  85.2372
 42.9136  7545.58  85.6961
 42.9556  7615.54  86.2233
 42.9976  7608.4  86.1487
 43.0396  7654.52  86.1431
 43.0816  7587.3  86.1365
 43.1236  7517.11  85.7948
 43.1656  7582.65  85.9912
 43.2076  7451.6  85.3543
 43.2496  7521.91  85.5773
 43.2916  7484.51  85.7219
 43.3336  7497.68  85.6379
 43.3756  7511.86  85.4971
 43.4176  7380.11  84.8018
 43.4596  7355.67  84.5177
 43.5016  7518.22  85.8452
 43.5436  7484.42  85.5595
 43.5856  7542.19  85.8897
 43.6276  7426.92  85.1421
 43.6696  7435.71  85.3222
 43.7116  7411.7  84.8254
 43.7536  7528.43  86.0066
 43.7956  7327.37  86.0176
 43.8376  7354.97  84.6811
 43.8796  7290.57  84.3681
 43.9216  7353.49  84.6522
 43.9636  7377.97  84.8785
 44.0056  7335.79  84.8834
 44.0476  7320.32  84.4098
 44.0896  7347.67  84.9246
 44.1316  7220.61  83.8826
 44.1736  7292.49  84.2614
 44.2156  7296.64  84.1605
 44.2576  7344.46  84.7374
 44.2996  7367.96  84.8626
 44.3416  7320.21  84.312
 44.3836  7200.29  83.9574
 44.4256  7250.35  83.8825
 44.4676  7314.41  84.4203
 44.5096  7346.66  84.7539
 44.5516  7267.53  84.2634
 44.5936  7147.48  83.517
 44.6356  7257.38  83.9002
 44.6776  7236.36  84.1125
 44.7196  7285.32  84.632
 44.7616  7354.36  86.4457
 44.8036  7290.65  84.4803
 44.8456  7277.56  84.6437
 44.8876  7321.4  84.7486
 44.9296  7374.44  84.5155
 44.9716  7403.53  85.1465
 45.0136  7450.95  85.3108
 45.0556  7482.48  85.5067
 45.0976  7386.27  85.0742
 45.1396  7294.59  84.3048
 45.1816  7384.54  84.5934
 45.2236  7321.54  84.3063
 45.2656  7307.81  84.675
 45.3076  7263.17  84.255
 45.3496  7367.33  85.1084
 45.3916  7432.91  85.8015
 45.4336  7331.87  85.1021
 45.4756  7254.68  84.4706
 45.5176  7356.93  84.722
 45.5596  7340.34  84.7028
 45.6016  7231.35  84.4898
 45.6436  7317.92  84.1782
 45.6856  7414.27  85.3789
 45.7276  7214.42  86.0118
 45.7696  7251.63  85.4236
 45.8116  7358.71  85.5312
 45.8536  7239.58  84.7535
 45.8956  7301.39  84.4655
 45.9376  7227.72  83.5144
 45.9796  7387.13  85.1474
 46.0216  7444.09  85.7757
 46.0636  7406.02  84.7052
 46.1056  7267.16  83.9027
 46.1476  7229.16  84.2664
 46.1896  7258.15  84.5752
 46.2316  7333.58  84.8945
 46.2736  7098.22  83.8822
 46.3156  7216.03  84.1657
 46.3576  7198.4  84.2554
 46.3996  7174.05  84.2741
 46.4416  7221.04  84.1358
 46.4836  7379.55  85.4106
 46.5256  7134.65  83.9181
 46.5676  7150.09  84.1238
 46.6096  7295.45  84.8989
 46.6516  7292.02  83.9245
 46.6936  7270.2  84.3025
 46.7356  7357.99  84.9242
 46.7776  7245.76  85.0405
 46.8196  7210.67  84.4481
 46.8616  7051.11  83.4092
 46.9036  7133.56  83.5852
 46.9456  7115.46  83.102
 46.9876  7274.86  84.1309
 47.0296  7120.09  83.8866
 47.0716  7139.95  83.859
 47.1136  7201.31  83.9272
 47.1556  7012.25  82.6575
 47.1976  7189.49  83.8039
 47.2396  7108.79  83.7021
 47.2816  7131.27  83.5363
 47.3236  7062.23  83.4869
 47.3656  7180.68  84.1255
 47.4076  7154.34  83.7411
 47.4496  7116.19  83.6467
 47.4916  7148.55  84.0204
 47.5336  7170.98  83.9709
 47.5756  7195.21  84.159
 47.6176  7044.05  83.2441
 47.6596  7111.73  83.3498
 47.7016  7292.52  84.2101
 47.7436  7192.54  83.9801
 47.7856  7245.13  84.3324
 47.8276  7166.28  83.9009
 47.8696  7189.96  84.1192
 47.9116  7216.21  83.9942
 47.9536  7172.54  83.6498
 47.9956  7043.45  83.6257
 48.0376  7075.97  83.5867
 48.0796  7142.15  84.1083
 48.1216  7056.28  83.4277
 48.1636  7272.58  84.2925
 48.2056  7191.94  84.0622
 48.2476  7283.96  84.932
 48.2896  7304.94  84.9359
 48.3316  7263.79  84.6129
 48.3736  7221.15  84.4115
 48.4156  7108.25  83.5832
 48.4576  7164.87  84.2285
 48.4996  7218.23  83.9984
 48.5416  7266.95  84.639
 48.5836  7167.14  83.7055
 48.6256  7180.69  84.0151
 48.6676  7105.32  84.0583
 48.7096  7262.25  84.2113
 48.7516  7143.41  83.7014
 48.7936  7029.99  83.0752
 48.8356  7157.97  83.8986
 48.8776  7211.13  84.6992
 48.9196  7200.64  84.1201
 48.9616  7102.85  83.9037
 49.0036  7084.06  84.1571
 49.0456  7155.53  84.535
 49.0876  7109.95  83.8847
 49.1296  6950.04  83.0225
 49.1716  6971.58  83.001
 49.2136  7105.23  83.7283
 49.2556  7173.54  84.1629
 49.2976  7100.12  83.8357
 49.3396  7004.8  83.303
 49.3816  7197.16  83.8897
 49.4236  7133.08  83.9093
 49.4656  7096.68  83.6952
 49.5076  7186.51  83.9934
 49.5496  7036.01  83.0259
 49.5916  7154.92  83.7889
 49.6336  7080.79  83.5559
 49.6756  7081.59  83.8194
 49.7176  7042.86  83.5053
 49.7596  7061.72  83.5936
 49.8016  7123.59  83.6668
 49.8436  7005.12  83.2435
 49.8856  7057.21  83.5788
 49.9276  7036.02  83.5512
 49.9696  7109.81  83.9723
 50.0116  7038.94  83.6861
 50.0536  7105.33  84.0261
 50.0956  7074.87  83.9113
 50.1376  7011.48  83.2347
 50.1796  7018.32  83.5517
 50.2216  6982.23  83.3238
 50.2636  6883.48  82.3626
 50.3056  7030.03  83.4101
 50.3476  7006.74  83.2877
 50.3896  6992.75  83.1798
 50.4316  7088.14  83.5745
 50.4736  6936.67  82.8996
 50.5156  6943.57  82.8999
 50.5576  7007.43  83.0713
 50.5996  7010.62  83.3727
 50.6416  6948.27  82.9225
 50.6836  7008.32  83.3637
 50.7256  7101.48  83.8182
 50.7676  7171.14  84.5835
 50.8096  7093.33  83.615
 50.8516  6908.45  82.9416
 50.8936  7000.23  83.2473
 50.9356  7020.98  83.4877
 50.9776  7033.84  83.7114
 51.0196  6846.86  82.6892
 51.0616  6961.17  82.7121
 51.1036  6938.93  82.9183
 51.1456  6851.97  82.3333
 51.1876  6945.75  82.2077
 51.2296  6764.58  81.7638
 51.2716  6800.07  81.6561
 51.3136  6847.08  82.4265
 51.3556  6797.15  81.7275
 51.3976  6818.49  82.0263
 51.4396  6706.17  81.6572
 51.4816  6768.57  81.8892
 51.5236  6880.92  82.6702
 51.5656  6874.27  82.2081
 51.6076  6869.02  82.28
 51.6496  6784.24  81.9195
 51.6916  6750.54  82.1143
 51.7336  6742.14  82.1108
 51.7756  6773.9  82.0229
 51.8176  6693.1  81.6096
 51.8596  6656.58  81.4342
 51.9016  6912.22  82.5865
 51.9436  6791.84  83.414
 51.9856  6838.1  84.1458
 52.0276  6737.28  81.9883
 52.0696  6905.85  83.1082
 52.1116  6775.86  82.3699
 52.1536  6836.84  82.6969
 52.1956  6803.55  81.8795
 52.2376  6929.53  82.8527
 52.2796  6839.09  82.1271
 52.3216  6745.01  82.2453
 52.3636  6950.99  83.0334
 52.4056  6773.23  81.851
 52.4476  6659.41  81.5155
 52.4896  6766  82.2149
 52.5316  6881.86  83.0134
 52.5736  6617.22  81.0453
 52.6156  6866.06  83.0281
 52.6576  6731.7  81.5661
 52.6996  6608.77  81.8401
 52.7416  6667.93  82.0203
 52.7836  6781  82.6423
 52.8256  6840.07  82.2082
 52.8676  6637.79  81.5587
 52.9096  6745.79  82.2936
 52.9516  6757.84  82.7501
 52.9936  6765.21  83.195
 53.0356  6875.44  82.8865
 53.0776  6892.45  83.3206
 53.1196  6712.04  82.3007
 53.1616  6791.49  82.8379
 53.2036  6797.97  82.8373
 53.2456  6671.96  82.1709
 53.2876  6778.67  82.5126
 53.3296  6754.18  82.6951
 53.3716  6828.13  82.9083
 53.4136  6729.26  82.4433
 53.4556  6752.44  82.6127
 53.4976  6721.91  82.2616
 53.5396  6701.59  82.5159
 53.5816  6780.17  82.6565
 53.6236  6589.75  81.8366
 53.6656  6738.48  82.3464
 53.7076  6749.59  82.3865
 53.7496  6706.2  82.263
 53.7916  6668.92  82.1577
 53.8336  6660.25  82.0108
 53.8756  6551.07  81.8694
 53.9176  6582.77  81.3832
 53.9596  6419.12  81.0591
 54.0016  6430.95  80.4955
 54.0436  6325.27  80.0243
 54.0856  6615.45  81.288
 54.1276  6429.84  80.3289
 54.1696  6444.98  80.6005
 54.2116  6583.83  81.2329
 54.2536  6499.46  80.4965
 54.2956  6450.8  80.2382
 54.3376  6400.13  80.4145
 54.3796  6376.61  80.1634
 54.4216  6474.2  80.8245
 54.4636  6440.45  80.5751
 54.5056  6547.65  81.0628
 54.5476  6351.09  80.155
 54.5896  6428.65  80.4884
 54.6316  6412.18  80.2419
 54.6736  6370.99  80.0164
 54.7156  6401.76  80.2814
 54.7576  6396.04  80.2153
 54.7996  6419.89  80.5204
 54.8416  6447.22  80.7518
 54.8836  6357.28  80.296
 54.9256  6381.21  80.1936
 54.9676  6263.9  79.2846
 55.0096  6335.54  79.7962
 55.0516  6239.55  79.3447
 55.0936  6362.1  79.8708
 55.1356  6280.42  79.3956
 55.1776  6392.4  80.364
 55.2196  6321.8  79.6847
 55.2616  6434.15  80.6387
 55.3036  6263.97  79.7157
 55.3456  6220.33  79.5425
 55.3876  6372.65  80.2538
 55.4296  6233.16  79.3618
 55.4716  6229.53  79.3884
 55.5136  6338.6  79.8449
 55.5556  6465.27  80.7161
 55.5976  6298.84  79.7088
 55.6396  6378.49  80.1933
 55.6816  6239.8  79.1578
 55.7236  6211.45  79.1412
 55.7656  6286.57  79.2589
 55.8076  6196.02  78.6517
 55.8496  6284.37  79.5546
 55.8916  6262.58  79.5764
 55.9336  6292.72  79.6563
 55.9756  6181.6  78.8066
 56.0176  6175.65  78.9229
 56.0596  6241.07  79.3306
 56.1016  6064.19  78.2223
 56.1436  6130.24  78.8874
 56.1856  6092.6  78.3633
 56.2276  6320.79  79.9205
 56.2696  6232.43  79.3168
 56.3116  6279.68  80.0209
 56.3536  6195.22  79.1286
 56.3956  6165.3  78.9216
 56.4376  6189.97  79.123
 56.4796  6028.19  77.871
 56.5216  6084.18  78.6173
 56.5636  6088.18  78.2048
 56.6056  6233.67  79.4214
 56.6476  6105.65  78.1743
 56.6896  6259.34  79.6661
 56.7316  6048.38  78.2031
 56.7736  6085.66  78.4154
 56.8156  6109.45  78.5995
 56.8576  5963.49  77.5828
 56.8996  6103.1  78.4109
 56.9416  6028.62  78.0747
 56.9836  6164.82  78.6686
 57.0256  6039.07  78.1479
 57.0676  6240.09  79.5799
 57.1096  6004.17  77.8349
 57.1516  6013.96  77.8915
 57.1936  6024.87  77.7807
 57.2356  6008.58  77.9708
 57.2776  6094.74  78.5216
 57.3196  6142.03  79.1518
 57.3616  6084.27  78.2862
 57.4036  6107.21  78.4911
 57.4456  6215.95  79.195
 57.4876  6118.34  78.4192
 57.5296  6003.5  77.8946
 57.5716  6026.38  78.1381
 57.6136  5981.52  77.6718
 57.6556  5970.85  77.7544
 57.6976  6027.48  77.9502
 57.7396  6026.42  78.3042
 57.7816  5924.27  77.9947
 57.8236  5954.35  77.9696
 57.8656  6083.69  78.4946
 57.9076  5993.24  77.9205
 57.9496  5842.64  77.2863
 57.9916  5938.21  77.3938
 58.0336  5948.94  77.7887
 58.0756  6104.83  78.4495
 58.1176  5955.54  77.4571
 58.1596  5880.28  77.5454
 58.2016  5723.23  75.7099
 58.2436  5799.77  76.5981
 58.2856  5723.11  75.9958
 58.3276  5738.1  76.4745
 58.3696  5706.74  76.0408
 58.4116  5794.8  76.4749
 58.4536  5832.41  76.6298
 58.4956  5740.31  76.1799
 58.5376  5739.46  75.7566
 58.5796  5633.38  75.4444
 58.6216  5759.91  76.1313
 58.6636  5766.66  76.3614
 58.7056  5761.91  76.2023
 58.7476  5756.33  76.6046
 58.7896  5657.75  75.602
 58.8316  5787.7  76.4798
 58.8736  5773.2  76.377
 58.9156  5740.55  76.221
 58.9576  5776.82  76.6472
 58.9996  5769.65  75.9957
 59.0416  5837.42  76.7585
 59.0836  5771  76.2587
 59.1256  5679.2  76.0042
 59.1676  5667.63  76.555
 59.2096  5663.52  75.7967
 59.2516  5758.23  76.0193
 59.2936  5778.83  76.4757
 59.3356  5478.65  74.3466
 59.3776  5717  76.1108
 59.4196  5695.22  75.9041
 59.4616  5632.49  75.3494
 59.5036  5671.11  75.6402
 59.5456  5723.45  75.6917
 59.5876  5670.75  75.5274
 59.6296  5657.75  75.5076
 59.6716  5795.15  76.4757
 59.7136  5698.35  75.8229
 59.7556  5662.8  75.718
 59.7976  5746.73  76.0259
 59.8396  5692.96  75.5668
 59.8816  5690.64  76.0789
 59.9236  5797.61  76.4432
 59.9656  5616.52  75.491
 60.0076  5585.78  74.6669
 60.0496  5701.71  75.9266
 60.0916  5842.52  76.287
 60.1336  5736.68  76.6704
 60.1756  5731.87  77.7903
 60.1996  0.0000000E+00  0.0000000E+00