File: docs/examples/opeando_xrd/IS17_D/Data/IS17_D/17_Db_f00036.xye
# /beamlines/bl04/projects/cycle2025-II/20250340211-lsimonelli/DATA/IS17_D/17_Db_f00036.xye : mythproc.py merge -s 0.006 -l 0.5 -f /beamlines/bl04/inhouse/ff/FlatField/ff_20Nov2024rod8mm60s_17keV.raw -b True -c true -o xye /beamlines/bl04/projects/cycle2025-II/20250340211-lsimonelli/DATA/IS17_D/17_Db_00036.dat
# IsMon = [6774707, 6774267, 6775518]  IsPos = [-1.5000, -2.4885, -3.4988]
# Wave = 0.4962  CalPath /beamlines/bl04/projects/cycle2025-II/20250340211-lsimonelli/DATA/Align/Si_Pos1_25keV_f00001.cal
# Date = 2025-09-24_03:43:56 Dt = 4.8000  Bin = 0.0060  <imon> = 6774831 +/- 518 (Min/Max) 6774267 / 6775518
# icurr 251.6942  mocoIn 1.7180E-05  mocoOut 0.8057  i15 7.09414e+06  imon 6.77483e+06  i7 4.0000  iEMpd_timer 4.8000  iEMpd_1 3.4571E-08  iEMpd_2 7.7760E-08  iEMpd_3 1.6815E-08  iEMpd_4 4.8790E-08  iEMhp_timer 4.8000  iEMhp_1 4.9193E-06  iEMhp_2 -2.6118E-08  iEMhp_3 -2.4061E-08  iEMhp_4 -2.1387E-08
#      9776
 1.5856  44165.1  215.798
 1.6276  50996.1  227.908
 1.6696  57110.5  240.333
 1.7116  64827.3  256.557
 1.7536  73312.4  271.668
 1.7956  77553.6  280.114
 1.8376  73517.8  273.161
 1.8796  63515.5  252.041
 1.9216  52480  230.006
 1.9636  45261  213.264
 2.0056  41256.4  202.31
 2.0476  37849.5  195.902
 2.0896  36883.3  192.251
 2.1316  35893.3  188.741
 2.1736  34420  186.293
 2.2156  34611.3  185.311
 2.2576  33288.2  182.382
 2.2996  32009.5  179.505
 2.3416  32643.7  179.829
 2.3836  32082.3  178.385
 2.4256  30997.7  175.915
 2.4676  30437.9  174.072
 2.5096  30127.8  173.24
 2.5516  28784.7  173.216
 2.5936  28582.7  169.141
 2.6356  28091  168.392
 2.6776  28031.4  167.113
 2.7196  27790.9  166.881
 2.7616  27648.7  166.246
 2.8036  27188.8  165.024
 2.8456  27190.5  165.677
 2.8876  26715.7  164.053
 2.9296  26169.9  162.53
 2.9716  25951.6  161.338
 3.0136  25589.2  160.273
 3.0556  25681.5  160.951
 3.0976  25700.7  159.904
 3.1396  25464.8  159.897
 3.1816  24959.6  158.26
 3.2236  24995  158.359
 3.2656  24754.5  156.639
 3.3076  24492.3  157.277
 3.3496  25066.6  158.265
 3.3916  25109.1  157.982
 3.4336  25460.9  159.678
 3.4756  25920  161.043
 3.5176  26556.9  162.773
 3.5596  26032.1  164.169
 3.6016  26142.8  161.572
 3.6436  25368.8  160.268
 3.6856  25056.5  157.58
 3.7276  24048.4  155.457
 3.7696  24011.3  155.322
 3.8116  23703.6  154.416
 3.8536  23669.9  154.239
 3.8956  23682.9  154.099
 3.9376  23381.3  153.383
 3.9796  23404.6  152.952
 4.0216  23387.1  151.932
 4.0636  23438.9  153.571
 4.1056  23390.6  153.066
 4.1476  23895.9  155.012
 4.1896  23685.2  154.197
 4.2316  24020.1  155.103
 4.2736  24193.6  155.467
 4.3156  24392.9  156.336
 4.3576  25278.5  159.064
 4.3996  25492.3  159.999
 4.4416  25846.9  160.69
 4.4836  26381.8  162.511
 4.5256  27027.7  165.097
 4.5676  26723.2  164.416
 4.6096  27247.9  165.045
 4.6516  27687  165.691
 4.6936  27854.9  167.03
 4.7356  27949.4  167.137
 4.7776  27983.2  167.064
 4.8196  27732.9  166.962
 4.8616  27200.4  164.979
 4.9036  27157  164.449
 4.9456  26817.2  164.07
 4.9876  26181.2  162.013
 5.0296  26554.7  163.005
 5.0716  26283.9  162.783
 5.1136  26245.4  162.526
 5.1556  26472.5  162.688
 5.1976  27196.9  164.89
 5.2396  27113.3  164.329
 5.2816  27234.7  165.168
 5.3236  26943.5  163.973
 5.3656  26706  164.186
 5.4076  26510.7  163.719
 5.4496  26244.3  162.397
 5.4916  26548.8  163.092
 5.5336  26492.8  162.929
 5.5756  26450.8  162.818
 5.6176  26666.1  162.915
 5.6596  26855.2  164.313
 5.7016  26689.3  163.234
 5.7436  26857.6  164.027
 5.7856  26949.1  164.373
 5.8276  27032.9  164.344
 5.8696  27509.2  165.843
 5.9116  27240.6  165.744
 5.9536  27658.7  166.752
 5.9956  27682.3  166.215
 6.0376  27702.1  166.891
 6.0796  28050  167.77
 6.1216  27637.7  166.729
 6.1636  28100.3  167.169
 6.2056  27912.9  167.295
 6.2476  28445.7  168.564
 6.2896  28529.2  168.68
 6.3316  28744.7  169.487
 6.3736  28524.8  168.732
 6.4156  28563.4  168.782
 6.4576  28815.3  169.103
 6.4996  28971  170.029
 6.5416  29113.8  170.567
 6.5836  28824.3  169.967
 6.6256  29108.7  170.354
 6.6676  29547.7  171.204
 6.7096  29536.4  172.025
 6.7516  29732.4  172.262
 6.7936  29952.1  172.297
 6.8356  29884.2  172.203
 6.8776  29968.7  173.242
 6.9196  30538.4  175.277
 6.9616  30891.9  175.701
 7.0036  31101  175.984
 7.0456  31184.8  175.526
 7.0876  31313.1  177.475
 7.1296  31175.8  176.32
 7.1716  31109.1  175.668
 7.2136  30634.6  174.105
 7.2556  31043.1  175.418
 7.2976  31130.5  176.145
 7.3396  30834.3  175.541
 7.3816  30943.4  176.062
 7.4236  30867.9  175.154
 7.4656  31265.3  175.732
 7.5076  31557.9  176.717
 7.5496  31003.5  175.676
 7.5916  31431.6  176.938
 7.6336  31742.4  177.696
 7.6756  31855.7  177.857
 7.7176  32474.4  179.908
 7.7596  31906.5  179.525
 7.8016  32677.8  183.902
 7.8436  32353.6  179.688
 7.8856  32608.3  180.012
 7.9276  32965.6  181.386
 7.9696  33280.9  182.559
 8.0116  33833.8  182.644
 8.0536  34582.5  184.893
 8.0956  34176.4  184.972
 8.1376  34699.3  185.858
 8.1796  34768.8  186.565
 8.2216  35294.9  186.746
 8.2636  35621.3  187.852
 8.3056  35422.8  188.077
 8.3476  36085.7  189.173
 8.3896  35898.2  188.759
 8.4316  36092.7  189.434
 8.4736  36216.5  189.237
 8.5156  35728  188.227
 8.5576  35509.2  188.6
 8.5996  35404.3  187.222
 8.6416  35464.8  188.617
 8.6836  34812.7  186.707
 8.7256  35647.8  188.398
 8.7676  35449.1  190.728
 8.8096  35784.5  188.965
 8.8516  35974.2  189.092
 8.8936  35161.2  186.848
 8.9356  35591  188.315
 8.9776  35667.7  188.59
 9.0196  35565.9  188.003
 9.0616  35103.1  186.286
 9.1036  34737.8  186.458
 9.1456  34472.8  185.092
 9.1876  34714.9  185.678
 9.2296  34401.4  184.291
 9.2716  34147.8  183.65
 9.3136  34176  183.726
 9.3556  34312.2  184.064
 9.3976  33547.3  182.511
 9.4396  33395.9  182
 9.4816  33388.6  181.847
 9.5236  32856.7  180.285
 9.5656  32741.1  180.322
 9.6076  32167.8  179.245
 9.6496  32430.1  179.855
 9.6916  31989.3  178.589
 9.7336  32473  179.724
 9.7756  32067.3  179.805
 9.8176  31939.6  179.002
 9.8596  31710.6  176.828
 9.9016  31588.2  176.485
 9.9436  30976.2  174.525
 9.9856  30694.8  174.158
 10.0276  30320.8  174.139
 10.0696  30336.1  173.242
 10.1116  30072.3  172.748
 10.1536  29875.1  171.845
 10.1956  29298.3  170.283
 10.2376  29301.5  169.815
 10.2796  29135.9  169.439
 10.3216  28687.6  168.266
 10.3636  28562.1  168.069
 10.4056  27959.1  166.685
 10.4476  28224.9  167.091
 10.4896  28397.3  167.05
 10.5316  28298  167.14
 10.5736  27443.7  165.333
 10.6156  27696.4  165.851
 10.6576  27432.6  163.658
 10.6996  26941  162.873
 10.7416  26627.6  162.13
 10.7836  26376.6  162.006
 10.8256  25994.1  161.239
 10.8676  25994.7  160.809
 10.9096  25977.3  160.777
 10.9516  25391.6  157.939
 10.9936  25762.7  159.293
 11.0356  25498.3  159.055
 11.0776  25234  157.591
 11.1196  24606.1  156.358
 11.1616  24560.8  155.891
 11.2036  24738.8  156.311
 11.2456  24810.2  157.229
 11.2876  24909.2  157.269
 11.3296  24515.5  155.937
 11.3716  24634.5  156.051
 11.4136  24682.9  157.026
 11.4556  24805.5  157.074
 11.4976  25151.2  157.193
 11.5396  25368  158.038
 11.5816  26281.9  161.287
 11.6236  25930.6  160.666
 11.6656  25635.8  158.687
 11.7076  24618.6  156.326
 11.7496  24442.3  159.717
 11.7916  24223.1  154.322
 11.8336  23468.8  152.808
 11.8756  23571.6  152.67
 11.9176  23701.6  152.775
 11.9596  23818.9  153.321
 12.0016  23421.7  152.791
 12.0436  23410.9  152.215
 12.0856  23293.2  152.326
 12.1276  23167.4  151.865
 12.1696  23309.3  151.461
 12.2116  23167.7  150.997
 12.2536  23149.6  151.716
 12.2956  22703.8  149.63
 12.3376  23000.9  150.811
 12.3796  23067.6  151.505
 12.4216  22988  150.445
 12.4636  22645.1  150.24
 12.5056  22945.7  150.512
 12.5476  22984.3  150.158
 12.5896  22736.5  149.98
 12.6316  23096.5  151.311
 12.6736  22845.9  150.966
 12.7156  22937.5  151.115
 12.7576  22862.4  151.112
 12.7996  22724.7  149.327
 12.8416  22778.2  150.534
 12.8836  22934.1  150.888
 12.9256  23378.2  151.392
 12.9676  23256.6  151.388
 13.0096  23367  152.847
 13.0516  23445.8  152.15
 13.0936  23406.9  152.146
 13.1356  23741  152.483
 13.1776  23453.7  152.563
 13.2196  23630.3  152.781
 13.2616  23333.3  152.125
 13.3036  23821.2  153.842
 13.3456  23271  152.032
 13.3876  23709.8  152.938
 13.4296  23655.2  152.938
 13.4716  23752.3  152.877
 13.5136  23532.9  152.292
 13.5556  23349.9  152.321
 13.5976  23853.1  154.122
 13.6396  23591.1  152.64
 13.6816  23857.9  153.847
 13.7236  23919.2  153.742
 13.7656  25671.4  159.717
 13.8076  26325.4  160.368
 13.8496  24964.4  157.028
 13.8916  23975.7  154.858
 13.9336  23349  152.104
 13.9756  23182.1  150.947
 14.0176  22632.9  149.817
 14.0596  23017.3  151.005
 14.1016  22889.7  151.008
 14.1436  23023.7  150.594
 14.1856  22446.9  148.987
 14.2276  22387  149.26
 14.2696  22306.3  148.847
 14.3116  21852.7  147.233
 14.3536  21712.8  146.925
 14.3956  21638.9  146.399
 14.4376  21789.1  146.7
 14.4796  21652.9  146.238
 14.5216  21312  145.852
 14.5636  21204.1  145.063
 14.6056  21534.2  145.749
 14.6476  21490.1  144.852
 14.6896  20889.4  143.356
 14.7316  20657.6  143.574
 14.7736  20435.3  141.956
 14.8156  20453.8  142.046
 14.8576  20231.2  141.124
 14.8996  19982.3  141.434
 14.9416  19454.3  139.561
 14.9836  19480.1  139.642
 15.0256  18903.3  136.504
 15.0676  18969.3  137.045
 15.1096  18740  135.962
 15.1516  18596.9  135.977
 15.1936  18498.5  135.065
 15.2356  18233.5  134.365
 15.2776  18173.5  133.745
 15.3196  17956.2  133.91
 15.3616  17951.4  133.653
 15.4036  17662.9  132.442
 15.4456  18085.9  133.677
 15.4876  17629.1  131.67
 15.5296  17608.9  131.874
 15.5716  17535.9  131.212
 15.6136  17429.3  131.13
 15.6556  17156.6  129.366
 15.6976  17205.2  129.624
 15.7396  17018.2  129.502
 15.7816  17004.8  128.981
 15.8236  16674.7  128.39
 15.8656  16944.7  129.226
 15.9076  16538.8  127.492
 15.9496  17312.8  133.217
 15.9916  17121.5  132.865
 16.0336  17296.6  130.449
 16.0756  16972.7  129.523
 16.1176  16743.7  128.581
 16.1596  16194.6  127.748
 16.2016  16413.4  127.403
 16.2436  16462.3  127.961
 16.2856  16439.3  127.377
 16.3276  16151.6  126.704
 16.3696  16157.4  126.558
 16.4116  16254.3  127.373
 16.4536  16211.2  127.021
 16.4956  16251.4  126.916
 16.5376  15737  125.078
 16.5796  16002.7  125.502
 16.6216  16017.3  125.825
 16.6636  15680.1  124.678
 16.7056  15844  125.184
 16.7476  15901.2  124.958
 16.7896  15632.5  124.622
 16.8316  15802.6  125.279
 16.8736  16021.3  126.389
 16.9156  15924.9  126.34
 16.9576  15659.6  126.06
 16.9996  15580.7  126.192
 17.0416  15924.5  125.989
 17.0836  15871.3  125.545
 17.1256  15682  124.795
 17.1676  15742.9  125.011
 17.2096  15493.2  123.902
 17.2516  15443.5  123.797
 17.2936  15444.5  123.849
 17.3356  15250  123.048
 17.3776  15094.7  122.601
 17.4196  15188.6  122.697
 17.4616  14878.4  121.339
 17.5036  14546.4  120.335
 17.5456  14795.6  121.994
 17.5876  14629  120.354
 17.6296  14862.4  121.14
 17.6716  14666.2  120.924
 17.7136  14438.6  120.109
 17.7556  14480.8  120.574
 17.7976  14181.3  118.927
 17.8396  14255.3  118.88
 17.8816  14048.7  118.569
 17.9236  14227.9  119.115
 17.9656  14051.9  119.043
 18.0076  13998.1  118.255
 18.0496  13940  117.17
 18.0916  13983.5  117.889
 18.1336  13787.4  117.152
 18.1756  13973  117.505
 18.2176  13695.3  116.536
 18.2596  13805.3  116.733
 18.3016  13979.9  117.728
 18.3436  13955.4  117.864
 18.3856  13828  117.217
 18.4276  13882  117.144
 18.4696  13555.5  115.841
 18.5116  13822.2  117.238
 18.5536  13724.3  117.177
 18.5956  13504.9  115.809
 18.6376  13434.8  115.9
 18.6796  13608.2  115.981
 18.7216  13549.6  116.276
 18.7636  13590  116.376
 18.8056  13564.9  116.2
 18.8476  13248  115.442
 18.8896  13496.5  115.867
 18.9316  13526.4  115.825
 18.9736  13472.7  115.459
 19.0156  13217.8  114.767
 19.0576  13417.1  114.497
 19.0996  13541.2  115.732
 19.1416  13316.1  115.149
 19.1836  13349.4  114.905
 19.2256  13302.2  114.917
 19.2676  13295.5  114.968
 19.3096  13341.7  115.417
 19.3516  13500.1  115.879
 19.3936  13263.8  114.932
 19.4356  13477.6  115.745
 19.4776  13408.7  115.533
 19.5196  13296.9  114.905
 19.5616  13277.3  115.08
 19.6036  13256.7  114.499
 19.6456  13377.1  115.133
 19.6876  13184.8  113.941
 19.7296  13433.5  115.468
 19.7716  13183  114.413
 19.8136  13630.5  116.672
 19.8556  13564.4  115.889
 19.8976  13478.9  115.574
 19.9396  13625.8  115.802
 19.9816  13596.6  115.923
 20.0236  13967.5  117.668
 20.0656  13975.1  117.713
 20.1076  14382.3  119.896
 20.1496  14231.6  119.261
 20.1916  14280.3  118.94
 20.2336  13836.3  117.037
 20.2756  13580.8  116.391
 20.3176  13392.9  115.332
 20.3596  13249.9  114.7
 20.4016  13229.8  114.404
 20.4436  13095  114.391
 20.4856  13134.3  114.346
 20.5276  12992.1  114.181
 20.5696  12867.9  113.189
 20.6116  12774.6  112.955
 20.6536  12774  112.526
 20.6956  12736  112.433
 20.7376  12609.3  112.076
 20.7796  12689.6  112.136
 20.8216  12833.8  112.486
 20.8636  12783.8  112.639
 20.9056  12713.6  112.263
 20.9476  12726.9  112.17
 20.9896  12723.2  112.027
 21.0316  12563.4  111.219
 21.0736  12558.9  111.709
 21.1156  12406.3  111.181
 21.1576  12644.8  112.282
 21.1996  12501.8  111.637
 21.2416  12629.2  112.027
 21.2836  12449.6  111.21
 21.3256  12568.5  111.812
 21.3676  12495.2  111.026
 21.4096  12324.8  110.638
 21.4516  12342.3  110.536
 21.4936  12029.3  109.385
 21.5356  12394  110.974
 21.5776  12534.4  111.435
 21.6196  12289.6  110.391
 21.6616  12117.6  109.696
 21.7036  12294.7  110.258
 21.7456  12408.3  110.847
 21.7876  12206.2  109.708
 21.8296  12231.8  109.676
 21.8716  12296  110.185
 21.9136  12408.9  110.883
 21.9556  12210.4  109.682
 21.9976  12113.6  109.274
 22.0396  12102  109.468
 22.0816  12071.8  109.85
 22.1236  12302.5  110.362
 22.1656  11998  109.178
 22.2076  12005.8  108.635
 22.2496  11986.8  108.578
 22.2916  12024.8  108.637
 22.3336  11742  108.028
 22.3756  11862.5  108.33
 22.4176  11849.7  108.125
 22.4596  11678.9  107.915
 22.5016  11854.2  108.239
 22.5436  11972.4  108.653
 22.5856  12213.3  109.987
 22.6276  12388.6  110.903
 22.6696  12044.2  109.703
 22.7116  11983.2  108.946
 22.7536  12003.5  109.013
 22.7956  11936  108.056
 22.8376  11728.7  107.619
 22.8796  11743.1  107.492
 22.9216  11847.6  108.499
 22.9636  11943.5  108.112
 23.0056  11886.6  107.985
 23.0476  11825.1  108.26
 23.0896  12163.8  109.187
 23.1316  11984.5  108.804
 23.1736  12087.6  112.153
 23.2156  12220.7  110.19
 23.2576  12462.3  111.403
 23.2996  12269.5  110.322
 23.3416  12442  111.616
 23.3836  12171.4  109.639
 23.4256  12534.6  111.385
 23.4676  12163.5  109.414
 23.5096  12144.4  109.986
 23.5516  12187.1  109.477
 23.5936  12176.2  110.334
 23.6356  12329  110.693
 23.6776  12120.9  109.956
 23.7196  12151.4  109.891
 23.7616  12216.7  109.897
 23.8036  12337.4  110.49
 23.8456  12022.6  108.633
 23.8876  12054.9  109.128
 23.9296  12004.4  109.383
 23.9716  12044.2  108.773
 24.0136  12000.4  109.468
 24.0556  11917.9  108.805
 24.0976  11741.7  107.82
 24.1396  11745.1  110.428
 24.1816  11882.4  109.818
 24.2236  11832.9  108.899
 24.2656  11760  108.049
 24.3076  11736.5  108.204
 24.3496  11599.4  107.454
 24.3916  11782.1  108.349
 24.4336  11756.6  108.428
 24.4756  11553.5  107.373
 24.5176  11396  106.278
 24.5596  11497.5  107.063
 24.6016  11407.4  106.737
 24.6436  11426.8  106.346
 24.6856  11450.3  106.2
 24.7276  11262.5  105.648
 24.7696  11221.3  105.557
 24.8116  11127  105.284
 24.8536  11168.6  105.491
 24.8956  11219.3  105.467
 24.9376  11200.2  105.552
 24.9796  10925.8  104.36
 25.0216  10980.4  104.731
 25.0636  11003.9  104.497
 25.1056  10787.2  103.889
 25.1476  10757.6  105.608
 25.1896  10845.2  104.575
 25.2316  10878.3  104.021
 25.2736  10802.3  103.319
 25.3156  10823.5  103.479
 25.3576  10786.7  103.737
 25.3996  10887.5  104.206
 25.4416  10828.7  103.9
 25.4836  10565.3  103.129
 25.5256  10649.5  102.925
 25.5676  10729.5  103.037
 25.6096  10564.9  102.808
 25.6516  10583.2  102.415
 25.6936  10787.1  103.706
 25.7356  10621.6  103.042
 25.7776  10545.5  102.35
 25.8196  10441.8  102.006
 25.8616  10521.5  102.33
 25.9036  10645.3  102.392
 25.9456  10478.4  102.176
 25.9876  10559.4  102.483
 26.0296  10728.9  103.059
 26.0716  10535.1  102.453
 26.1136  10488.7  102.156
 26.1556  10492.8  101.583
 26.1976  10354.4  101.816
 26.2396  10413.7  101.516
 26.2816  10439.4  101.999
 26.3236  10449.2  102.195
 26.3656  10501.8  102.174
 26.4076  10432.2  102.038
 26.4496  10626  102.59
 26.4916  10877.3  103.691
 26.5336  11059.7  104.899
 26.5756  11073.4  104.846
 26.6176  10556.1  102.385
 26.6596  10588.3  102.841
 26.7016  10390.8  101.646
 26.7436  10518.6  102.396
 26.7856  10296.2  101.296
 26.8276  10252.5  101.05
 26.8696  10316.2  101.23
 26.9116  10220.8  100.698
 26.9536  10134.6  100.325
 26.9956  10088.9  100.132
 27.0376  10215.3  100.979
 27.0796  10229.7  100.849
 27.1216  10126.3  100.326
 27.1636  10062.8  100.183
 27.2056  9992.08  99.7173
 27.2476  9976.17  99.623
 27.2896  9940.55  99.5623
 27.3316  9923.06  99.1932
 27.3736  9903.66  99.3682
 27.4156  10104.8  100.207
 27.4576  9930.2  99.5574
 27.4996  10112  100.071
 27.5416  9850.24  99.0705
 27.5836  9829.95  98.8105
 27.6256  9974.13  99.7095
 27.6676  9873.39  99.1905
 27.7096  9885.21  99.1382
 27.7516  9838.24  99.0469
 27.7936  10194.8  100.968
 27.8356  10037.1  99.7984
 27.8776  10020  99.7799
 27.9196  9741.52  98.2491
 27.9616  9862.46  99.047
 28.0036  9744.07  98.4172
 28.0456  9604.04  97.8394
 28.0876  9755.58  98.6962
 28.1296  9687.56  98.1802
 28.1716  9727.6  98.4066
 28.2136  9738.76  98.4381
 28.2556  9708.8  98.3964
 28.2976  9573.4  97.7018
 28.3396  9469.03  96.9705
 28.3816  9706.97  98.1475
 28.4236  9487.96  97.1834
 28.4656  9470.9  97.1422
 28.5076  9579.58  97.3347
 28.5496  9513.48  97.2484
 28.5916  9628.22  97.6554
 28.6336  9506.71  97.3688
 28.6756  9608.83  97.1033
 28.7176  9508.32  97.1375
 28.7596  9516.55  97.075
 28.8016  9500.79  97.0281
 28.8436  9412.01  96.8141
 28.8856  9456.8  96.9008
 28.9276  9399.64  96.846
 28.9696  9423.42  96.6327
 29.0116  9346.11  96.4139
 29.0536  9336.54  96.571
 29.0956  9366.59  96.4296
 29.1376  9320.22  96.1638
 29.1796  9360.8  96.4204
 29.2216  9347.86  96.1932
 29.2636  9500.41  96.9757
 29.3056  9315.38  95.8763
 29.3476  9243.1  96.0336
 29.3896  9358.07  96.7422
 29.4316  9057.59  94.5281
 29.4736  9007.31  94.3264
 29.5156  9163.79  95.07
 29.5576  9248.55  96.2309
 29.5996  8909.48  93.7368
 29.6416  9094.17  94.8209
 29.6836  9133.61  94.9543
 29.7256  8966.64  94.629
 29.7676  9019.6  94.5771
 29.8096  8985.4  94.3447
 29.8516  8816.08  93.7706
 29.8936  8942.83  94.5323
 29.9356  9105.99  95.1523
 29.9776  8939.84  94.4273
 30.0196  8852.11  93.379
 30.0616  8982.54  94.4237
 30.1036  9019.07  94.4476
 30.1456  8889.05  93.9813
 30.1876  8824.22  93.6256
 30.2296  8897.45  93.9605
 30.2716  9058.1  94.4513
 30.3136  8983.95  94.899
 30.3556  9232.84  96.2006
 30.3976  9134.31  97.1444
 30.4396  9423.8  96.0586
 30.4816  9143  94.2289
 30.5236  9312.12  95.0902
 30.5656  9279.57  95.5748
 30.6076  9000.12  93.8883
 30.6496  9103.91  94.4944
 30.6916  8864.16  93.3422
 30.7336  9120.93  94.8088
 30.7756  9074.93  94.6318
 30.8176  9205.11  95.2609
 30.8596  9140.35  94.6929
 30.9016  9396.1  95.8879
 30.9436  9223.95  95.2145
 30.9856  9281.83  95.6438
 31.0276  9146.28  94.5705
 31.0696  8968.11  94.1917
 31.1116  8810.01  93.3311
 31.1536  8979.02  94.0923
 31.1956  9049.07  94.5434
 31.2376  8751.4  93.0036
 31.2796  9104.81  94.411
 31.3216  8937.1  93.4447
 31.3636  9019.99  94.5914
 31.4056  8902.1  95.239
 31.4476  9076.25  94.1104
 31.4896  9035.5  94.3933
 31.5316  9112.2  94.2357
 31.5736  9063.19  93.7853
 31.6156  9069.95  93.8235
 31.6576  9204.71  94.5936
 31.6996  9268.14  94.5632
 31.7416  8977.43  94.0267
 31.7836  9087.15  93.7445
 31.8256  8977.63  93.5243
 31.8676  8951.69  93.2953
 31.9096  8926.11  93.3805
 31.9516  8627.95  92.1241
 31.9936  8791.86  92.8173
 32.0356  8958.91  93.7259
 32.0776  8903.5  93.3557
 32.1196  9045.44  94.109
 32.1616  8909.29  92.9396
 32.2036  8913.89  93.4696
 32.2456  8870.71  93.6238
 32.2876  8731.63  92.2261
 32.3296  8746.08  92.4326
 32.3716  8644.14  92.0044
 32.4136  8705.05  92.5226
 32.4556  8712.49  92.0131
 32.4976  8713.57  91.9182
 32.5396  8774.9  92.2629
 32.5816  8672.95  91.8465
 32.6236  8650.67  91.7964
 32.6656  8760.36  92.9139
 32.7076  8716.12  92.3318
 32.7496  8651.02  91.674
 32.7916  8632.43  91.5322
 32.8336  8652.23  91.7256
 32.8756  8690.7  91.6611
 32.9176  8467.69  90.9446
 32.9596  8603.05  91.7382
 33.0016  8572.59  91.3575
 33.0436  8612.31  91.7262
 33.0856  8543.14  91.4634
 33.1276  8431.26  90.6038
 33.1696  8713.85  91.9303
 33.2116  8561.94  91.3631
 33.2536  8714.81  92.1589
 33.2956  8609  91.6905
 33.3376  8392.07  90.3499
 33.3796  8463.14  90.8662
 33.4216  8535.03  90.8446
 33.4636  8654.54  91.6376
 33.5056  8464.72  90.8679
 33.5476  8604.47  91.5857
 33.5896  8620.33  91.4487
 33.6316  8655.62  91.9624
 33.6736  8431.27  91.0032
 33.7156  8417.27  90.9619
 33.7576  8418.69  90.6155
 33.7996  8475.49  90.6924
 33.8416  8420.4  90.5798
 33.8836  8353.13  89.9993
 33.9256  8595.88  91.3492
 33.9676  8624.05  91.4028
 34.0096  8364.49  90.3139
 34.0516  8400.15  90.1535
 34.0936  8338.09  90.0882
 34.1356  8362.23  89.9589
 34.1776  8302.46  89.636
 34.2196  8294.51  89.7773
 34.2616  8219.72  89.5088
 34.3036  8342.86  90.4192
 34.3456  8349.51  90.21
 34.3876  8312.94  90.073
 34.4296  8271.83  89.457
 34.4716  8434.58  90.4825
 34.5136  8298.9  89.9375
 34.5556  8214.84  89.7365
 34.5976  8385.03  90.4991
 34.6396  8168.43  89.0184
 34.6816  8289.87  89.7781
 34.7236  8413.49  90.2235
 34.7656  8256.86  89.5856
 34.8076  8313.04  90.2195
 34.8496  8249.83  89.7239
 34.8916  8429.01  90.5505
 34.9336  8302.29  89.8594
 34.9756  8375.97  90.1962
 35.0176  8181.64  89.6432
 35.0596  8414.75  90.731
 35.1016  8323.38  90.0011
 35.1436  8642.5  91.3932
 35.1856  8222.64  89.2625
 35.2276  8182.55  89.2286
 35.2696  8225.13  89.6477
 35.3116  8153.28  89.3466
 35.3536  8354.93  90.1728
 35.3956  8324.36  89.7046
 35.4376  8265.63  89.9398
 35.4796  8232.9  89.8023
 35.5216  8197.82  89.5737
 35.5636  8064.33  89.5738
 35.6056  8084.75  88.7284
 35.6476  8190.09  89.1959
 35.6896  8226.5  89.5671
 35.7316  8185.37  89.246
 35.7736  8091.09  88.9157
 35.8156  8144.67  89.2104
 35.8576  8158.46  89.5118
 35.8996  8196.02  89.6986
 35.9416  8133.38  88.8625
 35.9836  8025.26  88.7243
 36.0256  8170.16  89.4361
 36.0676  8375.06  90.0629
 36.1096  8169.17  89.326
 36.1516  8315.23  90.0139
 36.1936  8165.65  89.0311
 36.2356  8160.37  89.6533
 36.2776  8148.41  89.0537
 36.3196  8037.6  88.1378
 36.3616  8020.76  88.1799
 36.4036  8114.06  88.7538
 36.4456  8123.24  89.0163
 36.4876  7916.07  87.8129
 36.5296  8033.68  88.4984
 36.5716  8034.12  89.2667
 36.6136  7967.66  87.7086
 36.6556  7939.42  87.7458
 36.6976  7809.06  87.5063
 36.7396  7800.78  87.197
 36.7816  7738.68  87.2133
 36.8236  7903.17  88.0638
 36.8656  7777.92  87.4132
 36.9076  7749.91  87.2744
 36.9496  7660.33  86.6363
 36.9916  7755.06  86.8004
 37.0336  7764.64  87.1699
 37.0756  7775.27  87.0278
 37.1176  7614.87  86.3849
 37.1596  7657.73  86.6342
 37.2016  7601.43  86.4864
 37.2436  7729.29  86.5886
 37.2856  7813.75  87.3148
 37.3276  7799.03  86.6008
 37.3696  7734.8  87.1039
 37.4116  7779.13  87.2612
 37.4536  7580.54  86.0126
 37.4956  7584.59  86.0761
 37.5376  7825.5  88.9853
 37.5796  7874.4  89.1957
 37.6216  7754.51  86.819
 37.6636  7836.95  87.1671
 37.7056  7801.18  87.1567
 37.7476  7817.7  86.7886
 37.7896  7770.82  87.0346
 37.8316  7812.44  87.4099
 37.8736  7788.39  86.8215
 37.9156  7673.39  86.1776
 37.9576  7856.19  87.11
 37.9996  7680.41  85.8499
 38.0416  7728.79  86.9063
 38.0836  7909.91  87.8264
 38.1256  7849.56  87.4635
 38.1676  7477.15  85.4806
 38.2096  7821.62  87.0374
 38.2516  7690.38  86.5221
 38.2936  7892.3  87.4504
 38.3356  7726.6  86.4652
 38.3776  7681.68  86.4487
 38.4196  7725.86  86.5634
 38.4616  7805.66  87.2448
 38.5036  7755.94  86.8209
 38.5456  7690.82  87.2623
 38.5876  7722.24  87.472
 38.6296  7680.27  86.2257
 38.6716  7700.99  86.145
 38.7136  7608.75  85.5742
 38.7556  7692.8  86.5428
 38.7976  7763.32  86.862
 38.8396  7729.78  87.1304
 38.8816  7606.85  86.2393
 38.9236  7608.15  86.049
 38.9656  7819.67  87.1422
 39.0076  7724.29  86.0177
 39.0496  7730.42  86.599
 39.0916  7766.32  86.4578
 39.1336  7673.61  86.3386
 39.1756  7639.28  86.208
 39.2176  7671.24  86.9119
 39.2596  7703.08  87.0206
 39.3016  7615.4  86.1176
 39.3436  7578.41  86.3074
 39.3856  7764.18  86.8148
 39.4276  7795.27  87.4867
 39.4696  7780.69  87.0217
 39.5116  7826.98  87.8002
 39.5536  7665.08  87.2989
 39.5956  7786.96  87.1068
 39.6376  7746.95  86.8819
 39.6796  7682.47  86.2659
 39.7216  7689.9  86.404
 39.7636  7699.32  87.0168
 39.8056  7724.28  86.9461
 39.8476  7489.02  85.8573
 39.8896  7719.7  86.7935
 39.9316  7580.86  86.2632
 39.9736  7696.21  86.4979
 40.0156  7655.24  86.0976
 40.0576  7668.12  86.5163
 40.0996  7711.64  85.9612
 40.1416  7679.83  86.5653
 40.1836  7737.42  86.7803
 40.2256  7690.83  86.5553
 40.2676  7594.42  86.1828
 40.3096  7739.63  86.8677
 40.3516  7693.49  86.7144
 40.3936  7810.06  86.9245
 40.4356  7614.03  86.029
 40.4776  7802.43  87.3189
 40.5196  7669.97  86.8679
 40.5616  7825.24  87.3846
 40.6036  7724.04  87.0738
 40.6456  7593.98  85.9379
 40.6876  7775.84  86.9699
 40.7296  7582.45  86.0099
 40.7716  7677.01  86.6565
 40.8136  7673.37  86.5898
 40.8556  7754.76  87.1697
 40.8976  7659.49  86.5646
 40.9396  7688.1  87.0666
 40.9816  7798.58  86.9903
 41.0236  7648.44  85.9382
 41.0656  7739.41  86.9723
 41.1076  7733.6  86.7181
 41.1496  7741.08  86.6668
 41.1916  7578.32  86.0562
 41.2336  7728.68  86.9088
 41.2756  7573.67  85.6447
 41.3176  7839.21  87.7371
 41.3596  7698.47  86.6884
 41.4016  7571.39  86.2216
 41.4436  7717.84  86.8426
 41.4856  7668  86.7286
 41.5276  7581.44  86.2487
 41.5696  7775.84  86.9726
 41.6116  7719.88  87.0493
 41.6536  7779.32  87.2493
 41.6956  7806.94  87.3866
 41.7376  7598.02  86.3157
 41.7796  7534.93  85.8849
 41.8216  7749.62  87.2856
 41.8636  7629.2  86.5359
 41.9056  7651.01  86.4677
 41.9476  7679.54  86.8575
 41.9896  7872.36  87.6099
 42.0316  7686.91  86.6561
 42.0736  7744.19  87.111
 42.1156  7629.53  86.2663
 42.1576  7642.38  86.443
 42.1996  7666.49  86.6982
 42.2416  7609.06  85.9764
 42.2836  7658.35  86.3739
 42.3256  7608.07  86.1987
 42.3676  7799.27  87.0656
 42.4096  7622.3  86.0592
 42.4516  7616.03  86.0857
 42.4936  7554.11  85.8198
 42.5356  7568.39  86.0347
 42.5776  7616.74  86.2414
 42.6196  7585.26  86.1184
 42.6616  7389.27  85.1723
 42.7036  7642.27  86.0064
 42.7456  7650.58  86.4038
 42.7876  7597.28  86.178
 42.8296  7618.63  86.1422
 42.8716  7406.53  85.0993
 42.9136  7522.22  85.5243
 42.9556  7557.66  85.8952
 42.9976  7597.83  86.0867
 43.0396  7629.88  86.0033
 43.0816  7567.34  86.0296
 43.1236  7552.78  85.9963
 43.1656  7587.69  86.0239
 43.2076  7500.08  85.621
 43.2496  7524.04  85.5905
 43.2916  7504.92  85.8371
 43.3336  7555.5  85.9573
 43.3756  7566.98  85.7856
 43.4176  7456.84  85.2337
 43.4596  7504.99  85.3729
 43.5016  7442.3  85.4074
 43.5436  7418.52  85.185
 43.5856  7433.99  85.2998
 43.6276  7394.42  84.9651
 43.6696  7407.28  85.173
 43.7116  7521.08  85.4409
 43.7536  7540.74  86.046
 43.7956  7342.69  86.091
 43.8376  7362.34  84.7653
 43.8796  7276.06  84.3437
 43.9216  7393.57  84.9399
 43.9636  7349.45  84.7875
 44.0056  7305.05  84.7651
 44.0476  7393.48  84.9115
 44.0896  7401  85.2917
 44.1316  7296.79  84.3612
 44.1736  7237.54  84.002
 44.2156  7352.29  84.5258
 44.2576  7324.2  84.681
 44.2996  7322.91  84.6451
 44.3416  7304.57  84.2989
 44.3836  7269.35  84.4215
 44.4256  7274.35  84.0984
 44.4676  7112.6  83.3119
 44.5096  7361.67  84.902
 44.5516  7240.79  84.1518
 44.5936  7108.75  83.3509
 44.6356  7361.84  84.5619
 44.6776  7229.56  84.1074
 44.7196  7224.19  84.3774
 44.7616  7426.99  86.8677
 44.8036  7400.84  85.3578
 44.8456  7404.71  85.3817
 44.8876  7342.04  84.8634
 44.9296  7590.42  85.7372
 44.9716  7409.5  85.1322
 45.0136  7341.95  84.6841
 45.0556  7317.08  84.6264
 45.0976  7395.41  85.1225
 45.1396  7315.62  84.4296
 45.1816  7234.63  83.8961
 45.2236  7449.99  85.0427
 45.2656  7292.76  84.6088
 45.3076  7400.81  85.0312
 45.3496  7295.02  84.7363
 45.3916  7253.28  84.7571
 45.4336  7394.63  85.4183
 45.4756  7294.23  84.6997
 45.5176  7490.16  85.4446
 45.5596  7448.79  85.323
 45.6016  7412.35  85.5383
 45.6436  7376.73  84.5157
 45.6856  7330.48  84.8864
 45.7276  7110.35  84.9054
 45.7696  7303.73  85.7317
 45.8116  7283.36  85.0434
 45.8536  7241.76  84.6938
 45.8956  7314.37  84.4841
 45.9376  7242.55  83.5442
 45.9796  7369.38  84.9621
 46.0216  7433.1  85.6588
 46.0636  7484.18  85.0684
 46.1056  7293.34  83.9919
 46.1476  7310.64  84.6772
 46.1896  7243.4  84.4297
 46.2316  7439.41  85.4376
 46.2736  7242.93  84.5088
 46.3156  7332.6  84.7768
 46.3576  7275.82  84.6558
 46.3996  7235.99  84.5688
 46.4416  7233.51  84.1201
 46.4836  7205.39  84.3243
 46.5256  7308.64  84.87
 46.5676  7222.71  84.4853
 46.6096  7266.19  84.6654
 46.6516  7265.9  83.7247
 46.6936  7336.98  84.6269
 46.7356  7387.77  85.0148
 46.7776  7238.97  84.9942
 46.8196  7306.86  85.138
 46.8616  7071.03  83.5562
 46.9036  7106.79  83.426
 46.9456  7198.68  83.6109
 46.9876  7183.38  83.601
 47.0296  7226.21  84.5391
 47.0716  7149.77  83.9153
 47.1136  7104.74  83.3326
 47.1556  7113.13  83.2537
 47.1976  7196.71  83.8946
 47.2396  7039.35  83.2899
 47.2816  7095.56  83.3262
 47.3236  7055.32  83.448
 47.3656  7267.77  84.6314
 47.4076  7288.08  84.4708
 47.4496  7163.94  83.9203
 47.4916  7159.85  84.0861
 47.5336  7187.04  84.0512
 47.5756  7287.5  84.7684
 47.6176  7144.28  83.8209
 47.6596  7194.19  83.8326
 47.7016  7311.6  84.3272
 47.7436  7286.19  84.5206
 47.7856  7246.15  84.3132
 47.8276  7180.03  83.9858
 47.8696  7196.43  84.1673
 47.9116  7257.77  84.2286
 47.9536  7121.02  83.3767
 47.9956  7113.4  84.0382
 48.0376  7053.25  83.45
 48.0796  7141.48  84.1037
 48.1216  7111.35  83.7501
 48.1636  7160.81  83.6121
 48.2056  7180.88  83.9953
 48.2476  7261.82  84.7701
 48.2896  7179.12  84.1954
 48.3316  7276.6  84.7165
 48.3736  7182.21  84.185
 48.4156  7188.19  84.0702
 48.4576  7148.37  84.1315
 48.4996  7181.28  83.7734
 48.5416  7135.26  83.8315
 48.5836  7224.4  84.0294
 48.6256  7230.88  84.2769
 48.6676  7162.41  84.3992
 48.7096  7216.16  83.9734
 48.7516  7265.55  84.4028
 48.7936  6968.97  82.7352
 48.8356  7052.01  83.2733
 48.8776  7139.28  84.2772
 48.9196  7333.94  84.8635
 48.9616  7107.79  83.9263
 49.0036  7240.93  85.0637
 49.0456  7015.64  83.6983
 49.0876  7172.47  84.2719
 49.1296  6973.38  83.1583
 49.1716  7036.02  83.4069
 49.2136  7163.23  84.0622
 49.2556  7115.18  83.8265
 49.2976  7144.81  84.0627
 49.3396  7097.38  83.8451
 49.3816  7179.11  83.7491
 49.4236  7150.03  84.012
 49.4656  7008.89  83.1945
 49.5076  7172.27  83.9091
 49.5496  7060.85  83.3216
 49.5916  7213.97  84.1179
 49.6336  7050.55  83.3811
 49.6756  7158.52  84.2534
 49.7176  6962.7  83.0257
 49.7596  7018.59  83.1225
 49.8016  7189.26  84.0417
 49.8436  7082.9  83.7234
 49.8856  7142.94  84.0804
 49.9276  7042.49  83.5883
 49.9696  7118.98  84.0269
 50.0116  7134.78  84.2553
 50.0536  7046.89  83.6764
 50.0956  6971.96  83.3089
 50.1376  7086.43  83.6825
 50.1796  6963.13  83.2184
 50.2216  7022.23  83.5515
 50.2636  7021.86  83.173
 50.3056  6962.86  83.0058
 50.3476  7067.04  83.6506
 50.3896  7025.5  83.375
 50.4316  7021  83.1784
 50.4736  6994.96  83.2442
 50.5156  6943.52  82.9278
 50.5576  7076.94  83.4817
 50.5996  7018.84  83.4215
 50.6416  6976.19  83.0861
 50.6836  7062  83.6584
 50.7256  7077.45  83.674
 50.7676  7192.5  84.638
 50.8096  6993.48  83.0306
 50.8516  6977.18  83.3491
 50.8936  6879.56  82.5454
 50.9356  7055.06  83.7008
 50.9776  6952.8  83.2542
 51.0196  6878.77  82.9354
 51.0616  6800.2  81.787
 51.1036  7020.46  83.466
 51.1456  6934.71  82.8621
 51.1876  7004.91  82.6118
 51.2296  6866.64  82.4317
 51.2716  6834.57  81.9471
 51.3136  6733.1  81.7947
 51.3556  6806.19  81.8572
 51.3976  6773.18  81.8078
 51.4396  6734.79  81.8862
 51.4816  6775.61  81.9901
 51.5236  6844.13  82.4847
 51.5656  6716.84  81.3179
 51.6076  6887.95  82.4317
 51.6496  6756.38  81.8308
 51.6916  6709.74  81.9052
 51.7336  6809.25  82.6013
 51.7756  6803.98  82.2529
 51.8176  6684.93  81.6508
 51.8596  6748.45  82.0525
 51.9016  6842.5  82.226
 51.9436  6836.45  83.6817
 51.9856  6844.54  84.1357
 52.0276  6990.13  83.4936
 52.0696  6962.47  83.4006
 52.1116  6805.48  82.5814
 52.1536  6789.57  82.3248
 52.1956  6895.61  82.4672
 52.2376  6992.85  83.229
 52.2796  6984.26  82.9922
 52.3216  6654.72  81.6767
 52.3636  6705.2  81.5585
 52.4056  6797.31  81.9839
 52.4476  6772.7  82.194
 52.4896  6715.63  81.9018
 52.5316  6872.35  82.8993
 52.5736  6735.78  81.8015
 52.6156  6924.93  83.3369
 52.6576  6789.14  81.9583
 52.6996  6617.18  81.8873
 52.7416  6685.67  82.169
 52.7836  6824.98  82.9095
 52.8256  6857.51  82.3103
 52.8676  6562.69  81.0929
 52.9096  6737.47  82.2449
 52.9516  6722.03  82.5336
 52.9936  6758.64  83.1327
 53.0356  6864.98  82.7746
 53.0776  6887.38  83.2095
 53.1196  6743.56  82.4224
 53.1616  6684.58  82.1253
 53.2036  6744.55  82.4511
 53.2456  6727.47  82.4524
 53.2876  6730.35  82.159
 53.3296  6825.01  83.0706
 53.3716  6942.01  83.5175
 53.4136  6785.54  82.7285
 53.4556  6661.92  81.9958
 53.4976  6627.15  81.6101
 53.5396  6715.99  82.5644
 53.5816  6737.33  82.3322
 53.6236  6742.42  82.7159
 53.6656  6703.12  82.0844
 53.7076  6806.06  82.6683
 53.7496  6727.54  82.3149
 53.7916  6669.7  82.0978
 53.8336  6820.04  82.9112
 53.8756  6621.1  82.2335
 53.9176  6656.65  81.8001
 53.9596  6506.69  81.6388
 54.0016  6487.1  80.8348
 54.0436  6413.5  80.6066
 54.0856  6561.85  80.9594
 54.1276  6503.5  80.787
 54.1696  6495.1  80.9015
 54.2116  6651.41  81.6106
 54.2536  6527.91  80.6678
 54.2956  6483.54  80.4419
 54.3376  6381.1  80.3049
 54.3796  6450.97  80.6308
 54.4216  6474.05  80.8227
 54.4636  6456.51  80.6789
 54.5056  6469.23  80.5577
 54.5476  6335.25  80.0629
 54.5896  6299.94  79.6802
 54.6316  6514.83  80.8592
 54.6736  6432.33  80.3993
 54.7156  6408.04  80.3152
 54.7576  6350.3  79.9358
 54.7996  6524.42  81.1922
 54.8416  6368.32  80.2606
 54.8836  6418.79  80.6422
 54.9256  6402.77  80.3325
 54.9676  6281.69  79.4184
 55.0096  6393.53  80.159
 55.0516  6285.55  79.6529
 55.0936  6338.9  79.7208
 55.1356  6318.23  79.6372
 55.1776  6504.09  81.0363
 55.2196  6340.18  79.8008
 55.2616  6568.82  81.4361
 55.3036  6328.33  80.1085
 55.3456  6227.49  79.6054
 55.3876  6343.9  80.0689
 55.4296  6182.56  79.0641
 55.4716  6260.69  79.5675
 55.5136  6295.33  79.5593
 55.5556  6536.04  81.1193
 55.5976  6301.43  79.7344
 55.6396  6317.7  79.6965
 55.6816  6264.74  79.3006
 55.7236  6183.39  78.8431
 55.7656  6255.18  79.0289
 55.8076  6247.38  78.9926
 55.8496  6351.91  80.0532
 55.8916  6168.06  78.9603
 55.9336  6398.05  80.281
 55.9756  6197.48  78.9114
 56.0176  6218.35  79.1754
 56.0596  6166.57  78.8493
 56.1016  6150.75  78.8025
 56.1436  6178.57  79.1934
 56.1856  6061.16  78.1936
 56.2276  6292.92  79.7058
 56.2696  6221.39  79.2174
 56.3116  6241.3  79.7185
 56.3536  6090.01  78.4491
 56.3956  6253.56  79.4716
 56.4376  6146.03  78.8269
 56.4796  6060.39  78.1069
 56.5216  6082.75  78.6142
 56.5636  6042.88  77.9163
 56.6056  6239.67  79.4126
 56.6476  6121.3  78.2817
 56.6896  6289.41  79.8041
 56.7316  6191.85  79.105
 56.7736  6104.62  78.5537
 56.8156  6195.11  79.1502
 56.8576  6026.91  78.0117
 56.8996  6142.03  78.6474
 56.9416  6120.95  78.8042
 56.9836  6151.36  78.5543
 57.0256  6076  78.3665
 57.0676  6239.45  79.5284
 57.1096  6149.49  78.7511
 57.1516  5959.81  77.57
 57.1936  6175.56  78.7334
 57.2356  6028.29  78.1159
 57.2776  6001.22  77.8931
 57.3196  6104.57  78.9136
 57.3616  6104.44  78.4095
 57.4036  6142.48  78.7214
 57.4456  6121.44  78.5693
 57.4876  6105.47  78.3363
 57.5296  5995.81  77.8378
 57.5716  5989.07  77.9035
 57.6136  5903.96  77.1918
 57.6556  6071.73  78.395
 57.6976  6048.42  78.0811
 57.7396  5989.4  78.0431
 57.7816  5941.97  78.0976
 57.8236  5946.66  77.9269
 57.8656  6006.8  77.9884
 57.9076  6043.29  78.241
 57.9496  5998.18  78.3038
 57.9916  6087.32  78.3951
 58.0336  5983.49  77.9901
 58.0756  5959.36  77.4428
 58.1176  6015.91  77.8461
 58.1596  5932.59  77.8916
 58.2016  5800.32  76.2547
 58.2436  5803.28  76.6731
 58.2856  5807.98  76.6281
 58.3276  5757.02  76.6552
 58.3696  5727.72  76.2143
 58.4116  5792.63  76.5171
 58.4536  5728.09  75.9793
 58.4956  5595.61  75.2685
 58.5376  5776.91  76.058
 58.5796  5673.47  75.7843
 58.6216  5732.45  76.0025
 58.6636  5832.3  76.8656
 58.7056  5863.5  76.9272
 58.7476  5822.82  77.0996
 58.7896  5687.62  75.853
 58.8316  5687.58  75.8513
 58.8736  5682.92  75.8312
 58.9156  5743.58  76.2769
 58.9576  5715.18  76.3994
 58.9996  5840.59  76.4973
 59.0416  5775.49  76.4228
 59.0836  5762.41  76.2514
 59.1256  5703.04  76.5424
 59.1676  5693.78  76.7848
 59.2096  5890.91  77.4131
 59.2516  5798.42  76.3925
 59.2936  5727.27  76.2419
 59.3356  5741.25  76.2156
 59.3776  5625.01  75.6032
 59.4196  5755.22  76.4109
 59.4616  5702.89  75.9265
 59.5036  5569.31  75.0652
 59.5456  5905.03  76.9922
 59.5876  5764.16  76.255
 59.6296  5486.83  74.4639
 59.6716  5749.38  76.2812
 59.7136  5596.95  75.2519
 59.7556  5677.9  75.9265
 59.7976  5753.15  76.1763
 59.8396  5656.45  75.4311
 59.8816  5693.83  76.2084
 59.9236  5704.28  75.9331
 59.9656  5644.82  75.787
 60.0076  5765.46  75.966
 60.0496  5727.64  76.205
 60.0916  5812.08  76.1959
 60.1336  5535.04  75.4178
 60.1756  5504.51  76.3401
 60.1996  0.0000000E+00  0.0000000E+00