File: docs/examples/opeando_xrd/IS17_D/Data/IS17_D/17_Da_f00089.xye
# /beamlines/bl04/projects/cycle2025-II/20250340211-lsimonelli/DATA/IS17_D/17_Da_f00089.xye : mythproc.py merge -s 0.006 -l 0.5 -f /beamlines/bl04/inhouse/ff/FlatField/ff_20Nov2024rod8mm60s_17keV.raw -b True -c true -o xye /beamlines/bl04/projects/cycle2025-II/20250340211-lsimonelli/DATA/IS17_D/17_Da_00089.dat
# IsMon = [6785586, 6789006, 6786749]  IsPos = [-1.5000, -2.4884, -3.4988]
# Wave = 0.4962  CalPath /beamlines/bl04/projects/cycle2025-II/20250340211-lsimonelli/DATA/Align/Si_Pos1_25keV_f00001.cal
# Date = 2025-09-24_18:20:26 Dt = 4.8000  Bin = 0.0060  <imon> = 6787114 +/- 1420 (Min/Max) 6785586 / 6789006
# icurr 252.5475  mocoIn 1.7218E-05  mocoOut 0.8080  i15 7.10443e+06  imon 6.78711e+06  i7 5.6667  iEMpd_timer 4.8000  iEMpd_1 3.5237E-08  iEMpd_2 7.8641E-08  iEMpd_3 1.6538E-08  iEMpd_4 4.6531E-08  iEMhp_timer 4.8000  iEMhp_1 4.9312E-06  iEMhp_2 -2.5595E-08  iEMhp_3 -2.3833E-08  iEMhp_4 -2.2614E-08
#      9776
 1.5856  40374.1  206.35
 1.6276  47834.7  220.753
 1.6696  54826.8  235.504
 1.7116  63120.7  253.183
 1.7536  72142.2  269.519
 1.7956  77152  279.417
 1.8376  73094.4  272.401
 1.8796  61252.2  247.523
 1.9216  49573.7  223.57
 1.9636  42069.2  205.628
 2.0056  37443.8  192.756
 2.0476  34498.4  187.047
 2.0896  33230.7  182.502
 2.1316  32537.6  179.721
 2.1736  30657.5  175.835
 2.2156  31336  176.343
 2.2576  30035.4  173.264
 2.2996  28642.7  169.82
 2.3416  29490.1  170.94
 2.3836  28493.8  168.13
 2.4256  27648.8  166.158
 2.4676  27538.4  165.591
 2.5096  27607.8  165.853
 2.5516  26621.6  166.623
 2.5936  26438  162.687
 2.6356  26181.2  162.579
 2.6776  26453.4  162.322
 2.7196  25833.5  160.912
 2.7616  25679.6  160.214
 2.8036  25211.8  158.914
 2.8456  25156  159.353
 2.8876  24670.9  157.678
 2.9296  24315.1  156.667
 2.9716  24274.3  156.033
 3.0136  23863.4  154.771
 3.0556  24023.9  155.688
 3.0976  23709.4  153.613
 3.1396  23737.5  154.413
 3.1816  23461.7  153.449
 3.2236  23253.7  152.764
 3.2656  23279.8  151.888
 3.3076  23004.4  152.431
 3.3496  23369.1  152.577
 3.3916  23832.4  153.914
 3.4336  24302.8  156.002
 3.4756  24700.5  157.205
 3.5176  25332.6  158.992
 3.5596  25127.9  161.322
 3.6016  25464.2  159.465
 3.6436  24794.1  158.442
 3.6856  24370.4  155.392
 3.7276  23313.8  153.064
 3.7696  23196.6  152.677
 3.8116  22762.3  151.325
 3.8536  22970.6  151.954
 3.8956  23158.4  152.396
 3.9376  22757.7  151.327
 3.9796  22822.4  151.049
 4.0216  22862.8  150.216
 4.0636  22632.2  150.928
 4.1056  22854.8  151.302
 4.1476  22845  151.588
 4.1896  23048.8  152.123
 4.2316  23312.3  152.823
 4.2736  23678.3  153.801
 4.3156  23974  154.99
 4.3576  24799.8  157.563
 4.3996  25061.1  158.642
 4.4416  25615.3  159.975
 4.4836  25863.6  160.896
 4.5256  26337.4  162.981
 4.5676  26333.2  163.219
 4.6096  26862  163.87
 4.6516  27401.4  164.85
 4.6936  27629.7  166.355
 4.7356  27671.7  166.305
 4.7776  27935.2  166.925
 4.8196  27265.9  165.565
 4.8616  27010.6  164.263
 4.9036  26619.7  162.828
 4.9456  26506.4  163.123
 4.9876  26018  161.513
 5.0296  26324.2  162.277
 5.0716  26372.3  163.21
 5.1136  26411.2  163.037
 5.1556  26812.2  163.727
 5.1976  27051.3  164.455
 5.2396  27426.9  165.285
 5.2816  27326  165.448
 5.3236  27455  165.539
 5.3656  26923.5  164.853
 5.4076  26662.7  164.204
 5.4496  26868.9  164.317
 5.4916  26936.2  164.279
 5.5336  27107.6  164.809
 5.5756  26699.9  163.598
 5.6176  26909.6  163.669
 5.6596  27382.4  165.932
 5.7016  27487.1  165.661
 5.7436  27534  166.078
 5.7856  27298  165.427
 5.8276  27974.4  167.178
 5.8696  27921.7  167.085
 5.9116  27936.5  167.849
 5.9536  28064.5  167.984
 5.9956  28459.9  168.516
 6.0376  28325.8  168.764
 6.0796  28741.6  169.827
 6.1216  28723  169.975
 6.1636  28885.4  169.513
 6.2056  28958.4  170.392
 6.2476  29037.9  170.326
 6.2896  29418.5  171.296
 6.3316  29040.9  170.368
 6.3736  29154.1  170.594
 6.4156  29291.8  170.949
 6.4576  29510.6  171.132
 6.4996  29487.7  171.545
 6.5416  29778.4  172.529
 6.5836  29672  172.45
 6.6256  29746.8  172.23
 6.6676  30095.7  172.804
 6.7096  29979.9  173.326
 6.7516  30485.3  174.433
 6.7936  30712.1  174.511
 6.8356  30695.3  174.532
 6.8776  30974  176.127
 6.9196  30997.1  176.599
 6.9616  31683.6  177.976
 7.0036  31959.5  178.407
 7.0456  32051.6  177.953
 7.0876  31914.5  179.19
 7.1296  31785.8  178.044
 7.1716  31620.5  177.122
 7.2136  31526.7  176.638
 7.2556  31791.8  177.541
 7.2976  31830.4  178.143
 7.3396  31670.2  177.904
 7.3816  31783.6  178.445
 7.4236  31910  178.089
 7.4656  32167.5  178.293
 7.5076  32590.8  179.595
 7.5496  32236.2  179.156
 7.5916  32279.2  179.305
 7.6336  32565.8  179.995
 7.6756  32637  180.043
 7.7176  32998.6  181.346
 7.7596  32888  182.29
 7.8016  33342.4  185.727
 7.8436  34170.8  184.663
 7.8856  33922.8  183.603
 7.9276  34785.8  186.326
 7.9696  34833.4  186.76
 8.0116  35894.2  188.111
 8.0536  35785.5  188.077
 8.0956  35920.7  189.609
 8.1376  36274.8  190.021
 8.1796  36656.2  191.548
 8.2216  37451  192.356
 8.2636  37603.9  192.998
 8.3056  37258.6  192.89
 8.3476  38080.2  194.322
 8.3896  37755.2  193.572
 8.4316  38029.8  194.441
 8.4736  38154.9  194.224
 8.5156  37720  193.391
 8.5576  37399.6  193.54
 8.5996  37576.6  192.867
 8.6416  37467.9  193.85
 8.6836  37012.3  192.513
 8.7256  37778.6  193.922
 8.7676  36872.3  194.496
 8.8096  37001.9  192.151
 8.8516  36728.9  191.108
 8.8936  36259.6  189.728
 8.9356  36284.7  190.135
 8.9776  36498.9  190.792
 9.0196  36318.3  189.992
 9.0616  36410.5  189.69
 9.1036  35833.3  189.381
 9.1456  35960.9  189.068
 9.1876  35996.4  189.117
 9.2296  36053.1  188.666
 9.2716  35771  187.985
 9.3136  35673.8  187.714
 9.3556  35796.3  188.023
 9.3976  34329.4  184.657
 9.4396  34924.8  186.148
 9.4816  34337.8  184.434
 9.5236  34519.2  184.832
 9.5656  34313.3  184.607
 9.6076  33992.2  184.269
 9.6496  33674.7  183.33
 9.6916  33816.1  183.684
 9.7336  33759.2  183.311
 9.7756  33661  184.151
 9.8176  33228  182.591
 9.8596  33084.9  180.643
 9.9016  32780.5  179.806
 9.9436  32385.6  178.461
 9.9856  32263.1  178.519
 10.0276  31658.5  177.935
 10.0696  31823.1  177.443
 10.1116  31113  175.718
 10.1536  30763.9  174.407
 10.1956  30597  174.019
 10.2376  30190.5  172.369
 10.2796  30471.5  173.292
 10.3216  30551  173.643
 10.3636  30181.8  172.767
 10.4056  29957.7  172.522
 10.4476  29944  172.108
 10.4896  30243.4  172.415
 10.5316  29408.3  170.402
 10.5736  29351.7  170.971
 10.6156  28932.5  169.523
 10.6576  29242.3  168.975
 10.6996  28899.9  168.655
 10.7416  28535.7  167.83
 10.7836  28478.1  168.352
 10.8256  28018.2  167.424
 10.8676  28299.1  167.786
 10.9096  27818  166.403
 10.9516  27740.2  165.088
 10.9936  27525.5  164.652
 11.0356  27457.3  165.081
 11.0776  27422.2  164.284
 11.1196  26965.9  163.662
 11.1616  26736.2  162.644
 11.2036  26831.4  162.792
 11.2456  26724.2  163.172
 11.2876  26630.3  162.623
 11.3296  26375  161.725
 11.3716  26824.4  162.835
 11.4136  26768.1  163.53
 11.4556  26935.3  163.709
 11.4976  27155.5  163.326
 11.5396  27352.3  164.091
 11.5816  26858.5  163.062
 11.6236  26313.9  161.616
 11.6656  26023.8  159.893
 11.7076  25567.2  159.319
 11.7496  25482.2  162.993
 11.7916  25371.5  157.971
 11.8336  25158.7  158.194
 11.8756  24935.4  157.023
 11.9176  25114.3  157.235
 11.9596  24711.4  156.161
 12.0016  24658.5  156.791
 12.0436  24712.7  156.381
 12.0856  24276.7  155.523
 12.1276  24497.2  156.142
 12.1696  24476.5  155.21
 12.2116  24645.7  155.738
 12.2536  23979.9  154.42
 12.2956  24422.8  155.198
 12.3376  23997.5  154.056
 12.3796  24469  156.018
 12.4216  24324.5  154.774
 12.4636  23969.6  154.551
 12.5056  24247.1  154.717
 12.5476  24330  154.509
 12.5896  24290  155.012
 12.6316  23812.4  153.647
 12.6736  24089.7  155.021
 12.7156  23710  153.657
 12.7576  24098  155.158
 12.7996  24295.7  154.426
 12.8416  23947.7  154.365
 12.8836  24428.9  155.736
 12.9256  24639.8  155.414
 12.9676  24699  156.026
 13.0096  24395  156.167
 13.0516  24653.7  156.023
 13.0936  24602.1  155.985
 13.1356  24924.4  156.264
 13.1776  24472.7  155.825
 13.2196  24620.5  155.957
 13.2616  24750.1  156.677
 13.3036  24629.9  156.439
 13.3456  24782.3  157.105
 13.3876  24588.5  155.782
 13.4296  24545.3  155.799
 13.4716  24702  155.898
 13.5136  24455.4  155.267
 13.5556  24647.8  156.49
 13.5976  24712  156.847
 13.6396  24884.7  156.762
 13.6816  24226.4  155.042
 13.7236  25283  158.153
 13.7656  24333.9  155.69
 13.8076  24572.7  155.235
 13.8496  24413  155.516
 13.8916  24383.2  156.242
 13.9336  24342.2  155.324
 13.9756  24301  154.549
 14.0176  24088.7  154.555
 14.0596  24121.8  154.631
 14.1016  23754.1  153.832
 14.1436  23589.6  152.444
 14.1856  23285.7  151.749
 14.2276  23143.3  151.769
 14.2696  23594.2  153.083
 14.3116  22999.1  151.029
 14.3536  22759.3  150.426
 14.3956  22716.4  150.006
 14.4376  22706.2  149.753
 14.4796  22698.3  149.721
 14.5216  22464.3  149.742
 14.5636  22307.9  148.782
 14.6056  22379.5  148.605
 14.6476  22237.7  147.363
 14.6896  22044.4  147.257
 14.7316  21791.5  147.452
 14.7736  21559.1  145.804
 14.8156  21403.2  145.313
 14.8576  21271.7  144.715
 14.8996  20903.7  144.67
 14.9416  20476.5  143.183
 14.9836  20723.7  144.01
 15.0256  20434.3  141.913
 15.0676  20400.8  142.115
 15.1096  20324.4  141.585
 15.1516  19910.9  140.686
 15.1936  19958.7  140.289
 15.2356  19782.5  139.949
 15.2776  19597.1  138.878
 15.3196  19285.4  138.772
 15.3616  19267.4  138.464
 15.4036  19185.2  138.028
 15.4456  19440.6  138.586
 15.4876  18910.9  136.363
 15.5296  18853.5  136.441
 15.5716  18627.4  135.226
 15.6136  18615.3  135.508
 15.6556  18663.6  134.92
 15.6976  18543  134.774
 15.7396  18296.3  134.272
 15.7816  18167.7  133.296
 15.8236  18073  133.664
 15.8656  18133.6  133.671
 15.9076  17662.6  131.755
 15.9496  17682.9  134.622
 15.9916  17581.5  134.69
 16.0336  17248  130.311
 16.0756  17539.6  131.719
 16.1176  17537  131.621
 16.1596  17007.9  130.947
 16.2016  17333.7  130.936
 16.2436  17051.1  130.255
 16.2856  17000.5  129.604
 16.3276  16595.2  128.462
 16.3696  16885.5  129.396
 16.4116  16495.3  128.359
 16.4536  17008.3  130.118
 16.4956  16692  128.645
 16.5376  16606.2  128.492
 16.5796  16518  127.511
 16.6216  16571.2  128.021
 16.6636  16486.2  127.848
 16.7056  16655.3  128.373
 16.7476  16754.8  128.273
 16.7896  16431.6  127.787
 16.8316  16438.1  127.775
 16.8736  16416.6  127.954
 16.9156  16540.5  128.773
 16.9576  16287.2  128.575
 16.9996  16262.4  128.967
 17.0416  16478.4  128.15
 17.0836  16215.3  126.884
 17.1256  16161.7  126.687
 17.1676  16200  126.839
 17.2096  15916.3  125.594
 17.2516  15987.3  125.96
 17.2936  15893.5  125.604
 17.3356  15500.8  124.058
 17.3776  15576.7  124.547
 17.4196  15664.5  124.59
 17.4616  15575.6  124.157
 17.5036  15267.5  123.283
 17.5456  15078.9  123.161
 17.5876  15347.4  123.296
 17.6296  15360.5  123.156
 17.6716  15194.1  123.073
 17.7136  14926.1  122.127
 17.7556  15037.5  122.87
 17.7976  15096.5  122.852
 17.8396  14994.2  121.93
 17.8816  14996.8  122.489
 17.9236  14803.1  121.504
 17.9656  15106.6  123.285
 18.0076  15026.5  122.537
 18.0496  15006.2  121.582
 18.0916  14998.8  122.101
 18.1336  15018.5  122.278
 18.1756  15282.2  122.87
 18.2176  15020.8  122.042
 18.2596  15093.6  122.066
 18.3016  15138.3  122.511
 18.3436  15202  122.766
 18.3856  14865.9  121.542
 18.4276  15081.9  122.088
 18.4696  14869.4  121.325
 18.5116  14961  121.991
 18.5536  14921.1  122.192
 18.5956  14528.7  120.123
 18.6376  14581.2  120.74
 18.6796  14417.4  119.397
 18.7216  14644.2  120.812
 18.7636  14356.8  119.614
 18.8056  14421.9  119.826
 18.8476  14320.9  120.037
 18.8896  14421.3  119.784
 18.9316  14428.6  119.803
 18.9736  14462.9  119.635
 19.0156  14262.4  119.206
 19.0576  14246.7  118.004
 19.0996  14358.6  119.185
 19.1416  14061.2  118.338
 19.1836  14316  118.997
 19.2256  14046.5  118.089
 19.2676  14233.2  118.965
 19.3096  14169.3  118.942
 19.3516  14174.5  118.75
 19.3936  14144.1  118.687
 19.4356  14106.7  118.413
 19.4776  14245.2  119.085
 19.5196  14068  118.196
 19.5616  14144.5  118.766
 19.6036  14115.6  118.148
 19.6456  14055.2  118.013
 19.6876  14274.8  118.574
 19.7296  14095.4  118.289
 19.7716  14105.7  118.483
 19.8136  14259.3  119.347
 19.8556  14495.2  119.801
 19.8976  14323.1  119.153
 19.9396  14364.8  118.899
 19.9816  14674.2  120.42
 20.0236  14665.4  120.604
 20.0656  14722  120.83
 20.1076  14362  119.813
 20.1496  14065.4  118.571
 20.1916  14016.5  117.841
 20.2336  13866.9  117.185
 20.2756  13924.2  117.857
 20.3176  13610.6  116.272
 20.3596  13729.4  116.751
 20.4016  13664.4  116.284
 20.4436  13611.4  116.608
 20.4856  13488  115.88
 20.5276  13456.2  116.197
 20.5696  13499.8  115.95
 20.6116  13317.7  115.337
 20.6536  13265.7  114.623
 20.6956  13384.8  115.263
 20.7376  13385.5  115.489
 20.7796  13391.2  115.205
 20.8216  13330.5  114.648
 20.8636  13203  114.468
 20.9056  13382  115.191
 20.9476  13134.8  113.962
 20.9896  13405.3  114.992
 21.0316  13383  114.79
 21.0736  13256.6  114.77
 21.1156  13252.6  114.913
 21.1576  13310.6  115.217
 21.1996  13057.2  114.096
 21.2416  13078.5  114.021
 21.2836  13279.1  114.85
 21.3256  13096.1  114.148
 21.3676  13160.5  113.968
 21.4096  13122.6  114.17
 21.4516  12987.3  113.405
 21.4936  12801.3  112.842
 21.5356  13049.7  113.878
 21.5776  13160.8  114.195
 21.6196  12900.3  113.089
 21.6616  12868.3  113.034
 21.7036  13005.4  113.421
 21.7456  13066.1  113.757
 21.7876  12922.2  112.882
 21.8296  12851.8  112.429
 21.8716  12837  112.594
 21.9136  13014.4  113.574
 21.9556  12835.2  112.462
 21.9976  12651.3  111.666
 22.0396  12678.4  112.037
 22.0816  12816.5  113.194
 22.1236  13063.5  113.723
 22.1656  12872.9  113.023
 22.2076  12807.3  112.199
 22.2496  12745  111.948
 22.2916  12917.5  112.592
 22.3336  12719  112.442
 22.3756  12824  112.628
 22.4176  12622.4  111.596
 22.4596  12642.9  112.28
 22.5016  12678.9  111.915
 22.5436  12855.4  112.588
 22.5856  12699.3  112.147
 22.6276  12762.9  112.56
 22.6696  12796.7  113.063
 22.7116  12653.7  111.941
 22.7536  12745  112.326
 22.7956  12789.6  111.839
 22.8376  12731.5  112.123
 22.8796  12624.7  111.448
 22.9216  12830.6  112.907
 22.9636  12816  111.982
 23.0056  12668.3  111.471
 23.0476  12766.1  112.476
 23.0896  13128.1  113.427
 23.1316  12984.2  113.241
 23.1736  12771.5  115.286
 23.2156  12746.9  112.543
 23.2576  12728.5  112.592
 23.2996  12665.6  112.103
 23.3416  12528.1  112.005
 23.3836  12574.7  111.454
 23.4256  12697.8  112.109
 23.4676  12702.4  111.832
 23.5096  12740.6  112.678
 23.5516  12568.8  111.195
 23.5936  12624.8  112.347
 23.6356  12700.8  112.35
 23.6776  12641.4  112.304
 23.7196  12380  110.933
 23.7616  12794.3  112.47
 23.8036  12534.4  111.357
 23.8456  12603.3  111.234
 23.8876  12261.5  110.069
 23.9296  12380.5  111.086
 23.9716  12338.9  110.108
 24.0136  12459.6  111.53
 24.0556  12345.5  110.759
 24.0976  12175.7  109.806
 24.1396  12263.8  112.851
 24.1816  12308.1  111.471
 24.2236  12247.8  110.8
 24.2656  12003.1  109.163
 24.3076  12103.4  109.872
 24.3496  12101.3  109.747
 24.3916  12014.2  109.405
 24.4336  12033.3  109.697
 24.4756  11895.6  108.936
 24.5176  11852  108.388
 24.5596  11612.4  107.613
 24.6016  11699.7  108.1
 24.6436  11649  107.361
 24.6856  11750.9  107.59
 24.7276  11619.7  107.299
 24.7696  11686.7  107.726
 24.8116  11618.9  107.595
 24.8536  11501.6  107.043
 24.8956  11454.4  106.566
 24.9376  11395.2  106.47
 24.9796  11296.1  106.117
 25.0216  11214  105.843
 25.0636  11491.4  106.794
 25.1056  11224.8  106.249
 25.1476  11408  108.778
 25.1896  11406.6  107.247
 25.2316  11445  106.693
 25.2736  11420.5  106.232
 25.3156  11306.5  105.783
 25.3576  11232.1  105.855
 25.3996  11245.4  105.899
 25.4416  11178  105.562
 25.4836  11161.8  106.012
 25.5256  11149.6  105.316
 25.5676  11249.8  105.515
 25.6096  11001.6  104.921
 25.6516  11160.1  105.161
 25.6936  11111.3  105.256
 25.7356  11065.8  105.175
 25.7776  11259.7  105.768
 25.8196  11024.8  104.82
 25.8616  11098.3  105.089
 25.9036  11131.2  104.713
 25.9456  11060  104.972
 25.9876  10963.4  104.445
 26.0296  11121.4  104.837
 26.0716  10861.6  104.032
 26.1136  10941.6  104.354
 26.1556  11071.1  104.347
 26.1976  10908.9  104.506
 26.2396  11014.5  104.165
 26.2816  11153.8  105.423
 26.3236  11067.3  105.178
 26.3656  10916.3  104.189
 26.4076  11012.5  104.858
 26.4496  11561.8  106.927
 26.4916  11153.1  105.019
 26.5336  10982.9  104.538
 26.5756  11155.4  105.224
 26.6176  10883.9  103.978
 26.6596  10723.1  103.517
 26.7016  10795.3  103.615
 26.7436  10722.5  103.398
 26.7856  10694.3  103.242
 26.8276  10681.4  103.14
 26.8696  10719.1  103.196
 26.9116  10695  103.022
 26.9536  10553.8  102.384
 26.9956  10708.7  103.162
 27.0376  10568.4  102.699
 27.0796  10665.9  102.905
 27.1216  10514  102.249
 27.1636  10561.2  102.644
 27.2056  10453  101.995
 27.2476  10456  102.015
 27.2896  10553.6  102.599
 27.3316  10357.6  101.354
 27.3736  10373.1  101.696
 27.4156  10282.7  101.095
 27.4576  10372.8  101.77
 27.4996  10367.1  101.334
 27.5416  10386.6  101.752
 27.5836  10311.8  101.201
 27.6256  10688.4  103.197
 27.6676  10548.3  102.542
 27.7096  10380.3  101.589
 27.7516  10326.4  101.473
 27.7936  10248.4  101.264
 27.8356  10337.9  101.32
 27.8776  10277.8  101.073
 27.9196  10388.2  101.46
 27.9616  10264.5  101.049
 28.0036  10192.4  100.665
 28.0456  10244  101.047
 28.0876  10106  100.46
 28.1296  10071.7  100.128
 28.1716  10076.2  100.166
 28.2136  10289.3  101.18
 28.2556  10055.9  100.145
 28.2976  10132.8  100.511
 28.3396  10178.2  100.495
 28.3816  10207.1  100.659
 28.4236  10170.6  100.631
 28.4656  10015  99.8959
 28.5076  10027.3  99.5937
 28.5496  10182.3  100.626
 28.5916  10040.7  99.7292
 28.6336  9836.68  99.0523
 28.6756  10031.4  99.2241
 28.7176  10066.7  99.9508
 28.7596  9860.93  98.8195
 28.8016  9871.67  98.9072
 28.8436  9813.11  98.8617
 28.8856  9902.42  99.1568
 28.9276  9928.25  99.5308
 28.9696  9940.29  99.2495
 29.0116  9811.92  98.7945
 29.0536  9678.39  98.3192
 29.0956  9870.17  99.0061
 29.1376  9769.66  98.4628
 29.1796  9780.65  98.5581
 29.2216  9672.94  97.8627
 29.2636  9688.72  98.0169
 29.3056  9806.33  98.3982
 29.3476  9849.77  99.1437
 29.3896  9888.41  99.4233
 29.4316  9951.45  99.0795
 29.4736  9833.54  98.5576
 29.5156  9880.53  98.6997
 29.5576  9687.41  98.4787
 29.5996  9712.05  97.8627
 29.6416  9668.91  97.7585
 29.6836  9724.57  97.9736
 29.7256  9641.13  98.1177
 29.7676  9731.01  98.235
 29.8096  9802.76  98.5355
 29.8516  9560.25  97.645
 29.8936  9647.72  98.1813
 29.9356  9814.02  98.7772
 29.9776  9609.02  97.8938
 30.0196  9557.21  97.0141
 30.0616  9641.94  97.8227
 30.1036  9657.69  97.7208
 30.1456  9514.58  97.2359
 30.1876  9533.26  97.3013
 30.2296  9530.8  97.2423
 30.2716  9709.45  97.7825
 30.3136  9704.74  98.6265
 30.3556  9520.46  97.7012
 30.3976  9553.96  99.3992
 30.4396  9652.12  97.2302
 30.4816  9719.77  97.1652
 30.5236  9529.78  96.2351
 30.5656  9519.93  96.8332
 30.6076  9540.03  96.7186
 30.6496  9565.84  96.8853
 30.6916  9616.11  97.2332
 30.7336  9487.97  96.7344
 30.7756  9504.14  96.9112
 30.8176  9449.42  96.5466
 30.8596  9482.42  96.4868
 30.9016  9498.21  96.4309
 30.9436  9447.04  96.3992
 30.9856  9427.66  96.4075
 31.0276  9359.63  95.6666
 31.0696  9309.09  95.9837
 31.1116  9309.73  95.9629
 31.1536  9436.91  96.4976
 31.1956  9442.43  96.6158
 31.2376  9243.51  95.6007
 31.2796  9416.58  96.0229
 31.3216  9237.46  95.044
 31.3636  9420.07  96.6763
 31.4056  9436.14  98.0897
 31.4476  9363.2  95.5789
 31.4896  9203.5  95.2678
 31.5316  9382.68  95.584
 31.5736  9398.13  95.4825
 31.6156  9309.45  95.0476
 31.6576  9538.11  96.3139
 31.6996  9395.08  95.2576
 31.7416  9212.3  95.2523
 31.7836  9265.53  94.6753
 31.8256  9130.73  94.2568
 31.8676  9313.81  95.1854
 31.9096  9164.52  94.6394
 31.9516  9008.35  94.1298
 31.9936  9065.17  94.2466
 32.0356  9229.61  95.167
 32.0776  9233.77  95.0713
 32.1196  9275.75  95.2989
 32.1616  9324.57  95.0859
 32.2036  9088.57  94.3873
 32.2456  9082.67  94.7339
 32.2876  9112.65  94.3821
 32.3296  9113.05  94.351
 32.3716  9011.49  93.9307
 32.4136  9140.1  94.8144
 32.4556  9328.61  95.1554
 32.4976  9121.68  94.0471
 32.5396  9140.48  94.1751
 32.5816  8936.83  93.2339
 32.6236  9085.76  94.0864
 32.6656  9157.68  94.9936
 32.7076  8959.24  93.6109
 32.7496  9033  93.66
 32.7916  9074.88  93.8442
 32.8336  8991.08  93.5068
 32.8756  9128.2  93.9447
 32.9176  9014.63  93.8305
 32.9596  8898.6  93.307
 33.0016  9052.9  93.9024
 33.0436  9101.94  94.3344
 33.0856  8988.9  93.8136
 33.1276  8869.4  92.9207
 33.1696  9006.55  93.4837
 33.2116  9122.87  94.3093
 33.2536  9031.05  93.8383
 33.2956  9018.65  93.8558
 33.3376  8923.33  93.1801
 33.3796  8966.52  93.5306
 33.4216  8933.01  92.945
 33.4636  8957.01  93.2271
 33.5056  8702.75  92.1269
 33.5476  8783.02  92.5419
 33.5896  9033.24  93.6224
 33.6316  8807.52  92.763
 33.6736  8722.03  92.5551
 33.7156  8794.91  92.9831
 33.7576  8939.99  93.3642
 33.7996  8923.53  93.053
 33.8416  8636.75  91.7294
 33.8836  8840.42  92.5829
 33.9256  8779.08  92.3248
 33.9676  8845.86  92.5671
 34.0096  8686.9  92.046
 34.0516  8664.38  91.567
 34.0936  8622.61  91.6064
 34.1356  8870.47  92.6555
 34.1776  8697.38  91.7551
 34.2196  8576.72  91.2923
 34.2616  8668.18  91.9153
 34.3036  8643.13  92.0339
 34.3456  8635.48  91.7508
 34.3876  8803.42  92.6913
 34.4296  8627.93  91.3602
 34.4716  8785.53  92.3419
 34.5136  8683.75  92.0123
 34.5556  8683.56  92.2596
 34.5976  8584.51  91.5771
 34.6396  8621.1  91.4407
 34.6816  8682.57  91.8831
 34.7236  8516.14  90.7884
 34.7656  8694.88  91.9289
 34.8076  8559  91.5207
 34.8496  8644.16  91.8408
 34.8916  8672.05  91.8569
 34.9336  8697.47  91.9635
 34.9756  8593.65  91.3595
 35.0176  8628.09  92.0522
 35.0596  8538.09  91.3894
 35.1016  8507.4  90.9925
 35.1436  8745.88  91.9385
 35.1856  8505.86  90.8031
 35.2276  8549.42  91.2083
 35.2696  8491.75  91.0914
 35.3116  8548.35  91.4866
 35.3536  8308.16  89.9422
 35.3956  8529.01  90.8023
 35.4376  8396.67  90.6445
 35.4796  8466.78  91.0825
 35.5216  8450.78  90.9557
 35.5636  8185.51  90.2539
 35.6056  8526.4  91.1215
 35.6476  8541.7  91.106
 35.6896  8583.83  91.4121
 35.7316  8409.85  90.4607
 35.7736  8320.92  90.1754
 35.8156  8415.64  90.6901
 35.8576  8419.94  90.9509
 35.8996  8476.65  91.2302
 35.9416  8612.6  91.4232
 35.9836  8320.28  90.3456
 36.0256  8397.45  90.6824
 36.0676  8522.69  91.1081
 36.1096  8411.11  90.6481
 36.1516  8463.81  90.8171
 36.1936  8540.67  91.0803
 36.2356  8368.47  90.7988
 36.2776  8341.39  90.1236
 36.3196  8302.12  89.5921
 36.3616  8423.4  90.3769
 36.4036  8311.71  89.819
 36.4456  8328.48  90.1318
 36.4876  8247.73  89.6348
 36.5296  8267.37  89.7787
 36.5716  8443.63  91.523
 36.6136  8497.26  90.5657
 36.6556  8411.97  90.3172
 36.6976  8222.23  89.7869
 36.7396  8321.91  90.0589
 36.7816  8469.05  91.2319
 36.8236  8422.11  90.9011
 36.8656  8312.96  90.3806
 36.9076  8351.54  90.462
 36.9496  8209.41  89.6865
 36.9916  8313.84  89.8769
 37.0336  8332.78  90.3017
 37.0756  8522.09  91.1043
 37.1176  8120.14  89.2002
 37.1596  8216.49  89.7343
 37.2016  8276.61  90.2853
 37.2436  8251.37  89.4662
 37.2856  8199.46  89.4399
 37.3276  8221.58  88.9064
 37.3696  8113.54  89.204
 37.4116  8206.47  89.6225
 37.4536  8200.67  89.4569
 37.4956  8275.99  89.903
 37.5376  8283.24  91.5205
 37.5796  8211.37  91.0721
 37.6216  8083.13  88.6453
 37.6636  8036.85  88.2847
 37.7056  8113.21  88.8967
 37.7476  8152.08  88.6452
 37.7896  8175.44  89.2676
 37.8316  7958.09  88.2499
 37.8736  8137.51  88.7588
 37.9156  7991.61  87.9654
 37.9576  8211.79  89.058
 37.9996  7950.22  87.3462
 38.0416  8024.66  88.5663
 38.0836  8096.27  88.8604
 38.1256  8082.77  88.7416
 38.1676  7860.93  87.6587
 38.2096  8042.38  88.2883
 38.2516  8214.95  89.4368
 38.2936  8125.41  88.742
 38.3356  8218.84  89.1664
 38.3776  7982.46  88.1511
 38.4196  7988.24  88.0363
 38.4616  7976.24  88.2081
 38.5036  8189.55  89.209
 38.5456  7953.74  88.7509
 38.5876  7916.23  88.5717
 38.6296  8008.06  88.0573
 38.6716  7853.94  86.9962
 38.7136  7812.36  86.7144
 38.7556  7893.69  87.6645
 38.7976  7933.61  87.8278
 38.8396  7837.62  87.7444
 38.8816  7820.02  87.4254
 38.9236  8099.06  88.783
 38.9656  7908.83  87.6475
 39.0076  7811.16  86.5152
 39.0496  7914.59  87.6293
 39.0916  7986.99  87.6701
 39.1336  7901.85  87.6161
 39.1756  7957.23  87.9906
 39.2176  7856.33  87.9575
 39.2596  7925.74  88.268
 39.3016  7908.85  87.7377
 39.3436  7829.3  87.7287
 39.3856  7885.47  87.4934
 39.4276  7901.09  88.0724
 39.4696  8051.63  88.5319
 39.5116  7839.66  87.8643
 39.5536  8016.97  89.2909
 39.5956  7964.38  88.0902
 39.6376  8037.76  88.506
 39.6796  7958.06  87.8018
 39.7216  8001.6  88.1416
 39.7636  8029.85  88.8733
 39.8056  8016.25  88.5758
 39.8476  7836.95  87.8313
 39.8896  7976.67  88.2401
 39.9316  7859.07  87.8385
 39.9736  7957.36  87.9506
 40.0156  7916.15  87.5513
 40.0576  7954.53  88.124
 40.0996  7982.79  87.4636
 40.1416  7971.45  88.1958
 40.1836  8017.83  88.3352
 40.2256  8096.78  88.8215
 40.2676  7948.01  88.1717
 40.3096  7934.99  87.9562
 40.3516  8031.53  88.5961
 40.3936  8068.54  88.3632
 40.4356  8028.57  88.3389
 40.4776  7971.59  88.273
 40.5196  8051.47  89.0062
 40.5616  8041.89  88.5944
 40.6036  7914.72  88.144
 40.6456  8045.81  88.4789
 40.6876  8060.9  88.5417
 40.7296  8071.86  88.747
 40.7716  8053.14  88.7716
 40.8136  8021.52  88.5353
 40.8556  7976.69  88.4262
 40.8976  7977.01  88.3447
 40.9396  7897.89  88.2595
 40.9816  8081.19  88.5546
 41.0236  8097.9  88.4284
 41.0656  8080.26  88.8726
 41.1076  8034.46  88.3912
 41.1496  7981.62  88.009
 41.1916  7868.97  87.7054
 41.2336  7827.58  87.4685
 41.2756  7991.85  87.9803
 41.3176  7978.6  88.5269
 41.3596  8142.79  89.1582
 41.4016  7958.37  88.4081
 41.4436  8045.14  88.668
 41.4856  8116.61  89.2265
 41.5276  7991.71  88.5583
 41.5696  7988.33  88.1635
 41.6116  8006.32  88.6669
 41.6536  7982.6  88.3922
 41.6956  7990.77  88.4166
 41.7376  7936.29  88.2176
 41.7796  7887.05  87.8272
 41.8216  8005.76  88.7221
 41.8636  8007.42  88.6688
 41.9056  7868.15  87.6804
 41.9476  7968.34  88.4748
 41.9896  8009.66  88.3735
 42.0316  8029.56  88.5572
 42.0736  7929.65  88.1494
 42.1156  7884.32  87.6973
 42.1576  7991.13  88.3943
 42.1996  7982.69  88.4952
 42.2416  7999.52  88.1665
 42.2836  7926.52  87.8743
 42.3256  7884.06  87.7577
 42.3676  7843.07  87.3291
 42.4096  7887.19  87.5398
 42.4516  7776.33  87.0131
 42.4936  7833.15  87.3973
 42.5356  7851.45  87.6329
 42.5776  7973.44  88.2491
 42.6196  7940.33  88.1183
 42.6616  7816.86  87.603
 42.7036  7953.33  87.7441
 42.7456  7879.01  87.6883
 42.7876  7814.19  87.4327
 42.8296  7899.72  87.7411
 42.8716  7757.65  87.1062
 42.9136  7790.39  87.0329
 42.9556  7800.51  87.2676
 42.9976  7896.8  87.7659
 43.0396  7800.07  86.9602
 43.0816  7737.03  86.9784
 43.1236  7864.27  87.7565
 43.1656  7857.26  87.5474
 43.2076  7785.28  87.2522
 43.2496  7784.85  87.0584
 43.2916  7762.52  87.3012
 43.3336  7792.13  87.3057
 43.3756  7674.11  86.3963
 43.4176  7632.05  86.2397
 43.4596  7595.23  85.8883
 43.5016  7742.51  87.1209
 43.5436  7761.64  87.1273
 43.5856  7719.15  86.918
 43.6276  7771.19  87.1051
 43.6696  7786.25  87.4508
 43.7116  7822.71  87.1479
 43.7536  7741.38  87.1816
 43.7956  7649.73  87.8466
 43.8376  7577.55  85.989
 43.8796  7682.05  86.6604
 43.9216  7700.36  86.6838
 43.9636  7619.41  86.3315
 44.0056  7708.69  87.0708
 44.0476  7586.81  86.0079
 44.0896  7630.11  86.598
 44.1316  7813.03  87.1481
 44.1736  7614.15  86.1543
 44.2156  7669.91  86.3204
 44.2576  7662.32  86.6059
 44.2996  7649.84  86.5063
 44.3416  7634.12  86.1817
 44.3836  7409.79  85.2273
 44.4256  7571.54  85.7996
 44.4676  7396.95  84.9583
 44.5096  7453.08  85.4199
 44.5516  7552.19  85.9478
 44.5936  7460.57  85.3834
 44.6356  7569.78  85.7427
 44.6776  7553.26  85.9659
 44.7196  7528.55  86.1365
 44.7616  7445.03  86.9719
 44.8036  7379.93  85.242
 44.8456  7550.15  86.2222
 44.8876  7463.14  85.5694
 44.9296  7556.08  85.5565
 44.9716  7465.01  85.4719
 45.0136  7518.54  85.7061
 45.0556  7363.83  84.8939
 45.0976  7391.38  85.1134
 45.1396  7263.03  84.134
 45.1816  7396.34  84.8458
 45.2236  7402.37  84.779
 45.2656  7392.6  85.2198
 45.3076  7389.45  84.9966
 45.3496  7303.97  84.7979
 45.3916  7373.86  85.4654
 45.4336  7437.04  85.6773
 45.4756  7408.41  85.3693
 45.5176  7448.59  85.2164
 45.5596  7433.64  85.2507
 45.6016  7311.36  84.9624
 45.6436  7428.32  84.8205
 45.6856  7305.73  84.7723
 45.7276  7321.66  86.173
 45.7696  7386.51  86.2123
 45.8116  7328.6  85.3139
 45.8536  7206.82  84.5014
 45.8956  7422.94  85.1099
 45.9376  7550.79  85.2998
 45.9796  7329.47  84.7192
 46.0216  7348.13  85.1711
 46.0636  7528.57  85.3475
 46.1056  7421.13  84.7236
 46.1476  7350.15  84.9065
 46.1896  7381.84  85.2415
 46.2316  7297.2  84.6233
 46.2736  7175.24  84.1157
 46.3156  7379.93  85.053
 46.3576  7306.4  84.8302
 46.3996  7270.81  84.7766
 46.4416  7247.15  84.1943
 46.4836  7181.95  84.1882
 46.5256  7214  84.3231
 46.5676  7236.42  84.5666
 46.6096  7252.85  84.5935
 46.6516  7249.64  83.6305
 46.6936  7379.13  84.8621
 46.7356  7341.46  84.7511
 46.7776  7197.03  84.7527
 46.8196  7178.22  84.3766
 46.8616  6944.54  82.8048
 46.9036  7096.52  83.3675
 46.9456  7139.76  83.2658
 46.9876  7154.66  83.4334
 47.0296  7181.74  84.2759
 47.0716  7079.81  83.5031
 47.1136  7200.51  83.8936
 47.1556  7236.24  83.967
 47.1976  7230.34  84.0816
 47.2396  6997.82  83.0465
 47.2816  7080.77  83.2348
 47.3236  7042.52  83.3744
 47.3656  7175.81  84.0924
 47.4076  7225.35  84.1209
 47.4496  7144.07  83.7994
 47.4916  7113.45  83.8099
 47.5336  7173.21  83.9795
 47.5756  7215.91  84.3489
 47.6176  7150.96  83.8628
 47.6596  7037.76  82.9159
 47.7016  7210.82  83.742
 47.7436  7196.5  83.998
 47.7856  7139.82  83.699
 47.8276  7079.03  83.3921
 47.8696  7090.7  83.5415
 47.9116  7133.66  83.512
 47.9536  7126.72  83.4088
 47.9956  7066.77  83.7625
 48.0376  7025.86  83.2925
 48.0796  7015.16  83.3546
 48.1216  7087.35  83.6006
 48.1636  7214.81  83.9312
 48.2056  7051.6  83.2363
 48.2476  7091.58  83.7763
 48.2896  7073.86  83.5789
 48.3316  7008.36  83.1426
 48.3736  7094.31  83.6726
 48.4156  6926.37  82.5264
 48.4576  6922.22  82.7905
 48.4996  7121.38  83.4289
 48.5416  7105.22  83.6638
 48.5836  7021.96  82.8494
 48.6256  7045.24  83.1878
 48.6676  7021.83  83.5599
 48.7096  6996.79  82.6937
 48.7516  6994.91  82.8268
 48.7936  6952.06  82.6334
 48.8356  6962.03  82.7434
 48.8776  6964.23  83.3181
 48.9196  7045.27  83.1739
 48.9616  6851.63  82.3906
 49.0036  6933.11  83.2331
 49.0456  6912.35  83.095
 49.0876  6890.52  82.4965
 49.1296  6831.55  82.3009
 49.1716  6847.96  82.2764
 49.2136  6893.06  82.4652
 49.2556  6926.83  82.7014
 49.2976  6970.67  83.0452
 49.3396  6830.16  82.2554
 49.3816  7027.73  82.8747
 49.4236  6918.35  82.6432
 49.4656  6747.41  81.6291
 49.5076  6921.26  82.4202
 49.5496  6834.07  81.9682
 49.5916  6935.37  82.4924
 49.6336  6919.4  82.6038
 49.6756  6980.89  83.2006
 49.7176  6800.66  82.055
 49.7596  6849.25  82.1208
 49.8016  6855.42  82.0776
 49.8436  6814.47  82.1227
 49.8856  6883.84  82.5504
 49.9276  6755.95  81.8674
 49.9696  6774.03  81.9669
 50.0116  6876.87  82.7135
 50.0536  6799.62  82.1945
 50.0956  6796.68  82.2529
 50.1376  6836.13  82.1993
 50.1796  6773.81  82.0809
 50.2216  6774.66  82.0828
 50.2636  6740.32  81.5007
 50.3056  6694.33  81.3886
 50.3476  6768.03  81.8591
 50.3896  6710.38  81.4832
 50.4316  6792.89  81.8206
 50.4736  6661.98  81.2418
 50.5156  6827.38  82.2369
 50.5576  6841.36  82.0816
 50.5996  6782.22  82.0011
 50.6416  6600.36  80.8297
 50.6836  6740.55  81.7343
 50.7256  6797.28  82.0176
 50.7676  6849.62  82.6397
 50.8096  6763.95  81.6585
 50.8516  6648.38  81.371
 50.8936  6673.09  81.3019
 50.9356  6738.3  81.8082
 50.9776  6644.85  81.3877
 51.0196  6552.89  80.9473
 51.0616  6662.71  80.9531
 51.1036  6672.5  81.3662
 51.1456  6641.86  81.0894
 51.1876  6636.04  80.4074
 51.2296  6738.96  81.6623
 51.2716  6655.41  80.8608
 51.3136  6634.07  81.1825
 51.3556  6626.23  80.7666
 51.3976  6487.15  80.0626
 51.4396  6458.57  80.1845
 51.4816  6504.37  80.3226
 51.5236  6614.69  81.0824
 51.5656  6499.29  79.9869
 51.6076  6536.89  80.2954
 51.6496  6662.07  81.2565
 51.6916  6608.78  81.2761
 51.7336  6596.04  81.2965
 51.7756  6634.21  81.2307
 51.8176  6524.66  80.6534
 51.8596  6569.81  80.9547
 51.9016  6697.33  81.3409
 51.9436  6504  81.5936
 51.9856  6492.56  81.9572
 52.0276  6551.86  80.8596
 52.0696  6486.39  80.5173
 52.1116  6549.8  81.0246
 52.1536  6472.6  80.3893
 52.1956  6618.23  80.8019
 52.2376  6571.48  80.6893
 52.2796  6630.87  80.8602
 52.3216  6371.25  79.9423
 52.3636  6531.68  80.5232
 52.4056  6427.38  79.7311
 52.4476  6462.53  80.3159
 52.4896  6384.6  79.8828
 52.5316  6516.25  80.7399
 52.5736  6454.33  80.0936
 52.6156  6456.08  80.4756
 52.6576  6471.08  80.0171
 52.6996  6271.71  79.7287
 52.7416  6457.08  80.7479
 52.7836  6433.4  80.49
 52.8256  6504.63  80.1607
 52.8676  6384.44  79.9764
 52.9096  6561.81  81.1747
 52.9516  6429.86  80.7104
 52.9936  6400.22  80.9141
 53.0356  6328.93  79.4794
 53.0776  6344.42  79.8301
 53.1196  6394.91  80.2765
 53.1616  6355.59  80.0753
 53.2036  6318.17  79.7928
 53.2456  6192.7  79.0854
 53.2876  6327.78  79.6659
 53.3296  6316.12  79.915
 53.3716  6312.08  79.6435
 53.4136  6309.22  79.7694
 53.4556  6273.83  79.5745
 53.4976  6167.4  78.7441
 53.5396  6241.87  79.6058
 53.5816  6254.68  79.3282
 53.6236  6251.72  79.6442
 53.6656  6306.88  79.6314
 53.7076  6311.96  79.6249
 53.7496  6292.33  79.6135
 53.7916  6329.54  79.9805
 53.8336  6182.45  78.9463
 53.8756  6149.86  79.2759
 53.9176  6283.28  79.4828
 53.9596  6302.83  80.375
 54.0016  6266.95  79.4743
 54.0436  6285.59  79.8105
 54.0856  6370.73  79.7758
 54.1276  6286.79  79.448
 54.1696  6247.8  79.37
 54.2116  6288.58  79.3898
 54.2536  6242.32  78.9149
 54.2956  6286.45  79.2339
 54.3376  6259.6  79.5501
 54.3796  6244.69  79.3517
 54.4216  6363.18  80.1526
 54.4636  6282.36  79.5989
 54.5056  6347.09  79.8297
 54.5476  6229.28  79.4167
 54.5896  6304.62  79.7227
 54.6316  6328.47  79.7353
 54.6736  6276.38  79.4805
 54.7156  6186.01  78.9238
 54.7576  6117.98  78.4865
 54.7996  6216.38  79.2733
 54.8416  6298.72  79.8284
 54.8836  6129.72  78.8598
 54.9256  6258.52  79.4375
 54.9676  6265.03  79.3367
 55.0096  6280.69  79.4979
 55.0516  6296.86  79.8364
 55.0936  6262.93  79.2488
 55.1356  6207.52  78.9372
 55.1776  6216.62  79.2669
 55.2196  6248.89  79.2563
 55.2616  6200.28  79.1605
 55.3036  6183.99  79.2149
 55.3456  6254.52  79.8133
 55.3876  6220.2  79.3392
 55.4296  6128.46  78.7295
 55.4716  6267.08  79.6489
 55.5136  6228.74  79.1611
 55.5556  6217.21  79.1605
 55.5976  6142.91  78.7381
 55.6396  6225.69  79.1364
 55.6816  6097.15  78.274
 55.7236  6190.99  78.9137
 55.7656  6239.47  78.9839
 55.8076  6260.84  79.0995
 55.8496  6190.38  79.0782
 55.8916  6166.51  79.0207
 55.9336  6187.56  78.9791
 55.9756  6180.89  78.8271
 56.0176  6149.7  78.777
 56.0596  6124.39  78.5946
 56.1016  6173.8  78.9226
 56.1436  6149.03  79.0256
 56.1856  6144.59  78.7396
 56.2276  6091.93  78.4629
 56.2696  6212.92  79.2057
 56.3116  6093.76  78.8452
 56.3536  6266.73  79.6132
 56.3956  6170.73  78.9892
 56.4376  6145.15  78.8604
 56.4796  6263.87  79.419
 56.5216  6209.89  79.4502
 56.5636  6229.85  79.1672
 56.6056  6144.62  78.8565
 56.6476  6124.39  78.3563
 56.6896  6156.43  79.0068
 56.7316  6184.79  79.1
 56.7736  6133.1  78.7625
 56.8156  6257.46  79.5543
 56.8576  6133.02  78.703
 56.8996  6167.41  78.8598
 56.9416  6155.54  79.0823
 56.9836  6020.4  77.7372
 57.0256  6131.15  78.7645
 57.0676  6123.55  78.8402
 57.1096  6153.89  78.8119
 57.1516  6173.18  79.0095
 57.1936  6085.06  78.1923
 57.2356  6157.87  78.9748
 57.2776  6141.79  78.8267
 57.3196  6146.35  79.222
 57.3616  6190.25  79.0035
 57.4036  6192.35  79.0788
 57.4456  6167.07  78.8803
 57.4876  6225.76  79.1176
 57.5296  6073.51  78.4789
 57.5716  5993.11  77.9464
 57.6136  6155.31  78.8133
 57.6556  6125.08  78.761
 57.6976  6107.68  78.4591
 57.7396  6067.64  78.5888
 57.7816  6047.25  78.8025
 57.8236  6046.03  78.5993
 57.8656  6059.26  78.342
 57.9076  6126.52  78.8061
 57.9496  6013.03  78.4209
 57.9916  6039.74  78.1063
 58.0336  6087.72  78.6949
 58.0756  6083.57  78.2784
 58.1176  6127.41  78.5846
 58.1596  6130.49  79.1707
 58.2016  6249.41  79.1494
 58.2436  6045.54  78.2568
 58.2856  6099.68  78.5278
 58.3276  6270.09  79.991
 58.3696  6084.75  78.5477
 58.4116  6105.75  78.5519
 58.4536  6153.12  78.7354
 58.4956  6078.18  78.4357
 58.5376  6055.41  77.8666
 58.5796  6099.11  78.5731
 58.6216  6196.84  79.0158
 58.6636  6193.05  79.209
 58.7056  6134.58  78.6862
 58.7476  6017.03  78.3701
 58.7896  6041.28  78.1729
 58.8316  6098.52  78.5354
 58.8736  6093.75  78.515
 58.9156  6080.41  78.4739
 58.9576  6165.34  79.3506
 58.9996  6301.76  79.4472
 59.0416  6278.87  79.6756
 59.0836  6125.09  78.6184
 59.1256  6020.72  78.6412
 59.1676  6098.5  79.4606
 59.2096  6085.47  78.6871
 59.2516  6229.53  79.1876
 59.2936  5948.86  77.7087
 59.3356  6154.27  78.9156
 59.3776  6015.57  78.1899
 59.4196  6024.87  78.1867
 59.4616  6228.05  79.3516
 59.5036  6036.69  78.1566
 59.5456  6245.62  79.1876
 59.5876  6149.66  78.7697
 59.6296  5952.74  77.567
 59.6716  6014.07  78.0234
 59.7136  6073.2  78.3943
 59.7556  6123.95  78.8585
 59.7976  6109.95  78.509
 59.8396  6185.19  78.8839
 59.8816  6154.16  79.2338
 59.9236  6047.46  78.1899
 59.9656  6117.45  78.8985
 60.0076  6201.93  78.7951
 60.0496  6211.77  79.3687
 60.0916  6343.53  79.6096
 60.1336  6055.53  78.8902
 60.1756  6035.22  79.9418
 60.1996  0.0000000E+00  0.0000000E+00