File: docs/examples/opeando_xrd/IS17_D/Data/IS17_D/17_Da_f00085.xye
# /beamlines/bl04/projects/cycle2025-II/20250340211-lsimonelli/DATA/IS17_D/17_Da_f00085.xye : mythproc.py merge -s 0.006 -l 0.5 -f /beamlines/bl04/inhouse/ff/FlatField/ff_20Nov2024rod8mm60s_17keV.raw -b True -c true -o xye /beamlines/bl04/projects/cycle2025-II/20250340211-lsimonelli/DATA/IS17_D/17_Da_00085.dat
# IsMon = [6750772, 6751893, 6753086]  IsPos = [-1.4999, -2.4884, -3.4988]
# Wave = 0.4962  CalPath /beamlines/bl04/projects/cycle2025-II/20250340211-lsimonelli/DATA/Align/Si_Pos1_25keV_f00001.cal
# Date = 2025-09-24_17:14:08 Dt = 4.8000  Bin = 0.0060  <imon> = 6751917 +/- 945 (Min/Max) 6750772 / 6753086
# icurr 249.2055  mocoIn 1.7000E-05  mocoOut 0.7976  i15 7.06955e+06  imon 6.75192e+06  i7 6.0000  iEMpd_timer 4.8000  iEMpd_1 3.3979E-08  iEMpd_2 7.8236E-08  iEMpd_3 1.4735E-08  iEMpd_4 4.7268E-08  iEMhp_timer 4.8000  iEMhp_1 4.8689E-06  iEMhp_2 -2.4800E-08  iEMhp_3 -2.4666E-08  iEMhp_4 -2.1880E-08
#      9776
 1.5856  40271.3  206.081
 1.6276  46934.6  218.66
 1.6696  53947.6  233.601
 1.7116  62115.3  251.152
 1.7536  71989.2  269.226
 1.7956  75802.5  276.955
 1.8376  72645.9  271.557
 1.8796  60351  245.694
 1.9216  48680.9  221.542
 1.9636  40908.3  202.255
 2.0056  36943.6  191.459
 2.0476  34234.1  186.324
 2.0896  32978.3  181.803
 2.1316  32200.2  178.782
 2.1736  30257  174.678
 2.2156  30759.6  174.709
 2.2576  29759.8  172.464
 2.2996  28642.1  169.814
 2.3416  28792.5  168.901
 2.3836  28147.4  167.1
 2.4256  27496.9  165.696
 2.4676  27326.9  164.949
 2.5096  26644.3  162.929
 2.5516  27014  167.857
 2.5936  35547.9  188.648
 2.6356  26415.9  163.316
 2.6776  25752.5  160.154
 2.7196  25369.2  159.473
 2.7616  25043.6  158.226
 2.8036  24939.6  158.066
 2.8456  24809.5  158.261
 2.8876  24435.6  156.936
 2.9296  23825.4  155.09
 2.9716  23938.9  154.96
 3.0136  23614.1  153.971
 3.0556  23705.2  154.658
 3.0976  23540.7  153.069
 3.1396  23318.9  153.059
 3.1816  23160.9  152.47
 3.2236  22777.8  151.194
 3.2656  23091.2  151.287
 3.3076  22641.1  151.23
 3.3496  23091  151.68
 3.3916  23692.3  153.47
 3.4336  24083.7  155.306
 3.4756  24200.6  155.611
 3.5176  25325.8  158.982
 3.5596  25064.1  160.557
 3.6016  25191.8  158.61
 3.6436  24369.4  157.086
 3.6856  23865.1  153.773
 3.7276  22940  151.84
 3.7696  22840.1  151.697
 3.8116  22596  150.774
 3.8536  22645.6  150.873
 3.8956  22546.7  150.37
 3.9376  22452.9  150.307
 3.9796  22542  150.118
 4.0216  22637.9  149.479
 4.0636  22339.6  149.947
 4.1056  22540.3  150.263
 4.1476  22602.5  150.783
 4.1896  22838.3  151.426
 4.2316  23122.5  152.195
 4.2736  23364.4  152.776
 4.3156  23807  154.444
 4.3576  24527.7  156.694
 4.3996  24781  157.756
 4.4416  25161.6  158.552
 4.4836  25988  161.281
 4.5256  26125.2  162.323
 4.5676  26118.6  162.554
 4.6096  26563.8  162.601
 4.6516  27084.1  163.894
 4.6936  27252.9  165.211
 4.7356  27427.8  165.572
 4.7776  27370.8  165.23
 4.8196  26951.7  164.605
 4.8616  26476.5  162.638
 4.9036  26505.4  162.471
 4.9456  26142.9  162.002
 4.9876  25655.7  160.386
 5.0296  26050.2  161.431
 5.0716  25904.8  161.753
 5.1136  26216.5  162.43
 5.1556  26558.2  162.946
 5.1976  27470.7  165.72
 5.2396  26921.3  163.75
 5.2816  26855.5  164.013
 5.3236  27022.2  164.229
 5.3656  26606.1  163.873
 5.4076  26340.1  163.206
 5.4496  26391  162.853
 5.4916  26398.9  162.634
 5.5336  26503.6  162.963
 5.5756  26423.1  162.748
 5.6176  26633.7  162.827
 5.6596  26688.1  163.969
 5.7016  26878.2  163.817
 5.7436  27196.5  165.059
 5.7856  26954.7  164.376
 5.8276  27310  165.184
 5.8696  27499.3  165.924
 5.9116  27356.2  166.094
 5.9536  27604.8  166.602
 5.9956  28023.4  167.221
 6.0376  27994.2  167.772
 6.0796  28282.8  168.468
 6.1216  28413.7  169.057
 6.1636  28467.5  168.281
 6.2056  28412  168.782
 6.2476  28762.3  169.694
 6.2896  28946  169.916
 6.3316  28792.3  169.638
 6.3736  28960.7  170.024
 6.4156  28813.5  169.489
 6.4576  29189.8  170.201
 6.4996  29245.6  170.839
 6.5416  29207.1  170.867
 6.5836  29424.8  171.731
 6.6256  29141.5  170.471
 6.6676  29758.9  171.834
 6.7096  29569.7  172.135
 6.7516  29950.9  172.894
 6.7936  30304.1  173.339
 6.8356  30408.4  173.712
 6.8776  30590.9  175.038
 6.9196  30736.4  175.852
 6.9616  31300.6  176.902
 7.0036  31479.2  177.061
 7.0456  31587  176.66
 7.0876  31388  177.782
 7.1296  31548.7  177.38
 7.1716  31344.9  176.34
 7.2136  30997.2  175.147
 7.2556  31354.9  176.316
 7.2976  31318.5  176.71
 7.3396  31204.6  176.596
 7.3816  31271.2  176.999
 7.4236  31600.4  177.223
 7.4656  31825.9  177.343
 7.5076  31982.5  177.91
 7.5496  32058.2  178.655
 7.5916  31858.1  178.132
 7.6336  32351.3  179.4
 7.6756  32241.6  178.951
 7.7176  32849.8  180.94
 7.7596  32536  181.31
 7.8016  33410.6  185.912
 7.8436  33697.3  183.381
 7.8856  33679.9  182.947
 7.9276  34370  185.204
 7.9696  34481.3  185.817
 8.0116  35362.3  186.708
 8.0536  35722.7  187.921
 8.0956  35611.9  188.798
 8.1376  35963.8  189.207
 8.1796  36103.4  190.113
 8.2216  36760.4  190.577
 8.2636  37184.1  191.921
 8.3056  37040.3  192.319
 8.3476  37624  193.157
 8.3896  37693.7  193.418
 8.4316  37526.2  193.152
 8.4736  37666.8  192.975
 8.5156  37626.7  193.154
 8.5576  37059.6  192.67
 8.5996  37316.9  192.198
 8.6416  36829.2  192.197
 8.6836  37054.2  192.613
 8.7256  37441.6  193.062
 8.7676  37109.1  195.12
 8.8096  36797.4  191.605
 8.8516  36667.5  190.881
 8.8936  36580.2  190.541
 8.9356  36231.2  189.978
 8.9776  36411.6  190.543
 9.0196  35889.3  188.86
 9.0616  36349.2  189.529
 9.1036  35680.5  188.96
 9.1456  35874.4  188.824
 9.1876  35663.7  188.227
 9.2296  36003.7  188.519
 9.2716  35160.6  186.369
 9.3136  35425.9  187.053
 9.3556  35679  187.705
 9.3976  33937.1  183.59
 9.4396  34726.2  185.601
 9.4816  33951.3  183.385
 9.5236  34086.8  183.658
 9.5656  34028.1  183.824
 9.6076  33717.9  183.506
 9.6496  33618.9  183.166
 9.6916  33638.3  183.188
 9.7336  33473.9  182.522
 9.7756  33669.9  184.308
 9.8176  32821.5  181.48
 9.8596  32767.1  179.784
 9.9016  32361.7  178.663
 9.9436  32027.6  177.651
 9.9856  31943.3  177.645
 10.0276  31422.4  177.287
 10.0696  31638.2  176.94
 10.1116  30786.1  174.802
 10.1536  30631.5  174.527
 10.1956  30270  173.098
 10.2376  29929.1  171.631
 10.2796  30077.8  172.179
 10.3216  29787  171.615
 10.3636  29800  171.68
 10.4056  29827.1  172.152
 10.4476  29917.7  172.042
 10.4896  30400.4  172.872
 10.5316  29498.4  170.997
 10.5736  29213  170.578
 10.6156  28849.5  169.284
 10.6576  29758.7  170.47
 10.6996  28521.2  167.556
 10.7416  28150.9  166.707
 10.7836  28467.6  168.325
 10.8256  27892.2  167.046
 10.8676  28170.2  167.406
 10.9096  27525.7  165.521
 10.9516  27337  163.882
 10.9936  27365.8  164.168
 11.0356  27264.2  164.499
 11.0776  26995.6  162.999
 11.1196  26573.7  162.466
 11.1616  26271.2  161.231
 11.2036  26686.5  162.348
 11.2456  26792.3  163.386
 11.2876  26251.2  161.455
 11.3296  26025.6  160.656
 11.3716  26475.1  161.736
 11.4136  26459.9  162.584
 11.4556  26750.1  163.14
 11.4976  27094.3  163.147
 11.5396  27039.8  163.15
 11.5816  26465.2  161.872
 11.6236  25988.6  160.621
 11.6656  25746.5  159.038
 11.7076  25571.3  159.328
 11.7496  25157.4  161.941
 11.7916  25124.5  157.201
 11.8336  24900.7  157.377
 11.8756  24614.6  156.018
 11.9176  24805  156.271
 11.9596  24632.8  155.91
 12.0016  24271.6  155.556
 12.0436  24478  155.643
 12.0856  24324.2  155.675
 12.1276  24340.1  155.63
 12.1696  24148.6  154.169
 12.2116  24332.7  154.746
 12.2536  24229.1  155.251
 12.2956  24209.3  154.519
 12.3376  23831.6  153.519
 12.3796  24145.9  154.98
 12.4216  23941.7  153.551
 12.4636  23895.3  154.305
 12.5056  23861  153.473
 12.5476  23944.9  153.283
 12.5896  24051.1  154.252
 12.6316  23518.5  152.695
 12.6736  23788.3  154.042
 12.7156  23630.8  153.401
 12.7576  23908.9  154.544
 12.7996  23925.6  153.246
 12.8416  23768.1  153.786
 12.8836  24214.6  155.05
 12.9256  24186.2  153.979
 12.9676  24390.2  155.052
 13.0096  24148.5  155.381
 13.0516  24352  155.062
 13.0936  24212.5  155.024
 13.1356  24527.3  155.014
 13.1776  24327.7  155.362
 13.2196  24421.9  155.318
 13.2616  24379.7  155.501
 13.3036  24397.1  155.527
 13.3456  24405.6  155.905
 13.3876  24298.1  154.862
 13.4296  24358.2  155.204
 13.4716  24498.3  155.257
 13.5136  24348.4  154.939
 13.5556  24538.6  156.151
 13.5976  24496.2  156.153
 13.6396  24849.5  156.644
 13.6816  24432.1  155.815
 13.7236  25008.9  157.296
 13.7656  24298  155.574
 13.8076  24477  154.933
 13.8496  24114.4  154.377
 13.8916  23975.3  154.926
 13.9336  24164  154.763
 13.9756  23806.7  152.967
 14.0176  23923.4  154.021
 14.0596  23936.6  154.033
 14.1016  23360.7  152.558
 14.1436  23193.5  151.153
 14.1856  23116.8  151.197
 14.2276  22859.5  150.838
 14.2696  23115.5  151.517
 14.3116  22810.8  150.407
 14.3536  22426.9  149.319
 14.3956  22460.3  149.161
 14.4376  22715.3  149.785
 14.4796  22627.5  149.49
 14.5216  22059.3  148.394
 14.5636  21931.4  147.524
 14.6056  22230.7  148.107
 14.6476  22108.2  146.929
 14.6896  21732.9  146.217
 14.7316  21309.6  145.802
 14.7736  21273.6  144.84
 14.8156  21058.6  144.138
 14.8576  21021.5  143.864
 14.8996  20723.3  144.047
 14.9416  20364.1  142.787
 14.9836  20383.3  142.815
 15.0256  20300  141.448
 15.0676  20165.1  141.294
 15.1096  20093  140.779
 15.1516  19804  140.323
 15.1936  19695.6  139.363
 15.2356  19496.4  138.936
 15.2776  19627.8  138.986
 15.3196  19078.8  138.027
 15.3616  19142.1  138.009
 15.4036  18774.2  136.536
 15.4456  19244.1  137.887
 15.4876  19010.1  136.723
 15.5296  18659.4  135.74
 15.5716  18638.1  135.264
 15.6136  18368.1  134.61
 15.6556  18437.9  134.104
 15.6976  18376.6  134.174
 15.7396  18052.6  133.373
 15.7816  18055.7  132.889
 15.8236  17823.5  132.734
 15.8656  17752.6  132.265
 15.9076  17408  130.802
 15.9496  17623  134.391
 15.9916  17686.4  135.086
 16.0336  17382.8  130.813
 16.0756  17044  129.834
 16.1176  17191.5  130.467
 16.1596  16682  129.682
 16.2016  16964.3  129.522
 16.2436  16842.1  129.441
 16.2856  16747  128.625
 16.3276  16419.6  127.77
 16.3696  16737.5  128.821
 16.4116  16545.5  128.543
 16.4536  16742.1  129.087
 16.4956  16587.2  128.221
 16.5376  16339.6  127.45
 16.5796  16391.1  127.019
 16.6216  16444.5  127.527
 16.6636  16460.4  127.739
 16.7056  16242.5  126.757
 16.7476  16334.7  126.651
 16.7896  16318  127.332
 16.8316  16458.2  127.839
 16.8736  16176.5  127.006
 16.9156  16346.7  128.005
 16.9576  16074.1  127.734
 16.9996  16112  128.364
 17.0416  16360.4  127.702
 17.0836  16077  126.354
 17.1256  15840.2  125.433
 17.1676  15983.1  125.989
 17.2096  15839.8  125.3
 17.2516  15791.6  124.891
 17.2936  15733.6  124.973
 17.3356  15476.9  123.968
 17.3776  15320.6  123.524
 17.4196  15632.5  124.473
 17.4616  15319.4  123.14
 17.5036  15263.5  123.279
 17.5456  14998.5  122.84
 17.5876  15205.1  122.729
 17.6296  15060  121.963
 17.6716  15142.9  122.865
 17.7136  14937.3  122.178
 17.7556  14821.7  121.983
 17.7976  14977.6  122.375
 17.8396  15092.5  122.336
 17.8816  14761.3  121.531
 17.9236  14702.1  121.097
 17.9656  14905  122.467
 18.0076  14901.4  122.025
 18.0496  14918.3  121.225
 18.0916  15385.1  123.645
 18.1336  15107  122.629
 18.1756  15214.6  122.589
 18.2176  15011.3  122.004
 18.2596  14940.8  121.45
 18.3016  15139.2  122.513
 18.3436  15130.7  122.478
 18.3856  14839.9  121.435
 18.4276  14956.6  121.576
 18.4696  14724.6  120.736
 18.5116  14798.4  121.323
 18.5536  14761.7  121.531
 18.5956  14554.3  120.227
 18.6376  14540  120.577
 18.6796  14422  119.408
 18.7216  14584.3  120.57
 18.7636  14317.7  119.451
 18.8056  14140.3  118.651
 18.8476  14170.6  119.399
 18.8896  14213.4  118.917
 18.9316  14305.9  119.284
 18.9736  14089.6  118.081
 19.0156  14158.4  118.776
 19.0576  14221.3  117.901
 19.0996  14167.7  118.391
 19.1416  14090.7  118.457
 19.1836  13981.2  117.601
 19.2256  13826.9  117.149
 19.2676  14067.7  118.265
 19.3096  14067  118.51
 19.3516  13941.4  117.94
 19.3936  14088.3  118.46
 19.4356  14002.2  117.97
 19.4776  13991.5  118.019
 19.5196  13969.8  117.787
 19.5616  13938.5  117.903
 19.6036  13978.6  117.572
 19.6456  14038  117.943
 19.6876  14113  117.899
 19.7296  14092.5  118.275
 19.7716  14085.2  118.406
 19.8136  14083.6  118.607
 19.8556  14441  119.577
 19.8976  14273  118.944
 19.9396  14467  119.324
 19.9816  14593  120.081
 20.0236  14597.5  120.322
 20.0656  14490.3  119.875
 20.1076  14080.5  118.631
 20.1496  13989.2  118.253
 20.1916  13897.4  117.383
 20.2336  13673.1  116.359
 20.2756  13663.5  116.75
 20.3176  13565.7  116.08
 20.3596  13479.8  115.685
 20.4016  13494.8  115.558
 20.4436  13551.3  116.351
 20.4856  13243.1  114.815
 20.5276  13415.8  116.025
 20.5696  13301.5  114.994
 20.6116  13294.4  115.236
 20.6536  13324.3  114.874
 20.6956  13144.2  114.215
 20.7376  13203.9  114.705
 20.7796  13116.8  114.013
 20.8216  13271  114.388
 20.8636  13160.8  114.279
 20.9056  13237.3  114.565
 20.9476  13085  113.744
 20.9896  13395.7  114.95
 21.0316  13308.5  114.473
 21.0736  13170.2  114.396
 21.1156  13169.8  114.556
 21.1576  13301  115.175
 21.1996  13085  114.215
 21.2416  12996  113.661
 21.2836  13195.4  114.491
 21.3256  12884.6  113.219
 21.3676  13083.3  113.636
 21.4096  13053.3  113.81
 21.4516  12987.4  113.408
 21.4936  12653.5  112.192
 21.5356  13028  113.778
 21.5776  13068.1  113.794
 21.6196  12737  112.369
 21.6616  12729.2  112.424
 21.7036  12751.7  112.308
 21.7456  12739.7  112.329
 21.7876  12721.1  111.998
 21.8296  12641.5  111.505
 21.8716  12628.8  111.678
 21.9136  12833.2  112.777
 21.9556  12831.9  112.444
 21.9976  12685.9  111.82
 22.0396  12638.8  111.864
 22.0816  12639.1  112.397
 22.1236  12697.1  112.117
 22.1656  12762.7  112.513
 22.2076  12724  111.834
 22.2496  12816.1  112.265
 22.2916  12683.7  111.567
 22.3336  12666.4  112.216
 22.3756  12723.2  112.187
 22.4176  12538  111.224
 22.4596  12491.4  111.602
 22.5016  12758.1  112.277
 22.5436  12775  112.232
 22.5856  12686.9  112.093
 22.6276  12525.4  111.514
 22.6696  12645  112.39
 22.7116  12592.3  111.678
 22.7536  12589.9  111.641
 22.7956  12646.1  111.212
 22.8376  12536.6  111.257
 22.8796  12823  112.322
 22.9216  12778  112.673
 22.9636  12679.5  111.386
 23.0056  12690  111.57
 23.0476  12651.9  111.972
 23.0896  12992.8  112.842
 23.1316  12894  112.854
 23.1736  12514.3  114.125
 23.2156  12713.8  112.382
 23.2576  12594.5  111.989
 23.2996  12687.3  112.19
 23.3416  12428.2  111.555
 23.3836  12505  111.126
 23.4256  12627  111.795
 23.4676  12665.5  111.659
 23.5096  12350.2  110.929
 23.5516  12445.6  110.641
 23.5936  12599.8  112.232
 23.6356  12637.2  112.058
 23.6776  12651.7  112.335
 23.7196  12429  110.929
 23.7616  12667.4  111.896
 23.8036  12573.4  111.53
 23.8456  12542.1  110.954
 23.8876  12268.3  110.094
 23.9296  12139.9  109.994
 23.9716  12258.3  109.728
 24.0136  12431.9  111.411
 24.0556  12212.8  110.156
 24.0976  12227.4  110.033
 24.1396  12072.3  111.975
 24.1816  12130.5  110.666
 24.2236  12025.4  109.795
 24.2656  11966.9  109.004
 24.3076  11930.6  109.089
 24.3496  11807.7  108.417
 24.3916  11847.4  108.65
 24.4336  11846.4  108.851
 24.4756  11971.4  109.295
 24.5176  11721.5  107.797
 24.5596  11693.2  107.791
 24.6016  11638.6  107.826
 24.6436  11657.5  107.409
 24.6856  11674.3  107.247
 24.7276  11563.7  107.049
 24.7696  11625.7  107.45
 24.8116  11523.4  107.159
 24.8536  11479.1  106.946
 24.8956  11430.2  106.458
 24.9376  11478.6  106.62
 24.9796  11186.1  105.604
 25.0216  11159.6  105.584
 25.0636  11374.5  106.249
 25.1056  11053.6  105.444
 25.1476  11230.7  107.934
 25.1896  11202.8  106.291
 25.2316  11471.6  106.819
 25.2736  11237.2  105.378
 25.3156  11210.7  105.332
 25.3576  11183.6  105.626
 25.3996  11018.8  104.819
 25.4416  11207.7  105.704
 25.4836  10916.7  104.84
 25.5256  10993.1  104.576
 25.5676  11049.7  104.576
 25.6096  10922.9  104.546
 25.6516  11096.1  104.867
 25.6936  10916.5  104.328
 25.7356  10874.4  104.259
 25.7776  11053.3  104.719
 25.8196  10961.8  104.511
 25.8616  10996.4  104.608
 25.9036  11048.4  104.323
 25.9456  10894.2  104.185
 25.9876  10905.4  104.304
 26.0296  11038.3  104.445
 26.0716  10798.2  103.72
 26.1136  10981.1  104.543
 26.1556  10965.6  103.846
 26.1976  10794.9  103.959
 26.2396  10892.9  103.586
 26.2816  10874.2  104.106
 26.3236  10874.2  104.262
 26.3656  10872.7  103.981
 26.4076  10836.4  104.015
 26.4496  11425.9  106.259
 26.4916  11019.7  104.381
 26.5336  10843.5  103.873
 26.5756  10995.3  104.457
 26.6176  10844.5  103.79
 26.6596  10719.7  103.501
 26.7016  10710.4  103.209
 26.7436  10571  102.666
 26.7856  10534  102.469
 26.8276  10645  102.959
 26.8696  10518.6  102.227
 26.9116  10564.8  102.385
 26.9536  10438.1  101.819
 26.9956  10497.4  102.143
 27.0376  10426.4  102.003
 27.0796  10537.3  102.284
 27.1216  10428.3  101.83
 27.1636  10219.7  100.972
 27.2056  10480.3  102.132
 27.2476  10443.4  101.953
 27.2896  10458.7  102.137
 27.3316  10404.7  101.587
 27.3736  10401.5  101.834
 27.4156  10307.1  101.22
 27.4576  10235.2  101.094
 27.4996  10406.7  101.53
 27.5416  10369.7  101.669
 27.5836  10428.1  101.765
 27.6256  10596.7  102.746
 27.6676  10485.1  102.233
 27.7096  10271.2  101.051
 27.7516  10342.1  101.551
 27.7936  10247.2  101.258
 27.8356  10229.6  100.786
 27.8776  10158.1  100.481
 27.9196  10070.6  99.8988
 27.9616  10200.9  100.737
 28.0036  10168  100.545
 28.0456  10175.2  100.708
 28.0876  10150.9  100.679
 28.1296  10050.9  100.026
 28.1716  10021.8  99.8915
 28.2136  10185.9  100.669
 28.2556  10011.3  99.9217
 28.2976  9931.6  99.5075
 28.3396  10056.2  99.8944
 28.3816  10031.5  99.7894
 28.4236  9969.05  99.6323
 28.4656  10069.8  100.166
 28.5076  9972.54  99.3225
 28.5496  9945.66  99.4493
 28.5916  9951.81  99.2887
 28.6336  9841.4  99.077
 28.6756  9754.98  97.85
 28.7176  9806.93  98.6511
 28.7596  9767.81  98.3574
 28.8016  9953.65  99.3233
 28.8436  9628.74  97.9282
 28.8856  9857.78  98.9316
 28.9276  9946.67  99.6276
 28.9696  9693.26  98.0064
 29.0116  9692.57  98.1917
 29.0536  9706.09  98.4574
 29.0956  9700.86  98.1506
 29.1376  9677.26  97.9968
 29.1796  9556.88  97.4297
 29.2216  9655.73  97.77
 29.2636  9654.35  97.8419
 29.3056  9638.79  97.5532
 29.3476  9668.72  98.2289
 29.3896  9729.05  98.6261
 29.4316  9863.39  98.6418
 29.4736  9589.83  97.3256
 29.5156  9757.63  98.0912
 29.5576  9692.17  98.5092
 29.5996  9683.93  97.7235
 29.6416  9558.75  97.202
 29.6836  9782.78  98.2666
 29.7256  9607.98  97.948
 29.7676  9515.98  97.1378
 29.8096  9542.43  97.2214
 29.8516  9469.6  97.1771
 29.8936  9505.46  97.4568
 29.9356  9637.26  97.8839
 29.9776  9516.55  97.4236
 30.0196  9508.05  96.7633
 30.0616  9466.4  96.9283
 30.1036  9601.79  97.4464
 30.1456  9460.82  96.9589
 30.1876  9578.07  97.5354
 30.2296  9398.86  96.5674
 30.2716  9652.99  97.4993
 30.3136  9552.93  97.85
 30.3556  9610.23  98.1574
 30.3976  9410.25  98.6615
 30.4396  9564.83  96.7902
 30.4816  9463.1  95.8725
 30.5236  9490.53  96.0313
 30.5656  9333.63  95.8728
 30.6076  9492.05  96.1212
 30.6496  9558.82  96.8424
 30.6916  9369.52  95.9694
 30.7336  9397.18  96.2651
 30.7756  9307.13  95.8904
 30.8176  9402.33  96.2987
 30.8596  9454.65  96.3371
 30.9016  9340.87  96.0946
 30.9436  9360.78  95.9514
 30.9856  9368.43  96.1011
 31.0276  9257.83  95.1319
 31.0696  9267.92  95.7637
 31.1116  9314.66  95.9812
 31.1536  9400.12  96.299
 31.1956  9129.53  94.9944
 31.2376  9203.13  95.3847
 31.2796  9204.57  94.9311
 31.3216  9207.58  94.8942
 31.3636  9300.53  96.0613
 31.4056  9242.24  97.0623
 31.4476  9337.97  95.4589
 31.4896  9185.09  95.1748
 31.5316  9456.26  95.9613
 31.5736  9315.8  95.061
 31.6156  9249.15  94.7502
 31.6576  9237.04  94.7843
 31.6996  9256.33  94.5595
 31.7416  9008.61  94.3235
 31.7836  9292.02  94.8161
 31.8256  9207.23  94.655
 31.8676  9206.29  94.6443
 31.9096  9051.64  94.1976
 31.9516  8944.79  93.7971
 31.9936  9045.81  94.1535
 32.0356  9143.49  94.729
 32.0776  9216.34  94.9897
 32.1196  9312.8  95.5791
 32.1616  9234.9  94.6336
 32.2036  9036.32  94.1186
 32.2456  8989.76  94.2481
 32.2876  9062.19  94.1298
 32.3296  8981.99  93.6777
 32.3716  9057.21  94.1683
 32.4136  9030.37  94.243
 32.4556  9219.93  94.6036
 32.4976  8971.57  93.2243
 32.5396  9125.55  94.0978
 32.5816  8893.07  93.0062
 32.6236  9022.9  93.7607
 32.6656  9110.83  94.7558
 32.7076  8944.22  93.5392
 32.7496  9018.99  93.5955
 32.7916  9001.41  93.4661
 32.8336  9039.23  93.7572
 32.8756  9037.39  93.4608
 32.9176  8825.79  92.8469
 32.9596  8875.92  93.1848
 33.0016  8983.54  93.5412
 33.0436  9008.88  93.8462
 33.0856  8927.41  93.4914
 33.1276  8780.37  92.4532
 33.1696  8922.36  93.0467
 33.2116  9013.22  93.7455
 33.2536  8906.39  93.1839
 33.2956  8945.15  93.4728
 33.3376  8846.35  92.6953
 33.3796  8890.52  93.132
 33.4216  8845.77  92.5008
 33.4636  8832.9  92.5732
 33.5056  8779.28  92.5379
 33.5476  8652.55  91.8561
 33.5896  8904.91  92.9555
 33.6316  8732.99  92.3748
 33.6736  8567.15  91.7272
 33.7156  8664.25  92.2918
 33.7576  8825.41  92.7658
 33.7996  8868.6  92.7653
 33.8416  8643.22  91.7537
 33.8836  8778.6  92.2523
 33.9256  8726.69  92.0455
 33.9676  8803.43  92.3445
 34.0096  8624.47  91.7172
 34.0516  8695.76  91.7259
 34.0936  8544.68  91.1967
 34.1356  8723.37  91.8795
 34.1776  8620.02  91.3475
 34.2196  8649.13  91.6846
 34.2616  8560.6  91.3481
 34.3036  8588.18  91.7403
 34.3456  8617.66  91.6559
 34.3876  8594.13  91.4972
 34.4296  8461.44  90.4679
 34.4716  8636.05  91.5536
 34.5136  8601.72  91.5751
 34.5556  8581.02  91.7164
 34.5976  8583.73  91.5341
 34.6396  8570.36  91.1771
 34.6816  8619.53  91.5551
 34.7236  8525.31  90.8355
 34.7656  8564.56  91.2374
 34.8076  8559.92  91.5362
 34.8496  8472.64  90.9264
 34.8916  8447.26  90.6692
 34.9336  8621.48  91.551
 34.9756  8459.97  90.6177
 35.0176  8497.21  91.3404
 35.0596  8392.59  90.605
 35.1016  8439.16  90.6232
 35.1436  8604.59  91.1955
 35.1856  8431.46  90.403
 35.2276  8548.26  91.2003
 35.2696  8339.64  90.2732
 35.3116  8453.25  90.975
 35.3536  8320.23  89.9752
 35.3956  8484.08  90.5641
 35.4376  8356.92  90.4379
 35.4796  8433.48  90.9081
 35.5216  8325.85  90.28
 35.5636  8189.72  90.2749
 35.6056  8460.78  90.7726
 35.6476  8470.9  90.723
 35.6896  8509.12  91.0153
 35.7316  8270.21  89.7038
 35.7736  8283.35  89.9713
 35.8156  8273.98  89.9209
 35.8576  8337.89  90.5224
 35.8996  8443.77  91.0441
 35.9416  8644.05  91.587
 35.9836  8334.02  90.3202
 36.0256  8391.69  90.6505
 36.0676  8444.49  90.6948
 36.1096  8199.23  89.5031
 36.1516  8270.47  89.7818
 36.1936  8375.81  90.1983
 36.2356  8195.17  89.8425
 36.2776  8374.45  90.31
 36.3196  8264.93  89.3919
 36.3616  8280.17  89.6008
 36.4036  8285.73  89.689
 36.4456  8245.97  89.684
 36.4876  8078.9  88.7054
 36.5296  8235.81  89.6071
 36.5716  8148.8  89.9098
 36.6136  8227.45  89.1205
 36.6556  8388.63  90.1903
 36.6976  8377.81  90.6334
 36.7396  8208.85  89.4488
 36.7816  8299.65  90.314
 36.8236  8150.04  89.4241
 36.8656  8078  89.0988
 36.9076  8178.16  89.5254
 36.9496  8142.19  89.3143
 36.9916  8283.53  89.7163
 37.0336  8367.85  90.4882
 37.0756  8398.26  90.4438
 37.1176  8148.44  89.3568
 37.1596  8156.57  89.409
 37.2016  8189.21  89.8125
 37.2436  8123.86  88.7749
 37.2856  8134.04  89.0839
 37.3276  8324.99  89.4693
 37.3696  8168.58  89.5119
 37.4116  8307.62  90.1729
 37.4536  8084.04  88.8198
 37.4956  7982.39  88.3033
 37.5376  8133.44  90.677
 37.5796  8082.21  90.362
 37.6216  7908.5  87.6675
 37.6636  8017.58  88.1775
 37.7056  8017.3  88.3648
 37.7476  8049.59  88.0831
 37.7896  8150.54  89.1243
 37.8316  7811.51  87.4313
 37.8736  8088.48  88.481
 37.9156  7983.05  87.9119
 37.9576  7963.2  87.6922
 37.9996  7954.69  87.3697
 38.0416  8041.19  88.6536
 38.0836  8178.65  89.3046
 38.1256  8042.58  88.5152
 38.1676  7859.56  87.6403
 38.2096  7907.81  87.5406
 38.2516  8071.95  88.6436
 38.2936  8064.44  88.4088
 38.3356  8093.37  88.4771
 38.3776  7867.42  87.5065
 38.4196  8005.72  88.122
 38.4616  7961.7  88.1135
 38.5036  8037.93  88.3789
 38.5456  7835.22  88.0898
 38.5876  7921.69  88.6052
 38.6296  7843.29  87.1511
 38.6716  7884.67  87.1761
 38.7136  7927.41  87.3551
 38.7556  7840.32  87.3751
 38.7976  7857.93  87.413
 38.8396  7705.62  87.0075
 38.8816  7735.15  86.9529
 38.9236  7692.61  86.5315
 38.9656  7825.8  87.1913
 39.0076  7962.97  87.3486
 39.0496  7919.59  87.6591
 39.0916  7960.37  87.5307
 39.1336  7805.55  87.086
 39.1756  7951.96  87.9653
 39.2176  7829.86  87.8165
 39.2596  7863.95  87.9269
 39.3016  7911.45  87.7653
 39.3436  7664.74  86.8061
 39.3856  7946.7  87.8368
 39.4276  7836.42  87.7093
 39.4696  7905.07  87.7219
 39.5116  7694.13  87.0523
 39.5536  7888.77  88.5748
 39.5956  7943.35  87.9754
 39.6376  7921.4  87.8551
 39.6796  7915.8  87.5682
 39.7216  7921.6  87.6948
 39.7636  7885.6  88.0673
 39.8056  7930.25  88.0947
 39.8476  7740.69  87.2902
 39.8896  7900.31  87.8106
 39.9316  7684.66  86.8597
 39.9736  7943.4  87.8767
 40.0156  7830.47  87.0803
 40.0576  7907.81  87.8659
 40.0996  7862.88  86.7997
 40.1416  7869.2  87.6242
 40.1836  7962.77  88.0362
 40.2256  7864.88  87.5357
 40.2676  7875.14  87.7008
 40.3096  7915.95  87.8556
 40.3516  7973.93  88.2777
 40.3936  8015.57  88.0702
 40.4356  7942.04  87.863
 40.4776  7981.99  88.4957
 40.5196  8053.4  89.0179
 40.5616  7965.16  88.1664
 40.6036  7825.41  87.6464
 40.6456  7990.89  88.1695
 40.6876  7959.15  87.9853
 40.7296  7861.13  87.5769
 40.7716  7921.25  88.0461
 40.8136  7911.34  87.9296
 40.8556  7959.03  88.3256
 40.8976  7948.09  88.1878
 40.9396  7878.71  88.1508
 40.9816  7912.5  87.6273
 41.0236  8025.02  88.0271
 41.0656  7966.32  88.2415
 41.1076  7957.55  87.9673
 41.1496  8042.04  88.3414
 41.1916  7927.84  88.0358
 41.2336  7834.05  87.506
 41.2756  7812.78  86.9911
 41.3176  7861.2  87.8726
 41.3596  7932.21  88.0005
 41.4016  7859.53  87.8467
 41.4436  7963.86  88.2161
 41.4856  7952  88.313
 41.5276  7856.52  87.8057
 41.5696  7837.91  87.3333
 41.6116  7835.78  87.7155
 41.6536  7944.99  88.1802
 41.6956  7894.19  87.9537
 41.7376  7814.15  87.5321
 41.7796  7817.88  87.4347
 41.8216  7899.47  88.13
 41.8636  7921.18  88.1885
 41.9056  7842.01  87.5378
 41.9476  7863.41  87.8835
 41.9896  7892.13  87.7201
 42.0316  7942.88  88.082
 42.0736  7832.43  87.5776
 42.1156  7830.56  87.4074
 42.1576  7787.16  87.2607
 42.1996  7809.65  87.5267
 42.2416  7905.09  87.645
 42.2836  7864.14  87.5274
 42.3256  7819.35  87.3924
 42.3676  7843.38  87.3299
 42.4096  7796.65  87.0354
 42.4516  7745.95  86.8416
 42.4936  7703.44  86.6704
 42.5356  7904.02  87.9249
 42.5776  7814.49  87.3589
 42.6196  7836.01  87.5387
 42.6616  7746.85  87.2113
 42.7036  7868.24  87.2685
 42.7456  7756.49  87.007
 42.7876  7722.15  86.9122
 42.8296  7728.44  86.7767
 42.8716  7763.01  87.1359
 42.9136  7741.33  86.8
 42.9556  7679.19  86.5865
 42.9976  7823.26  87.3593
 43.0396  7749.31  86.6775
 43.0816  7673.25  86.6243
 43.1236  7710.85  86.8964
 43.1656  7775.42  87.0879
 43.2076  7759.97  87.1026
 43.2496  7744.17  86.8272
 43.2916  7652.35  86.6779
 43.3336  7678.63  86.6674
 43.3756  7715.84  86.6346
 43.4176  7614.25  86.1391
 43.4596  7583.12  85.8214
 43.5016  7632.47  86.5022
 43.5436  7648.14  86.4918
 43.5856  7673.19  86.6581
 43.6276  7655.46  86.4566
 43.6696  7541.72  86.0656
 43.7116  7786.25  86.9462
 43.7536  7726.84  87.1046
 43.7956  7546.55  87.259
 43.8376  7678.08  86.558
 43.8796  7541.73  85.8667
 43.9216  7555.24  85.857
 43.9636  7552.78  85.9521
 44.0056  7649.14  86.7353
 44.0476  7542.34  85.7588
 44.0896  7497.45  85.8443
 44.1316  7527.77  85.5428
 44.1736  7442.16  85.1755
 44.2156  7672.09  86.3385
 44.2576  7514.58  85.7715
 44.2996  7661.04  86.5732
 44.3416  7563.43  85.7802
 44.3836  7426.86  85.3302
 44.4256  7414.85  84.9062
 44.4676  7266.09  84.2036
 44.5096  7549.8  85.9726
 44.5516  7460.01  85.4305
 44.5936  7372.29  84.8778
 44.6356  7452.66  85.0778
 44.6776  7424.32  85.2334
 44.7196  7376.65  85.2627
 44.7616  7430.53  86.8885
 44.8036  7312.07  84.6378
 44.8456  7488.64  85.8643
 44.8876  7384.45  85.116
 44.9296  7514.6  85.3198
 44.9716  7348.53  84.7993
 45.0136  7431.64  85.2049
 45.0556  7473.78  85.421
 45.0976  7344.82  84.8416
 45.1396  7330.99  84.5253
 45.1816  7220.66  83.8184
 45.2236  7402.21  84.7717
 45.2656  7255.03  84.4132
 45.3076  7312.6  84.5355
 45.3496  7295.05  84.7283
 45.3916  7311.73  85.0967
 45.4336  7291.61  84.8308
 45.4756  7331.15  84.9178
 45.5176  7317.87  84.4587
 45.5596  7320.55  84.5951
 45.6016  7327.16  85.0481
 45.6436  7344.87  84.3384
 45.6856  7257.22  84.474
 45.7276  7188.24  85.3818
 45.7696  7278.15  85.5801
 45.8116  7348.52  85.438
 45.8536  7220.56  84.5857
 45.8956  7260.39  84.1769
 45.9376  7220.03  83.4158
 45.9796  7257.13  84.3053
 46.0216  7166.4  84.1142
 46.0636  7295.64  84.0242
 46.1056  7212.63  83.5297
 46.1476  7243.76  84.2955
 46.1896  7263.29  84.559
 46.2316  7190.15  84.004
 46.2736  7205.64  84.4555
 46.3156  7161.44  83.7893
 46.3576  7199.48  84.2087
 46.3996  7241.67  84.617
 46.4416  7224.86  84.0962
 46.4836  7052  83.4368
 46.5256  7305.8  84.8601
 46.5676  7169.28  84.1774
 46.6096  7308.53  84.9262
 46.6516  7181.56  83.241
 46.6936  7237.36  84.0452
 46.7356  7290.66  84.4559
 46.7776  7148.61  84.4688
 46.8196  7145.02  84.0452
 46.8616  7010.12  83.1965
 46.9036  7023.6  82.94
 46.9456  7107.97  83.0747
 46.9876  7129.3  83.2875
 47.0296  7167.5  84.1924
 47.0716  6957.14  82.7767
 47.1136  7090.18  83.2457
 47.1556  7122.56  83.3035
 47.1976  7173.58  83.6841
 47.2396  7088.01  83.5756
 47.2816  7024.99  82.9006
 47.3236  7125.93  83.8731
 47.3656  7134.99  83.8542
 47.4076  7079.53  83.3284
 47.4496  7022.94  83.0938
 47.4916  6974.26  82.9786
 47.5336  7127.17  83.7089
 47.5756  7144.91  83.9285
 47.6176  6993.71  82.9388
 47.6596  6963.17  82.4761
 47.7016  7135.78  83.3148
 47.7436  7211.27  84.0814
 47.7856  7117.05  83.565
 47.8276  6994.82  82.8814
 47.8696  6999.77  83.003
 47.9116  7022.14  82.8545
 47.9536  7018.47  82.7729
 47.9956  6893.36  82.7271
 48.0376  6905.66  82.5789
 48.0796  7065.05  83.6508
 48.1216  7140.02  83.9141
 48.1636  7181.18  83.7356
 48.2056  6988.62  82.864
 48.2476  7059.93  83.5888
 48.2896  7010.23  83.2104
 48.3316  6910.51  82.56
 48.3736  6939.12  82.7463
 48.4156  6871.02  82.1949
 48.4576  6927.61  82.8245
 48.4996  6962.42  82.4931
 48.5416  7062.33  83.4094
 48.5836  6916.93  82.2234
 48.6256  6977.04  82.7856
 48.6676  6834.79  82.4413
 48.7096  6957.4  82.4547
 48.7516  7038.98  83.0849
 48.7936  6801.71  81.7362
 48.8356  6874.74  82.2209
 48.8776  6883.85  82.8416
 48.9196  6942.42  82.5654
 48.9616  6927.59  82.8564
 49.0036  6869.74  82.8549
 49.0456  6875.1  82.8645
 49.0876  6907.3  82.5987
 49.1296  6788.92  82.045
 49.1716  6664.89  81.1691
 49.2136  6779.07  81.7966
 49.2556  6929.19  82.7261
 49.2976  6896.22  82.5972
 49.3396  6725.9  81.6259
 49.3816  6984.59  82.6073
 49.4236  6799.16  81.9158
 49.4656  6840.15  82.1875
 49.5076  6824.57  81.8491
 49.5496  6808.55  81.8129
 49.5916  6870.18  82.101
 49.6336  6810.77  81.948
 49.6756  6989.43  83.2429
 49.7176  6800.13  82.0466
 49.7596  6775.74  81.6748
 49.8016  6857.32  82.0823
 49.8436  6748.55  81.7194
 49.8856  6688.13  81.367
 49.9276  6676.47  81.3917
 49.9696  6794.85  82.0933
 50.0116  6785.92  82.1493
 50.0536  6846.22  82.4761
 50.0956  6694.65  81.632
 50.1376  6818.46  82.0816
 50.1796  6744.03  81.9025
 50.2216  6627.84  81.1848
 50.2636  6746.2  81.5339
 50.3056  6683.03  81.3208
 50.3476  6666.04  81.2381
 50.3896  6672.08  81.2472
 50.4316  6735.1  81.4694
 50.4736  6567.03  80.6601
 50.5156  6656.89  81.2029
 50.5576  6711.43  81.2948
 50.5996  6590.65  80.8374
 50.6416  6652.5  81.1428
 50.6836  6643.82  81.1534
 50.7256  6711.44  81.4875
 50.7676  6766.56  82.1392
 50.8096  6634.92  80.8803
 50.8516  6637.23  81.306
 50.8936  6608.4  80.9081
 50.9356  6722.52  81.713
 50.9776  6646.41  81.3893
 51.0196  6588.88  81.1627
 51.0616  6532.88  80.1654
 51.1036  6637.9  81.1562
 51.1456  6741.94  81.7027
 51.1876  6628.6  80.3665
 51.2296  6526.41  80.3671
 51.2716  6496.86  79.8907
 51.3136  6528.67  80.5329
 51.3556  6604.74  80.6327
 51.3976  6444.85  79.8022
 51.4396  6499.01  80.4357
 51.4816  6562.39  80.6734
 51.5236  6584.55  80.9044
 51.5656  6459.32  79.7428
 51.6076  6526.79  80.2374
 51.6496  6438.37  79.8754
 51.6916  6504.49  80.6362
 51.7336  6549.87  81.0086
 51.7756  6563.61  80.7952
 51.8176  6523.85  80.6557
 51.8596  6478.31  80.3902
 51.9016  6674.25  81.1979
 51.9436  6416.52  81.0585
 51.9856  6420.11  81.5022
 52.0276  6441.19  80.1684
 52.0696  6454.59  80.3163
 52.1116  6428.35  80.2574
 52.1536  6494.83  80.5691
 52.1956  6537.47  80.2907
 52.2376  6522.76  80.3812
 52.2796  6491.9  80.0038
 52.3216  6293.7  79.4419
 52.3636  6418.81  79.817
 52.4056  6416.38  79.6421
 52.4476  6335.15  79.5165
 52.4896  6386.14  79.8865
 52.5316  6354.03  79.7308
 52.5736  6346.02  79.4057
 52.6156  6492.61  80.694
 52.6576  6517.85  80.2988
 52.6996  6224  79.4129
 52.7416  6357.72  80.116
 52.7836  6499.76  80.8962
 52.8256  6381.99  79.4036
 52.8676  6252.85  79.1485
 52.9096  6300.63  79.5356
 52.9516  6447.26  80.8236
 52.9936  6346.61  80.5765
 53.0356  6168.41  78.4696
 53.0776  6237.06  79.1609
 53.1196  6247.67  79.3501
 53.1616  6253.8  79.4349
 53.2036  6306.02  79.7251
 53.2456  6306.1  79.8304
 53.2876  6236.16  79.0913
 53.3296  6270.33  79.6292
 53.3716  6281.86  79.4514
 53.4136  6217.3  79.1892
 53.4556  6192.9  79.0631
 53.4976  6211.05  79.0298
 53.5396  6294.12  79.9449
 53.5816  6246.29  79.2743
 53.6236  6253.93  79.6646
 53.6656  6262.31  79.3542
 53.7076  6198.79  78.9118
 53.7496  6303.31  79.6922
 53.7916  6378.53  80.2915
 53.8336  6169.79  78.8646
 53.8756  6240.25  79.8615
 53.9176  6203.76  78.9769
 53.9596  6311.78  80.4183
 54.0016  6152.42  78.7459
 54.0436  6115.87  78.725
 54.0856  6258.28  79.0615
 54.1276  6124.93  78.4218
 54.1696  6172.53  78.8929
 54.2116  6201.45  78.8341
 54.2536  6262.76  79.0446
 54.2956  6237.69  78.9279
 54.3376  6182.25  79.051
 54.3796  6168.65  78.8717
 54.4216  6250.8  79.4404
 54.4636  6181.75  78.9588
 54.5056  6181.5  78.7811
 54.5476  6144.09  78.8719
 54.5896  6259.08  79.4364
 54.6316  6217.15  79.0312
 54.6736  6272.61  79.4533
 54.7156  6200.84  79.0244
 54.7576  6142.4  78.6442
 54.7996  6231.54  79.3483
 54.8416  6261.63  79.591
 54.8836  6096.07  78.6428
 54.9256  6101.35  78.4323
 54.9676  6220.88  79.0517
 55.0096  6204.27  79.0188
 55.0516  6256.46  79.5774
 55.0936  6143.49  78.486
 55.1356  6101.57  78.2656
 55.1776  6116.87  78.6295
 55.2196  6128.5  78.4894
 55.2616  6115.44  78.615
 55.3036  6181.46  79.1949
 55.3456  6124.13  78.972
 55.3876  6101.77  78.5784
 55.4296  6158.71  78.923
 55.4716  6162.69  78.9838
 55.5136  6096.14  78.3153
 55.5556  6140.58  78.6716
 55.5976  6153.21  78.8064
 55.6396  6095.39  78.3848
 55.6816  6089.36  78.2277
 55.7236  6176.22  78.8215
 55.7656  6213.45  78.819
 55.8076  6184.43  78.6174
 55.8496  6078.53  78.2585
 55.8916  6110  78.663
 55.9336  6081.2  78.2928
 55.9756  6084.95  78.2129
 56.0176  6096.14  78.4345
 56.0596  6159.39  78.8207
 56.1016  6163.84  78.8593
 56.1436  6094.51  78.6732
 56.1856  6082.68  78.3457
 56.2276  6075.61  78.3533
 56.2696  6045.14  78.1303
 56.3116  6053.16  78.5822
 56.3536  6057.02  78.269
 56.3956  6103.66  78.5588
 56.4376  6092.14  78.5162
 56.4796  6108.69  78.4255
 56.5216  6084.93  78.6393
 56.5636  6112.65  78.419
 56.6056  6152.82  78.9029
 56.6476  6086.66  78.1144
 56.6896  6155.81  78.9991
 56.7316  6153.8  78.8915
 56.7736  6062.13  78.3078
 56.8156  6124.33  78.7031
 56.8576  6074.52  78.3277
 56.8996  6139.5  78.6788
 56.9416  6114.15  78.8212
 56.9836  6017.9  77.7191
 57.0256  6036.78  78.1522
 57.0676  6121.09  78.8207
 57.1096  6132.84  78.6889
 57.1516  6099.71  78.5358
 57.1936  6080.55  78.1612
 57.2356  6099.49  78.6023
 57.2776  6113.71  78.6525
 57.3196  6024.85  78.4409
 57.3616  6039.12  78.0336
 57.4036  6066.84  78.2716
 57.4456  6036.81  78.0458
 57.4876  6113.47  78.3956
 57.5296  6000.84  78.0084
 57.5716  6017.81  78.1036
 57.6136  6084.78  78.3631
 57.6556  6115.15  78.6877
 57.6976  6092.08  78.3684
 57.7396  6018  78.2641
 57.7816  5984.43  78.3995
 57.8236  6071.11  78.7633
 57.8656  6066.42  78.39
 57.9076  6047.1  78.2911
 57.9496  5986.67  78.2441
 57.9916  6048.76  78.1683
 58.0336  6074.96  78.6114
 58.0756  6021.02  77.9025
 58.1176  5983.3  77.6462
 58.1596  6001.33  78.3321
 58.2016  6139.21  78.4412
 58.2436  6066.23  78.3925
 58.2856  6062.96  78.2847
 58.3276  5961.32  77.9994
 58.3696  6046.79  78.3061
 58.4116  5975.26  77.7107
 58.4536  6059.17  78.1402
 58.4956  6033.05  78.1508
 58.5376  6136.18  78.3865
 58.5796  5990.46  77.8691
 58.6216  6151.42  78.7255
 58.6636  6154.77  78.9609
 58.7056  5982.3  77.7044
 58.7476  6130.38  79.1071
 58.7896  6009.88  77.9717
 58.8316  5980.66  77.7718
 58.8736  6063.76  78.3227
 58.9156  5978.32  77.8164
 58.9576  6077.22  78.777
 58.9996  6193.95  78.7662
 59.0416  6159.93  78.9184
 59.0836  5993.54  77.7705
 59.1256  5996.53  78.4802
 59.1676  6060.22  79.2141
 59.2096  5997.61  78.1082
 59.2516  6191.36  78.9357
 59.2936  6051.92  78.3701
 59.3356  6045.17  78.2041
 59.3776  6152.92  79.0685
 59.4196  6068.83  78.4625
 59.4616  6163.35  78.9294
 59.5036  5942.9  77.5392
 59.5456  6302.97  79.5412
 59.5876  6098.72  78.4339
 59.6296  6075.05  78.351
 59.6716  6132.23  78.7772
 59.7136  6148.89  78.8723
 59.7556  6097.94  78.682
 59.7976  6002.51  77.8068
 59.8396  6133.1  78.5421
 59.8816  6024.61  78.3892
 59.9236  6181.59  79.0433
 59.9656  6103.17  78.8025
 60.0076  6037.72  77.7361
 60.0496  6071.74  78.456
 60.0916  6225.99  78.8597
 60.1336  6066.8  78.9547
 60.1756  6223.65  81.1709
 60.1996  0.0000000E+00  0.0000000E+00