File: docs/examples/opeando_xrd/IS17_D/Data/IS17_D/17_Db_f00118.xye
# /beamlines/bl04/projects/cycle2025-II/20250340211-lsimonelli/DATA/IS17_D/17_Db_f00118.xye : mythproc.py merge -s 0.006 -l 0.5 -f /beamlines/bl04/inhouse/ff/FlatField/ff_20Nov2024rod8mm60s_17keV.raw -b True -c true -o xye /beamlines/bl04/projects/cycle2025-II/20250340211-lsimonelli/DATA/IS17_D/17_Db_00118.dat
# IsMon = [6741908, 6746441, 6744911]  IsPos = [-1.4999, -2.4884, -3.4988]
# Wave = 0.4962  CalPath /beamlines/bl04/projects/cycle2025-II/20250340211-lsimonelli/DATA/Align/Si_Pos1_25keV_f00001.cal
# Date = 2025-09-25_02:35:08 Dt = 4.8000  Bin = 0.0060  <imon> = 6744420 +/- 1883 (Min/Max) 6741908 / 6746441
# icurr 249.0603  mocoIn 1.6998E-05  mocoOut 0.7974  i15 7.06772e+06  imon 6.74442e+06  i7 2.6667  iEMpd_timer 4.8000  iEMpd_1 3.6059E-08  iEMpd_2 7.8624E-08  iEMpd_3 1.6864E-08  iEMpd_4 4.8813E-08  iEMhp_timer 4.8000  iEMhp_1 4.8680E-06  iEMhp_2 -2.2973E-08  iEMhp_3 -2.4498E-08  iEMhp_4 -2.1320E-08
#      9776
 1.5856  43908.5  215.208
 1.6276  51009.3  227.977
 1.6696  56703.4  239.518
 1.7116  63078.8  253.118
 1.7536  71603.3  268.531
 1.7956  75417.8  276.279
 1.8376  72362  271.053
 1.8796  62418.8  249.9
 1.9216  51235.3  227.303
 1.9636  44441.1  210.828
 2.0056  40644.8  200.841
 2.0476  37920.2  196.119
 2.0896  36842.4  192.178
 2.1316  35952.4  188.93
 2.1736  33663.3  184.267
 2.2156  34421.9  184.836
 2.2576  33465.7  182.906
 2.2996  32059.6  179.678
 2.3416  32636.4  179.841
 2.3836  31872.8  177.833
 2.4256  31385.5  177.043
 2.4676  31155.1  176.142
 2.5096  30633.6  174.719
 2.5516  29053.4  174.04
 2.5936  29203.2  170.977
 2.6356  28524.5  169.7
 2.6776  28568.5  168.705
 2.7196  28040.6  167.627
 2.7616  28058.8  167.471
 2.8036  27836.7  166.976
 2.8456  27649.6  167.069
 2.8876  27012.4  164.977
 2.9296  26817.2  164.529
 2.9716  26387.1  162.684
 3.0136  26166.1  162.062
 3.0556  26263  162.765
 3.0976  26172.5  161.391
 3.1396  25672.6  160.558
 3.1816  25592.7  160.256
 3.2236  25269.3  159.233
 3.2656  25045.2  157.546
 3.3076  25042.5  159.026
 3.3496  25262.9  158.631
 3.3916  25390  158.862
 3.4336  26004.5  161.371
 3.4756  26398.9  162.532
 3.5176  26832.9  163.624
 3.5596  26641.5  165.526
 3.6016  26540.1  162.797
 3.6436  25775.7  161.545
 3.6856  25334.5  158.452
 3.7276  24392.2  156.559
 3.7696  24147.1  155.968
 3.8116  23978.2  155.311
 3.8536  24098.8  155.636
 3.8956  23972.7  155.044
 3.9376  23749.2  154.59
 3.9796  23857.3  154.414
 4.0216  23715.6  152.989
 4.0636  23695.1  154.414
 4.1056  23620  153.807
 4.1476  23914.3  155.09
 4.1896  24086.7  155.495
 4.2316  24250.8  155.857
 4.2736  24525.1  156.527
 4.3156  24750.5  157.479
 4.3576  25751.4  160.536
 4.3996  25711.2  160.678
 4.4416  26365.6  162.298
 4.4836  26627.8  163.259
 4.5256  27437.2  166.347
 4.5676  27039.1  165.388
 4.6096  27590  165.706
 4.6516  27944.5  166.46
 4.6936  28124.5  167.837
 4.7356  28295.4  168.169
 4.7776  28025.7  167.188
 4.8196  28105.3  168.086
 4.8616  27344  165.275
 4.9036  27296.1  164.874
 4.9456  27075.6  164.854
 4.9876  26473.8  162.918
 5.0296  26596.3  163.129
 5.0716  26494.4  163.573
 5.1136  26853.6  164.397
 5.1556  26918.2  164.044
 5.1976  27597.7  166.108
 5.2396  27490.7  165.474
 5.2816  27542.5  166.102
 5.3236  27556.9  165.831
 5.3656  27102.5  165.4
 5.4076  26759.6  164.487
 5.4496  26863.1  164.299
 5.4916  26944.2  164.302
 5.5336  26783.6  163.82
 5.5756  27030.5  164.585
 5.6176  27024.4  164.003
 5.6596  27195  165.521
 5.7016  27433.8  165.5
 5.7436  27569.9  166.188
 5.7856  27284.5  165.393
 5.8276  27581.9  165.997
 5.8696  27949.5  167.278
 5.9116  27777.8  167.369
 5.9536  28156  168.249
 5.9956  28174.2  167.685
 6.0376  28339.5  168.799
 6.0796  28441.2  168.938
 6.1216  28330.4  168.797
 6.1636  28735.6  169.061
 6.2056  28543  169.168
 6.2476  28627  169.29
 6.2896  29174.8  170.574
 6.3316  29170.8  170.744
 6.3736  29106.1  170.444
 6.4156  29380.5  171.138
 6.4576  29555.2  171.258
 6.4996  29343.8  171.111
 6.5416  29597.4  171.984
 6.5836  29530.3  172.028
 6.6256  29575.1  171.722
 6.6676  30289.7  173.347
 6.7096  30300.2  174.251
 6.7516  30504.7  174.48
 6.7936  30706.6  174.457
 6.8356  30999.1  175.382
 6.8776  31062.6  176.369
 6.9196  30932.2  176.41
 6.9616  31315.6  176.923
 7.0036  32068.8  178.701
 7.0456  32067.7  177.99
 7.0876  31978.7  179.446
 7.1296  31762  177.962
 7.1716  31823.6  177.678
 7.2136  31694.2  177.089
 7.2556  31913.6  177.86
 7.2976  31780.5  177.987
 7.3396  31732.4  178.063
 7.3816  31817.8  178.532
 7.4236  32204.8  178.9
 7.4656  32295.4  178.607
 7.5076  32312.5  178.813
 7.5496  32204.1  179.05
 7.5916  32259.4  179.248
 7.6336  32822  180.695
 7.6756  32826.2  180.555
 7.7176  33454.8  182.595
 7.7596  33071.4  182.774
 7.8016  33782.4  186.991
 7.8436  33491.8  182.807
 7.8856  33634  182.809
 7.9276  34227.4  184.815
 7.9696  34311.8  185.341
 8.0116  35238.6  186.381
 8.0536  35621.4  187.643
 8.0956  35488.1  188.462
 8.1376  35736.6  188.599
 8.1796  36393.7  190.861
 8.2216  37050.9  191.32
 8.2636  36837.7  191.017
 8.3056  36744.8  191.547
 8.3476  37409.2  192.595
 8.3896  37180.4  192.082
 8.4316  37494  193.059
 8.4736  37529.4  192.617
 8.5156  37066.7  191.704
 8.5576  36910.4  192.263
 8.5996  36714  190.635
 8.6416  36844.8  192.229
 8.6836  36475.9  191.104
 8.7256  37101  192.173
 8.7676  36886.8  194.554
 8.8096  37364.1  193.111
 8.8516  37025.6  191.808
 8.8936  36787.9  191.141
 8.9356  36997.5  192.019
 8.9776  37132.4  192.446
 9.0196  37072.1  191.963
 9.0616  36825.7  190.82
 9.1036  36263.3  190.526
 9.1456  36114.5  189.46
 9.1876  36221.2  189.697
 9.2296  35867  188.192
 9.2716  35706.6  187.811
 9.3136  35925.3  188.386
 9.3556  36082.7  188.773
 9.3976  35259.8  187.133
 9.4396  35121.9  186.662
 9.4816  35205.7  186.747
 9.5236  34659.6  185.186
 9.5656  34668  185.567
 9.6076  33806.6  183.767
 9.6496  34135.8  184.555
 9.6916  33897.5  183.861
 9.7336  34147.2  184.311
 9.7756  33819.6  184.689
 9.8176  33738.2  183.979
 9.8596  33496.4  181.754
 9.9016  33140.1  180.774
 9.9436  32973.9  180.228
 9.9856  32506.6  179.224
 10.0276  32248.2  179.589
 10.0696  32113.1  178.243
 10.1116  31416.3  176.566
 10.1536  31343.2  176.501
 10.1956  30790.1  174.572
 10.2376  30953.8  174.548
 10.2796  30779.6  174.158
 10.3216  30432.3  173.461
 10.3636  30208.5  172.847
 10.4056  29373.3  170.837
 10.4476  29599  171.109
 10.4896  29992.1  171.682
 10.5316  29245.4  170.263
 10.5736  29016.2  170.002
 10.6156  28964.2  169.615
 10.6576  28876  167.916
 10.6996  28335.2  167.032
 10.7416  28367.2  167.341
 10.7836  27765.9  166.217
 10.8256  27539  165.974
 10.8676  27453.2  165.244
 10.9096  27193.3  164.514
 10.9516  27120.4  163.233
 10.9936  27103.9  163.391
 11.0356  26881.8  163.327
 11.0776  26815.7  162.457
 11.1196  26325.8  161.729
 11.1616  26036.5  160.506
 11.2036  26407.2  161.498
 11.2456  26045.4  161.091
 11.2876  26607.4  162.549
 11.3296  25758  159.846
 11.3716  26435.5  161.624
 11.4136  26281  162.03
 11.4556  26436.8  162.166
 11.4976  26843  162.393
 11.5396  27197.7  163.624
 11.5816  27560.3  165.172
 11.6236  26743.3  162.936
 11.6656  26585.4  161.609
 11.7076  25849.9  160.188
 11.7496  25575.2  163.369
 11.7916  25393.6  158.023
 11.8336  24918.6  157.429
 11.8756  24743.5  156.421
 11.9176  25103.9  157.222
 11.9596  25072  157.31
 12.0016  24475.3  156.186
 12.0436  24891.9  156.963
 12.0856  24315.4  155.63
 12.1276  24227.7  155.299
 12.1696  24117.5  154.063
 12.2116  24296.4  154.629
 12.2536  24028.9  154.599
 12.2956  23846.9  153.352
 12.3376  24098.9  154.376
 12.3796  24149.5  155.015
 12.4216  24022.3  153.802
 12.4636  23723.9  153.773
 12.5056  23640.2  152.773
 12.5476  24154.8  153.942
 12.5896  23766.6  153.338
 12.6316  23945.3  154.077
 12.6736  23596.6  153.432
 12.7156  23984.5  154.529
 12.7576  23973  154.741
 12.7996  24268.7  154.318
 12.8416  23671  153.468
 12.8836  24061.9  154.55
 12.9256  24453.4  154.836
 12.9676  24299.1  154.744
 13.0096  24659.8  157.027
 13.0516  24547.4  155.686
 13.0936  24808.5  156.928
 13.1356  24789  155.823
 13.1776  24544  156.068
 13.2196  24686.7  156.159
 13.2616  24411.2  155.597
 13.3036  24666  156.373
 13.3456  24292.5  155.528
 13.3876  24797.2  156.424
 13.4296  24436.8  155.441
 13.4716  24547.7  155.419
 13.5136  24471.5  155.308
 13.5556  24455.2  155.88
 13.5976  24802.6  157.159
 13.6396  24636.4  155.985
 13.6816  24619.7  156.407
 13.7236  25162.6  157.701
 13.7656  26361.9  161.895
 13.8076  27303.8  163.352
 13.8496  26995.9  163.12
 13.8916  24825.3  157.572
 13.9336  24255.5  155.019
 13.9756  24165.3  154.123
 14.0176  23993.7  154.252
 14.0596  23910  153.917
 14.1016  23983.9  154.577
 14.1436  23821.1  153.182
 14.1856  23344.8  151.935
 14.2276  23333.7  152.393
 14.2696  23251.1  151.967
 14.3116  22808.8  150.415
 14.3536  22582.5  149.833
 14.3956  22518.6  149.343
 14.4376  22976.5  150.643
 14.4796  22712.5  149.775
 14.5216  22185.5  148.817
 14.5636  22126.5  148.19
 14.6056  22350.3  148.499
 14.6476  22120.6  146.972
 14.6896  21814  146.492
 14.7316  21590.1  146.779
 14.7736  21380.7  145.202
 14.8156  21060.8  144.137
 14.8576  21134.1  144.248
 14.8996  20647  143.76
 14.9416  20316.3  142.629
 14.9836  20423.4  142.982
 15.0256  19991.8  140.366
 15.0676  19677.4  139.567
 15.1096  19816.8  139.801
 15.1516  19459.9  139.085
 15.1936  19333.1  138.068
 15.2356  19056.6  137.353
 15.2776  19170.3  137.352
 15.3196  18628.8  136.383
 15.3616  18526.1  135.769
 15.4036  18311.1  134.839
 15.4456  18691.1  135.88
 15.4876  18462.7  134.734
 15.5296  18410.9  134.829
 15.5716  18073.1  133.194
 15.6136  17965.9  133.118
 15.6556  17927.7  132.229
 15.6976  17826.8  132.147
 15.7396  17865.8  132.677
 15.7816  17715  131.634
 15.8236  17400  131.145
 15.8656  17697.6  132.052
 15.9076  17350.1  130.57
 15.9496  18056.3  136.054
 15.9916  17553.4  134.557
 16.0336  17963.9  132.963
 16.0756  17682.7  132.227
 16.1176  17412.7  131.303
 16.1596  17063.5  131.152
 16.2016  17039.8  129.816
 16.2436  17097.4  130.428
 16.2856  16910.8  129.206
 16.3276  16893.7  129.593
 16.3696  16985.3  129.778
 16.4116  16515.6  128.402
 16.4536  16714  128.987
 16.4956  16793.9  129.032
 16.5376  16608.8  128.505
 16.5796  16586.8  127.787
 16.6216  16688.4  128.451
 16.6636  16341.3  127.293
 16.7056  16502.1  127.775
 16.7476  16669.7  127.944
 16.7896  16370.4  127.533
 16.8316  16425.2  127.734
 16.8736  16707.4  129.087
 16.9156  16496.6  128.594
 16.9576  16440.2  129.161
 16.9996  16410.3  129.511
 17.0416  16600.5  128.631
 17.0836  16728.7  128.89
 17.1256  16189.6  126.803
 17.1676  16333.3  127.315
 17.2096  16102.7  126.325
 17.2516  16047.9  125.895
 17.2936  16018.9  126.132
 17.3356  15881.2  125.578
 17.3776  15533.5  124.38
 17.4196  15703.7  124.748
 17.4616  15687.8  124.6
 17.5036  15259  123.241
 17.5456  15238.9  123.8
 17.5876  15322.1  123.174
 17.6296  15299.7  122.922
 17.6716  15318.1  123.58
 17.7136  15208.5  123.273
 17.7556  15066.7  122.981
 17.7976  14923.2  122.125
 17.8396  14846.9  121.328
 17.8816  14837.3  121.843
 17.9236  14939.8  122.057
 17.9656  14611.3  121.222
 18.0076  14777.4  121.505
 18.0496  14658  120.152
 18.0916  14557.6  120.29
 18.1336  14710.3  121.012
 18.1756  14773.5  120.824
 18.2176  14409.5  119.53
 18.2596  14372.8  119.11
 18.3016  14453.1  119.705
 18.3436  14472.4  119.783
 18.3856  14425  119.733
 18.4276  14442  119.482
 18.4696  14337.6  119.133
 18.5116  14406.4  119.685
 18.5536  14443  120.202
 18.5956  14185.4  118.69
 18.6376  14144.7  118.91
 18.6796  14197.3  118.462
 18.7216  14206.3  118.99
 18.7636  14223  119.059
 18.8056  14104.4  118.48
 18.8476  13822.5  117.919
 18.8896  14068.8  118.302
 18.9316  14125.1  118.519
 18.9736  14129.9  118.241
 19.0156  13860.6  117.518
 19.0576  14257  118.031
 19.0996  14257.1  118.756
 19.1416  14009.4  118.116
 19.1836  14010.6  117.718
 19.2256  13867.4  117.339
 19.2676  14064.9  118.254
 19.3096  13948.7  118.009
 19.3516  13985.6  118.126
 19.3936  13965.5  117.929
 19.4356  14225.1  118.911
 19.4776  13924.3  117.732
 19.5196  14015.1  117.975
 19.5616  13820.8  117.41
 19.6036  13896.7  117.232
 19.6456  13863.5  117.198
 19.6876  13814.3  116.623
 19.7296  13972.7  117.765
 19.7716  13758.5  117.027
 19.8136  14185  119.033
 19.8556  14166.7  118.431
 19.8976  14140  118.381
 19.9396  14445.8  119.233
 19.9816  14361.8  119.138
 20.0236  14777.9  121.048
 20.0656  14859  121.378
 20.1076  15019.7  122.53
 20.1496  14767.6  121.482
 20.1916  14578.7  120.223
 20.2336  14277.8  118.893
 20.2756  13926.2  117.857
 20.3176  13871.9  117.372
 20.3596  13654.1  116.432
 20.4016  13743.1  116.61
 20.4436  13554.8  116.365
 20.4856  13636.8  116.515
 20.5276  13400.5  115.963
 20.5696  13688.6  116.634
 20.6116  13273.4  115.138
 20.6536  13357.3  115.016
 20.6956  13382.8  115.255
 20.7376  13141.5  114.422
 20.7796  13123.5  114.034
 20.8216  13316.6  114.576
 20.8636  13299.2  114.89
 20.9056  13109.9  114.003
 20.9476  13191.4  114.209
 20.9896  13315.6  114.603
 21.0316  13183.9  113.935
 21.0736  13141.4  114.271
 21.1156  12963.9  113.655
 21.1576  13128.6  114.418
 21.1996  12912.9  113.46
 21.2416  13066.6  113.963
 21.2836  13087.5  114.021
 21.3256  13046.1  113.922
 21.3676  13172.7  113.996
 21.4096  12862.5  112.973
 21.4516  12786  112.51
 21.4936  12663.2  112.227
 21.5356  12933.4  113.37
 21.5776  12958.5  113.307
 21.6196  12737.1  112.379
 21.6616  12685.7  112.233
 21.7036  12865.4  112.794
 21.7456  12954  113.261
 21.7876  12790.4  112.303
 21.8296  12682.1  111.677
 21.8716  12807.3  112.454
 21.9136  12842.3  112.813
 21.9556  12640.8  111.6
 21.9976  12661.6  111.714
 22.0396  12780.7  112.497
 22.0816  12538.5  111.956
 22.1236  12803.2  112.583
 22.1656  12565.6  111.678
 22.2076  12405  110.415
 22.2496  12467.5  110.719
 22.2916  12376.7  110.201
 22.3336  12384.8  110.952
 22.3756  12489.8  111.144
 22.4176  12326  110.272
 22.4596  12122.3  109.939
 22.5016  12417  110.767
 22.5436  12395  110.55
 22.5856  12591.6  111.661
 22.6276  12753.8  112.516
 22.6696  12555.3  111.997
 22.7116  12362.8  110.645
 22.7536  12497.3  111.224
 22.7956  12505.6  110.593
 22.8376  12194.7  109.729
 22.8796  12280  109.911
 22.9216  12522  111.536
 22.9636  12309.3  109.744
 23.0056  12266.2  109.686
 23.0476  12321.8  110.495
 23.0896  12539.1  110.849
 23.1316  12458.6  110.926
 23.1736  12575.8  114.386
 23.2156  12838.3  112.949
 23.2576  12895.9  113.341
 23.2996  12805.2  112.709
 23.3416  12858.8  113.485
 23.3836  12851.2  112.675
 23.4256  12895.3  112.988
 23.4676  12602.9  111.386
 23.5096  12527.6  111.71
 23.5516  12327.2  110.123
 23.5936  12673.3  112.571
 23.6356  12839.2  112.966
 23.6776  12533.9  111.821
 23.7196  12382.2  110.731
 23.7616  12536.5  111.331
 23.8036  12733.4  112.261
 23.8456  12473.6  110.657
 23.8876  12450.9  110.923
 23.9296  12413.5  111.238
 23.9716  12336.7  110.1
 24.0136  12429.1  111.418
 24.0556  12358.6  110.819
 24.0976  12221.2  110.016
 24.1396  12100.9  112.087
 24.1816  12291.9  111.371
 24.2236  12303.2  111.042
 24.2656  12084.1  109.523
 24.3076  12060.7  109.688
 24.3496  12082.6  109.655
 24.3916  11946.2  109.1
 24.4336  11950.4  109.316
 24.4756  12062.6  109.714
 24.5176  12100.4  109.504
 24.5596  11902.8  108.727
 24.6016  11944.8  109.227
 24.6436  11932.3  108.677
 24.6856  11740.5  107.539
 24.7276  11607.8  107.25
 24.7696  11630.9  107.463
 24.8116  11556  107.301
 24.8536  11618.5  107.595
 24.8956  11637.2  107.414
 24.9376  11576.4  107.055
 24.9796  11423.4  106.713
 25.0216  11476.9  107.079
 25.0636  11435.9  106.534
 25.1056  11331.1  106.75
 25.1476  11345.6  108.459
 25.1896  11253.9  106.52
 25.2316  11174.7  105.429
 25.2736  11128.5  104.843
 25.3156  11176.6  105.164
 25.3576  11145.4  105.447
 25.3996  11175.8  105.583
 25.4416  11135.6  105.361
 25.4836  10980.5  105.146
 25.5256  10996.8  104.586
 25.5676  11075.6  104.685
 25.6096  11038  105.094
 25.6516  10970.2  104.27
 25.6936  11122  105.309
 25.7356  10942.6  104.588
 25.7776  10983.8  104.383
 25.8196  10817  103.817
 25.8616  10904.6  104.179
 25.9036  10962.2  103.909
 25.9456  10842.5  103.929
 25.9876  10772.2  103.656
 26.0296  11060.5  104.546
 26.0716  11066.6  105.012
 26.1136  10942  104.35
 26.1556  10792.4  103.021
 26.1976  10913.7  104.532
 26.2396  10856.5  103.404
 26.2816  10928.9  104.362
 26.3236  10920.4  104.474
 26.3656  11004  104.603
 26.4076  10882.8  104.224
 26.4496  11034.3  104.555
 26.4916  11113.2  104.815
 26.5336  11419.7  106.582
 26.5756  11618.8  107.393
 26.6176  10993.5  104.483
 26.6596  10804.6  103.88
 26.7016  10838.4  103.808
 26.7436  10828.2  103.905
 26.7856  10540.1  102.492
 26.8276  10625.4  102.871
 26.8696  10728.3  103.239
 26.9116  10501.9  102.078
 26.9536  10718.6  103.18
 26.9956  10422.4  101.776
 27.0376  10594.7  102.842
 27.0796  10562.5  102.404
 27.1216  10513.9  102.233
 27.1636  10378.1  101.736
 27.2056  10405.5  101.749
 27.2476  10360.5  101.531
 27.2896  10396.1  101.821
 27.3316  10331.8  101.224
 27.3736  10249.8  101.089
 27.4156  10373.4  101.538
 27.4576  10344.4  101.614
 27.4996  10373.6  101.367
 27.5416  10175.6  100.689
 27.5836  10262.1  100.963
 27.6256  10292.8  101.29
 27.6676  10282.7  101.229
 27.7096  10240.1  100.905
 27.7516  10165.2  100.676
 27.7936  10505.8  102.504
 27.8356  10370  101.456
 27.8776  10460  101.956
 27.9196  10173.1  100.406
 27.9616  10194.3  100.708
 28.0036  10101.9  100.211
 28.0456  9986.18  99.7661
 28.0876  10169.2  100.765
 28.1296  10106.2  100.28
 28.1716  10108.3  100.325
 28.2136  10037.9  99.9358
 28.2556  9971.07  99.7222
 28.2976  10006.6  99.8892
 28.3396  9924.24  99.2344
 28.3816  9983.22  99.5228
 28.4236  9906.3  99.3054
 28.4656  9816.84  98.8928
 28.5076  9997.92  99.4459
 28.5496  10038.5  99.9061
 28.5916  9983  99.4344
 28.6336  9930.6  99.5257
 28.6756  10023.9  99.179
 28.7176  9845.11  98.8449
 28.7596  9756.95  98.2999
 28.8016  9854.93  98.8161
 28.8436  9726.8  98.4178
 28.8856  9746.89  98.3741
 28.9276  9701.84  98.3861
 28.9696  9799.06  98.533
 29.0116  9571.09  97.57
 29.0536  9652.15  98.1903
 29.0956  9718.25  98.2242
 29.1376  9638.49  97.7898
 29.1796  9777.45  98.5465
 29.2216  9570.3  97.341
 29.2636  9816.13  98.6528
 29.3056  9678.32  97.7479
 29.3476  9737.67  98.5662
 29.3896  9706.33  98.5253
 29.4316  9682.27  97.7245
 29.4736  9499.34  96.8607
 29.5156  9608.76  97.3419
 29.5576  9450.92  97.2662
 29.5996  9385.93  96.2027
 29.6416  9423.31  96.5065
 29.6836  9502.58  96.8452
 29.7256  9539.73  97.5976
 29.7676  9526.14  97.1898
 29.8096  9393.7  96.4558
 29.8516  9259.92  96.0966
 29.8936  9462.29  97.2312
 29.9356  9468.84  97.021
 29.9776  9325.19  96.4283
 30.0196  9460.34  96.5097
 30.0616  9261.99  95.8715
 30.1036  9327.34  96.0298
 30.1456  9340.81  96.3404
 30.1876  9319.35  96.2041
 30.2296  9248.04  95.7886
 30.2716  9383.11  96.123
 30.3136  9455.66  97.3495
 30.3556  9420.99  97.1847
 30.3976  9386.51  98.4865
 30.4396  9751.92  97.7342
 30.4816  9470.32  95.9078
 30.5236  9647.64  96.7838
 30.5656  9380.78  96.1235
 30.6076  9536.38  96.3093
 30.6496  9500.95  96.5506
 30.6916  9308.6  95.6506
 30.7336  9363.55  96.0799
 30.7756  9523.26  96.9966
 30.8176  9575.31  97.1695
 30.8596  9553.1  96.8012
 30.9016  9495.12  96.8736
 30.9436  9629.03  97.2934
 30.9856  9591.14  97.2347
 31.0276  9430.36  96.0344
 31.0696  9323.44  96.0462
 31.1116  9292.7  95.8562
 31.1536  9322.04  95.8792
 31.1956  9206.07  95.3781
 31.2376  9139.31  95.0591
 31.2796  9200.25  94.9041
 31.3216  9380.84  95.7647
 31.3636  9382.15  96.4623
 31.4056  9375.81  97.7344
 31.4476  9427.09  95.9137
 31.4896  9519.02  96.8817
 31.5316  9280.39  95.0643
 31.5736  9509.4  96.0603
 31.6156  9391.21  95.473
 31.6576  9504.42  96.1279
 31.6996  9489.81  95.7047
 31.7416  9232.03  95.4924
 31.7836  9393.23  95.3085
 31.8256  9390.27  95.5755
 31.8676  9319.37  95.1895
 31.9096  9240.62  95.1705
 31.9516  9144.81  94.8428
 31.9936  9081.84  94.319
 32.0356  9111.05  94.5262
 32.0776  9336.11  95.5934
 32.1196  9364.86  95.8406
 32.1616  9394.46  95.4398
 32.2036  9268.36  95.3145
 32.2456  9167.57  95.1704
 32.2876  9176.27  94.709
 32.3296  9070.08  94.127
 32.3716  9012.96  93.9401
 32.4136  8993.56  94.0387
 32.4556  9048.89  93.7136
 32.4976  8961.4  93.1773
 32.5396  9133.86  94.131
 32.5816  9050.58  93.8334
 32.6236  9123.66  94.2687
 32.6656  9130.71  94.8542
 32.7076  9078.55  94.2373
 32.7496  8981.12  93.4002
 32.7916  9008.87  93.5085
 32.8336  8960.35  93.3432
 32.8756  9124.47  93.9133
 32.9176  8805.17  92.7389
 32.9596  8906.43  93.3474
 33.0016  8877.32  92.9697
 33.0436  8950.74  93.525
 33.0856  8767.93  92.6595
 33.1276  8764.58  92.3733
 33.1696  9032.86  93.5977
 33.2116  8892.02  93.1012
 33.2536  9069.99  94.0171
 33.2956  8940.83  93.4401
 33.3376  8847  92.6867
 33.3796  8999.21  93.7019
 33.4216  8926.78  92.9084
 33.4636  8899.23  92.9214
 33.5056  8844.39  92.8746
 33.5476  8867.34  92.9775
 33.5896  8952.7  93.2135
 33.6316  8871.34  93.1076
 33.6736  8686.09  92.3728
 33.7156  8803.05  93.0201
 33.7576  8716.32  92.2086
 33.7996  8883.7  92.8464
 33.8416  8728.98  92.2249
 33.8836  8735.15  92.0274
 33.9256  8829.69  92.5899
 33.9676  8792.43  92.2842
 34.0096  8637.74  91.7834
 34.0516  8601.06  91.2291
 34.0936  8728.75  92.1772
 34.1356  8833.42  92.4612
 34.1776  8575.29  91.099
 34.2196  8708.81  91.9934
 34.2616  8604.24  91.5727
 34.3036  8678.27  92.2193
 34.3456  8587.15  91.4807
 34.3876  8696.23  92.0341
 34.4296  8653.03  91.4967
 34.4716  8751.82  92.1713
 34.5136  8572.78  91.4107
 34.5556  8492.77  91.2402
 34.5976  8706.91  92.1913
 34.6396  8682.06  91.7742
 34.6816  8724.39  92.1082
 34.7236  8744.79  91.9804
 34.7656  8648.83  91.6914
 34.8076  8488.66  91.1651
 34.8496  8516.79  91.164
 34.8916  8547.85  91.1983
 34.9336  8563.65  91.2567
 34.9756  8611.8  91.44
 35.0176  8629.63  92.0619
 35.0596  8796.97  92.7758
 35.1016  8721.92  92.131
 35.1436  8967.54  93.088
 35.1856  8704.71  91.8403
 35.2276  8585.12  91.3838
 35.2696  8681.82  92.0922
 35.3116  8467.83  91.0498
 35.3536  8533.85  91.1159
 35.3956  8581.47  91.0731
 35.4376  8592.5  91.7066
 35.4796  8619.32  91.8878
 35.5216  8578.95  91.6411
 35.5636  8330.35  91.043
 35.6056  8477.1  90.8554
 35.6476  8522.1  90.9965
 35.6896  8428.4  90.588
 35.7316  8367.52  90.2327
 35.7736  8478.59  91.0202
 35.8156  8540.69  91.3523
 35.8576  8534.83  91.5552
 35.8996  8471.58  91.2006
 35.9416  8392.6  90.2794
 35.9836  8421.09  90.7738
 36.0256  8623.25  91.88
 36.0676  8621.51  91.6104
 36.1096  8466.58  90.9369
 36.1516  8469.91  90.8484
 36.1936  8544.59  91.0752
 36.2356  8481.93  91.4022
 36.2776  8327.42  90.0517
 36.3196  8361.52  89.9025
 36.3616  8334.18  89.8857
 36.4036  8394.69  90.2804
 36.4456  8480.6  90.9422
 36.4876  8209.74  89.4278
 36.5296  8367.01  90.3159
 36.5716  8207.27  90.2245
 36.6136  8202.72  88.983
 36.6556  8133.38  88.802
 36.6976  8100.04  89.1099
 36.7396  8117.42  88.9338
 36.7816  8107.76  89.2582
 36.8236  8250.96  89.9654
 36.8656  8143.4  89.4512
 36.9076  8018.24  88.6386
 36.9496  8111.13  89.1433
 36.9916  8027.51  88.31
 37.0336  8104.05  89.0502
 37.0756  8150.96  89.0976
 37.1176  7917.02  88.074
 37.1596  8069.91  88.9218
 37.2016  8002.15  88.7754
 37.2436  8158.64  88.9581
 37.2856  7980.34  88.2212
 37.3276  8062.19  88.0415
 37.3696  8035.87  88.7738
 37.4116  8048.58  88.7537
 37.4536  7940.76  88.0249
 37.4956  7972.31  88.2324
 37.5376  8197.83  91.0889
 37.5796  8076.42  90.3343
 37.6216  8050.2  88.4666
 37.6636  8154.46  88.932
 37.7056  8118.27  88.9142
 37.7476  8170.59  88.7477
 37.7896  8005.48  88.3495
 37.8316  8023.45  88.5878
 37.8736  8072.84  88.4054
 37.9156  8041.56  88.2197
 37.9576  8245.77  89.2507
 37.9996  7866.24  86.8797
 38.0416  7901.93  87.8726
 38.0836  8125.34  89.0209
 38.1256  7951.86  88.0398
 38.1676  7913.01  87.9453
 38.2096  8003.47  88.0557
 38.2516  8098.15  88.7934
 38.2936  8161.39  88.9362
 38.3356  7953.02  87.7263
 38.3776  7885.42  87.6018
 38.4196  7979.58  87.9803
 38.4616  7957.22  88.1053
 38.5036  8192.67  89.235
 38.5456  7908.33  88.4945
 38.5876  7891.56  88.4207
 38.6296  7953.21  87.7406
 38.6716  7971.31  87.6499
 38.7136  7904.2  87.2202
 38.7556  7917.25  87.7932
 38.7976  7969.76  88.0021
 38.8396  7978.64  88.5204
 38.8816  7964.72  88.2415
 38.9236  8008.03  88.2771
 38.9656  7972.14  87.9798
 39.0076  8071.54  87.9472
 39.0496  8214.78  89.2833
 39.0916  8094.48  88.265
 39.1336  8023.47  88.283
 39.1756  8043.13  88.4612
 39.2176  7846.06  87.8951
 39.2596  8016.87  88.7744
 39.3016  7911.47  87.7756
 39.3436  7885.08  88.0361
 39.3856  8077.63  88.5379
 39.4276  7978.66  88.5148
 39.4696  7956.25  88.0059
 39.5116  8058.33  89.0948
 39.5536  8012.62  89.2425
 39.5956  8010.78  88.3426
 39.6376  7913.95  87.8102
 39.6796  7878.08  87.3477
 39.7216  7828.47  87.1821
 39.7636  7858.99  87.9134
 39.8056  7979.61  88.3716
 39.8476  7828.58  87.7843
 39.8896  7905.44  87.8491
 39.9316  7817.55  87.6031
 39.9736  8044.9  88.4329
 40.0156  7824.75  87.0509
 40.0576  7942.74  88.0507
 40.0996  7973.71  87.414
 40.1416  7875.78  87.6623
 40.1836  7981.51  88.1422
 40.2256  7970.22  88.1115
 40.2676  7891.4  87.7867
 40.3096  7851  87.488
 40.3516  8015.96  88.5081
 40.3936  8059.68  88.2981
 40.4356  7907.24  87.6679
 40.4776  8041.25  88.808
 40.5196  8009.73  88.7666
 40.5616  8029.67  88.5162
 40.6036  7939.71  88.28
 40.6456  7930.07  87.8293
 40.6876  8032.37  88.3935
 40.7296  7918.86  87.8984
 40.7716  7952.8  88.1969
 40.8136  7948.48  88.1212
 40.8556  8077.13  88.976
 40.8976  8077.88  88.9008
 40.9396  8005.01  88.8451
 40.9816  7928.02  87.7092
 41.0236  8002.6  87.9062
 41.0656  7944.49  88.1164
 41.1076  8071.43  88.5916
 41.1496  8058.19  88.4206
 41.1916  7973.92  88.2759
 41.2336  7932.46  88.0551
 41.2756  7816.89  87.0131
 41.3176  8049.71  88.9029
 41.3596  8067.41  88.7475
 41.4016  7920.6  88.1968
 41.4436  7993.53  88.3816
 41.4856  7913.69  88.1014
 41.5276  7907.97  88.092
 41.5696  7949.86  87.9498
 41.6116  7927.03  88.2205
 41.6536  8013.24  88.543
 41.6956  8047.7  88.806
 41.7376  7910.27  88.0613
 41.7796  7883.01  87.7996
 41.8216  7937.77  88.3278
 41.8636  7973.67  88.4766
 41.9056  7806.83  87.3391
 41.9476  7901.19  88.1033
 41.9896  7987.31  88.2434
 42.0316  8038.32  88.6156
 42.0736  8000.7  88.5119
 42.1156  7876.72  87.653
 42.1576  7930.08  88.0585
 42.1996  8050.6  88.8485
 42.2416  7955.31  87.9157
 42.2836  7832.42  87.3548
 42.3256  7910.29  87.9001
 42.3676  8016.14  88.2826
 42.4096  8000.78  88.1691
 42.4516  8023.2  88.3711
 42.4936  7758.57  86.9681
 42.5356  7832.21  87.5168
 42.5776  7963.78  88.1932
 42.6196  7953.89  88.183
 42.6616  7827.44  87.6594
 42.7036  7901.82  87.455
 42.7456  7891.36  87.7605
 42.7876  7812.37  87.4011
 42.8296  7926.06  87.8752
 42.8716  7847.53  87.6034
 42.9136  7770.41  86.9575
 42.9556  7928.75  87.9724
 42.9976  7818.28  87.326
 43.0396  7917.68  87.6103
 43.0816  7788.05  87.2737
 43.1236  7931.99  88.1273
 43.1656  7825.18  87.3608
 43.2076  7794.99  87.2947
 43.2496  7830.83  87.3188
 43.2916  7822.49  87.6367
 43.3336  7816.53  87.43
 43.3756  7838.42  87.3089
 43.4176  7753.47  86.9206
 43.4596  7808.95  87.0871
 43.5016  7732.16  87.0504
 43.5436  7657.28  86.5432
 43.5856  7712.81  86.8827
 43.6276  7766.49  87.0724
 43.6696  7743.17  87.1899
 43.7116  7729.75  86.6252
 43.7536  7884.04  87.9851
 43.7956  7715.95  88.2612
 43.8376  7655.86  86.4264
 43.8796  7538.86  85.846
 43.9216  7680.21  86.5626
 43.9636  7663.3  86.5817
 44.0056  7575.06  86.3098
 44.0476  7545.91  85.7774
 44.0896  7556.8  86.178
 44.1316  7628.25  86.1064
 44.1736  7588.86  86.0119
 44.2156  7715.6  86.5734
 44.2576  7663.31  86.6121
 44.2996  7674.64  86.6466
 44.3416  7590.46  85.923
 44.3836  7458.2  85.5046
 44.4256  7528.66  85.5531
 44.4676  7529.29  85.7114
 44.5096  7612  86.3261
 44.5516  7562.43  86.0103
 44.5936  7455.64  85.3514
 44.6356  7576.65  85.7793
 44.6776  7527.28  85.8118
 44.7196  7569.97  86.3678
 44.7616  7580.09  87.7553
 44.8036  7655.59  86.6165
 44.8456  7627  86.6602
 44.8876  7692.25  86.8743
 44.9296  7713.84  86.4331
 44.9716  7689.55  86.7415
 45.0136  7738.5  86.9431
 45.0556  7789.46  87.2173
 45.0976  7541.07  85.9696
 45.1396  7635.67  86.2559
 45.1816  7571.71  85.8267
 45.2236  7653.86  86.2067
 45.2656  7715.51  87.0529
 45.3076  7616.71  86.2697
 45.3496  7535.91  86.1263
 45.3916  7588.75  86.7028
 45.4336  7657.42  86.937
 45.4756  7478.14  85.7593
 45.5176  7705.98  86.6764
 45.5596  7590.45  86.1369
 45.6016  7580.38  86.5117
 45.6436  7831.33  87.0865
 45.6856  7612.73  86.5272
 45.7276  7370.65  86.4461
 45.7696  7383.75  86.1985
 45.8116  7515.03  86.3811
 45.8536  7510.07  86.2509
 45.8956  7578.16  85.9846
 45.9376  7659.81  85.9127
 45.9796  7562.46  86.054
 46.0216  7547  86.2998
 46.0636  7730.91  86.484
 46.1056  7701.22  86.3099
 46.1476  7578.37  86.2101
 46.1896  7550.26  86.2048
 46.2316  7532.93  85.9615
 46.2736  7463.2  85.9486
 46.3156  7436.18  85.3712
 46.3576  7528.36  86.109
 46.3996  7646.46  86.9468
 46.4416  7638.01  86.4613
 46.4836  7459.65  85.7997
 46.5256  7653.07  86.8463
 46.5676  7441.74  85.7563
 46.6096  7555.93  86.338
 46.6516  7604.38  85.6502
 46.6936  7674.77  86.5528
 46.7356  7688.18  86.7262
 46.7776  7526.25  86.6707
 46.8196  7473.35  85.9541
 46.8616  7387.94  85.408
 46.9036  7357.59  84.8893
 46.9456  7439.4  84.998
 46.9876  7522.2  85.5415
 47.0296  7459.52  85.8856
 47.0716  7441  85.6067
 47.1136  7503.37  85.6382
 47.1556  7493.64  85.4475
 47.1976  7558.44  85.905
 47.2396  7523.85  86.1097
 47.2816  7500.09  85.6652
 47.3236  7382.98  85.3698
 47.3656  7426.35  85.5472
 47.4076  7404.59  85.2177
 47.4496  7378.53  85.1725
 47.4916  7484.34  85.9659
 47.5336  7527.42  86.0259
 47.5756  7564.62  86.3561
 47.6176  7335.64  84.9429
 47.6596  7375.33  84.8805
 47.7016  7562.28  85.7533
 47.7436  7452.78  85.472
 47.7856  7520.32  85.901
 47.8276  7336.99  84.8944
 47.8696  7367.18  85.1534
 47.9116  7534.56  85.8256
 47.9536  7438.54  85.2139
 47.9956  7284.28  85.0411
 48.0376  7330.21  85.0765
 48.0796  7407.33  85.656
 48.1216  7366.49  85.2337
 48.1636  7535.18  85.7748
 48.2056  7417.85  85.3715
 48.2476  7467.32  85.9702
 48.2896  7512.54  86.1333
 48.3316  7359.62  85.1953
 48.3736  7360.5  85.2176
 48.4156  7376.61  85.1625
 48.4576  7403.93  85.6244
 48.4996  7483.19  85.522
 48.5416  7526.92  86.109
 48.5836  7269.24  84.2955
 48.6256  7404.91  85.286
 48.6676  7420.23  85.8977
 48.7096  7438.82  85.2635
 48.7516  7347.2  84.8862
 48.7936  7277.53  84.5423
 48.8356  7355.02  85.0465
 48.8776  7374.88  85.7337
 48.9196  7514.76  85.8966
 48.9616  7385.64  85.5536
 49.0036  7399.06  85.9847
 49.0456  7434.73  86.1728
 49.0876  7391.38  85.4464
 49.1296  7192.94  84.4587
 49.1716  7295.57  84.9225
 49.2136  7425.75  85.5993
 49.2556  7383.5  85.3956
 49.2976  7362.91  85.3371
 49.3396  7203.5  84.4685
 49.3816  7536.46  85.8202
 49.4236  7245.67  84.5668
 49.4656  7355.9  85.2317
 49.5076  7352.57  84.9549
 49.5496  7360.08  85.0628
 49.5916  7330.79  84.8099
 49.6336  7418.32  85.5138
 49.6756  7380.09  85.5375
 49.7176  7405.78  85.6297
 49.7596  7326.32  84.9348
 49.8016  7394.72  85.2423
 49.8436  7222.39  84.5418
 49.8856  7258.33  84.7605
 49.9276  7248.71  84.799
 49.9696  7244.45  84.7658
 50.0116  7324.62  85.3708
 50.0536  7397.34  85.7348
 50.0956  7300.8  85.2438
 50.1376  7286.17  84.8567
 50.1796  7369.77  85.6112
 50.2216  7322.53  85.3334
 50.2636  7234.63  84.4345
 50.3056  7176.01  84.2661
 50.3476  7297.82  85.0068
 50.3896  7158.61  84.1592
 50.4316  7307.21  84.8568
 50.4736  7320.86  85.1562
 50.5156  7320.64  85.1489
 50.5576  7400.29  85.3601
 50.5996  7254.88  84.8119
 50.6416  7205.63  84.4398
 50.6836  7255.85  84.7968
 50.7256  7323.43  85.1165
 50.7676  7379.65  85.7699
 50.8096  7282.32  84.7335
 50.8516  7241.69  84.9141
 50.8936  7220.45  84.5771
 50.9356  7232.42  84.7505
 50.9776  7220.91  84.8445
 51.0196  6997.34  83.6436
 51.0616  7135.68  83.7749
 51.1036  7082.58  83.8259
 51.1456  7157.53  84.1746
 51.1876  7011.83  82.6456
 51.2296  7087.07  83.7392
 51.2716  6999.7  82.9274
 51.3136  7097.43  83.9713
 51.3556  7054.06  83.3268
 51.3976  7055.04  83.4785
 51.4396  7038.09  83.7047
 51.4816  6979.69  83.2093
 51.5236  7165.6  84.3937
 51.5656  6982.28  82.8893
 51.6076  7111.8  83.7491
 51.6496  7004.92  83.3166
 51.6916  6962.7  83.4234
 51.7336  6949.78  83.4423
 51.7756  7203.74  84.632
 51.8176  7066.07  83.9303
 51.8596  6982.86  83.4582
 51.9016  7150.41  84.0489
 51.9436  7116.05  85.3749
 51.9856  7137.73  85.9257
 52.0276  7095.76  84.1303
 52.0696  7253.5  85.1366
 52.1116  6994.02  83.7279
 52.1536  7107.44  84.2831
 52.1956  7061.52  83.4617
 52.2376  7231.82  84.6455
 52.2796  7158.2  84.0241
 52.3216  6910.37  83.2497
 52.3636  7122.62  84.0657
 52.4056  6972.65  83.0523
 52.4476  7079.04  84.0542
 52.4896  6954.18  83.3544
 52.5316  7061.4  84.0519
 52.5736  6928.18  82.9576
 52.6156  7030.01  83.9832
 52.6576  7062.87  83.6014
 52.6996  6829.36  83.2002
 52.7416  6831.06  83.059
 52.7836  6937.28  83.5966
 52.8256  7044.36  83.4312
 52.8676  6962.74  83.5333
 52.9096  7028.3  84.0054
 52.9516  6965.97  84.0095
 52.9936  7036.91  84.827
 53.0356  7035.06  83.7851
 53.0776  7007.87  83.9057
 53.1196  7021.67  84.1151
 53.1616  6979.85  83.9187
 53.2036  6906.52  83.434
 53.2456  6939.18  83.7393
 53.2876  7044.63  84.0581
 53.3296  7054.01  84.4419
 53.3716  7101.58  84.4792
 53.4136  7108.22  84.6724
 53.4556  6955.9  83.7879
 53.4976  7041.56  84.1312
 53.5396  6887.98  83.6032
 53.5816  7068.96  84.3387
 53.6236  6975.43  84.1364
 53.6656  6997.93  83.8604
 53.7076  7065.56  84.2265
 53.7496  7074.67  84.4224
 53.7916  6973.14  83.9406
 53.8336  6969.52  83.8084
 53.8756  6810.5  83.4009
 53.9176  6875.85  83.1253
 53.9596  6662.03  82.6066
 54.0016  6624.45  81.692
 54.0436  6561.59  81.5332
 54.0856  6718.68  81.9281
 54.1276  6662.73  81.7701
 54.1696  6750.16  82.4695
 54.2116  6877.19  82.9906
 54.2536  6743.71  81.9801
 54.2956  6699.65  81.7662
 54.3376  6686.07  82.1837
 54.3796  6659.46  81.9018
 54.4216  6714.72  82.3217
 54.4636  6596.48  81.559
 54.5056  6678.35  81.8538
 54.5476  6732.04  82.5296
 54.5896  6678.52  82.0392
 54.6316  6696.58  81.9905
 54.6736  6708.1  82.1436
 54.7156  6613.29  81.5886
 54.7576  6546.71  81.1546
 54.7996  6658.63  82.012
 54.8416  6618.86  81.8159
 54.8836  6700.81  82.4269
 54.9256  6509.27  80.986
 54.9676  6459.29  80.5421
 55.0096  6589.7  81.3548
 55.0516  6490.49  80.9983
 55.0936  6619.88  81.4678
 55.1356  6537.03  80.9842
 55.1776  6693.4  82.2048
 55.2196  6643.76  81.6652
 55.2616  6721.14  82.3885
 55.3036  6546.78  81.4972
 55.3456  6483.74  81.2521
 55.3876  6571.7  81.5159
 55.4296  6445.97  80.712
 55.4716  6499.96  81.0708
 55.5136  6463.16  80.6051
 55.5556  6697.5  82.1228
 55.5976  6497.15  80.9639
 55.6396  6600.48  81.5414
 55.6816  6452.18  80.498
 55.7236  6311.72  79.6668
 55.7656  6508.34  80.6086
 55.8076  6464.65  80.3572
 55.8496  6486.22  80.7984
 55.8916  6387.94  80.4101
 55.9336  6623.57  81.7066
 55.9756  6412.65  80.2579
 56.0176  6349.16  79.9944
 56.0596  6313.91  79.7847
 56.1016  6338.37  79.9473
 56.1436  6378.92  80.481
 56.1856  6258.55  79.4466
 56.2276  6595.91  81.6164
 56.2696  6376.54  80.2234
 56.3116  6531.33  81.5731
 56.3536  6439.94  80.6565
 56.3956  6469.89  80.821
 56.4376  6407.81  80.5101
 56.4796  6280.18  79.5067
 56.5216  6357.7  80.366
 56.5636  6295.68  79.5574
 56.6056  6485.3  80.9799
 56.6476  6383.96  79.9419
 56.6896  6520.74  81.2825
 56.7316  6296.25  79.7722
 56.7736  6362.37  80.2045
 56.8156  6370.67  80.2705
 56.8576  6262.91  79.5179
 56.8996  6304  79.6779
 56.9416  6274.08  79.8113
 56.9836  6470.96  80.5741
 57.0256  6256.68  79.5445
 57.0676  6420.01  80.6758
 57.1096  6380.06  80.2175
 57.1516  6264.98  79.5448
 57.1936  6320.85  79.6599
 57.2356  6231.34  79.4207
 57.2776  6323.33  79.9697
 57.3196  6304.46  80.2034
 57.3616  6268.21  79.4675
 57.4036  6247.44  79.3864
 57.4456  6407.78  80.3797
 57.4876  6298.28  79.5679
 57.5296  6245.22  79.5476
 57.5716  6268.41  79.7133
 57.6136  6129.27  78.6496
 57.6556  6286.36  79.7783
 57.6976  6166.8  78.8508
 57.7396  6165.14  79.1862
 57.7816  6141.51  79.405
 57.8236  6219.32  79.6757
 57.8656  6322.54  80.0109
 57.9076  6233.81  79.4632
 57.9496  6126.62  79.1307
 57.9916  6238.8  79.3639
 58.0336  6181.54  79.2911
 58.0756  6251.49  79.3699
 58.1176  6131.65  78.5995
 58.1596  6224.5  79.7816
 58.2016  6050.37  77.8771
 58.2436  5970.09  77.764
 58.2856  5994.3  77.8441
 58.3276  6001.59  78.2574
 58.3696  6014.53  78.0915
 58.4116  6027.61  78.0459
 58.4536  6116.2  78.5017
 58.4956  5850.53  76.9557
 58.5376  6164.49  78.5632
 58.5796  5967.58  77.7164
 58.6216  6055.21  78.1067
 58.6636  6068.91  78.4041
 58.7056  5964.46  77.5836
 58.7476  6047.03  78.563
 58.7896  5955.83  77.6154
 58.8316  5999.39  77.8937
 58.8736  6109.85  78.6174
 58.9156  5867.94  77.0874
 58.9576  6049.67  78.5992
 58.9996  6002.09  77.5364
 59.0416  6054.34  78.2415
 59.0836  6056.55  78.1673
 59.1256  5919.05  77.9718
 59.1676  5971.13  78.6221
 59.2096  5810.49  76.8839
 59.2516  6004.23  77.7375
 59.2936  5903.77  77.4088
 59.3356  6014.16  78.0071
 59.3776  6015.79  78.1864
 59.4196  5827.77  76.8917
 59.4616  5848.45  76.8904
 59.5036  5857.54  76.9837
 59.5456  5944.05  77.2472
 59.5876  6110.23  78.5118
 59.6296  5862.95  76.9749
 59.6716  5858.21  77.0009
 59.7136  5849.1  76.9294
 59.7556  5946.9  77.7053
 59.7976  5899.03  77.1371
 59.8396  5969.71  77.4927
 59.8816  5885.41  77.4819
 59.9236  5882.49  77.1112
 59.9656  5913.21  77.5696
 60.0076  5945.43  77.1436
 60.0496  5930.46  77.5452
 60.0916  6006.42  77.4605
 60.1336  5813.46  77.2925
 60.1756  5778.53  78.2183
 60.1996  0.0000000E+00  0.0000000E+00