File: docs/examples/opeando_xrd/IS17_D/Data/IS17_D/17_Da_f00065.xye
# /beamlines/bl04/projects/cycle2025-II/20250340211-lsimonelli/DATA/IS17_D/17_Da_f00065.xye : mythproc.py merge -s 0.006 -l 0.5 -f /beamlines/bl04/inhouse/ff/FlatField/ff_20Nov2024rod8mm60s_17keV.raw -b True -c true -o xye /beamlines/bl04/projects/cycle2025-II/20250340211-lsimonelli/DATA/IS17_D/17_Da_00065.dat
# IsMon = [6790497, 6790942, 6789522]  IsPos = [-1.4999, -2.4885, -3.4988]
# Wave = 0.4962  CalPath /beamlines/bl04/projects/cycle2025-II/20250340211-lsimonelli/DATA/Align/Si_Pos1_25keV_f00001.cal
# Date = 2025-09-24_11:40:15 Dt = 4.8000  Bin = 0.0060  <imon> = 6790320 +/- 593 (Min/Max) 6789522 / 6790942
# icurr 252.4348  mocoIn 1.7228E-05  mocoOut 0.8079  i15 7.10649e+06  imon 6.79032e+06  i7 4.6667  iEMpd_timer 4.8000  iEMpd_1 3.2543E-08  iEMpd_2 7.8816E-08  iEMpd_3 1.6480E-08  iEMpd_4 4.7739E-08  iEMhp_timer 4.8000  iEMhp_1 4.9314E-06  iEMhp_2 -2.6341E-08  iEMhp_3 -2.4284E-08  iEMhp_4 -2.1420E-08
#      9776
 1.5856  40191.4  205.856
 1.6276  47335.8  219.571
 1.6696  54192.1  234.107
 1.7116  63072.3  253.055
 1.7536  72251.2  269.689
 1.7956  76683.1  278.532
 1.8376  72841.6  271.895
 1.8796  61361.6  247.708
 1.9216  48860.9  221.929
 1.9636  41448.9  203.566
 2.0056  37648.1  193.256
 2.0476  34734.3  187.662
 2.0896  33307.1  182.689
 2.1316  32314.8  179.082
 2.1736  30610.1  175.677
 2.2156  31109.4  175.683
 2.2576  30249.9  173.86
 2.2996  29090.5  171.121
 2.3416  29296.6  170.354
 2.3836  28581.4  168.367
 2.4256  27533.6  165.791
 2.4676  27337.7  164.965
 2.5096  27382  165.153
 2.5516  30126.5  177.235
 2.5936  68241.4  261.373
 2.6356  27964.1  168.021
 2.6776  26382.1  162.094
 2.7196  25593.1  160.16
 2.7616  25351.2  159.184
 2.8036  25194.8  158.862
 2.8456  25337.5  159.923
 2.8876  24838.6  158.192
 2.9296  24248.7  156.452
 2.9716  23956  155.004
 3.0136  23706.3  154.26
 3.0556  23610.4  154.334
 3.0976  23657.6  153.435
 3.1396  23591  153.927
 3.1816  23240.4  152.718
 3.2236  23136.4  152.381
 3.2656  23163.9  151.512
 3.3076  23160.3  152.945
 3.3496  23249.6  152.433
 3.3916  23637  153.279
 3.4336  24254.2  155.843
 3.4756  24528.1  156.648
 3.5176  25211.3  158.613
 3.5596  25234.4  161.107
 3.6016  25306.8  158.972
 3.6436  24474.5  157.425
 3.6856  24175  154.768
 3.7276  23238.7  152.822
 3.7696  23086.3  152.52
 3.8116  22704.8  151.133
 3.8536  22745.3  151.203
 3.8956  22819.3  151.278
 3.9376  22867.2  151.687
 3.9796  22729.7  150.741
 4.0216  22760.6  149.884
 4.0636  22612.5  150.864
 4.1056  22615.7  150.514
 4.1476  22844.4  151.586
 4.1896  23012.4  152.003
 4.2316  23083.2  152.067
 4.2736  23504.2  153.232
 4.3156  23951.9  154.916
 4.3576  24430.3  156.387
 4.3996  24829.7  157.907
 4.4416  25556.9  159.793
 4.4836  26270.1  162.156
 4.5256  26404.9  163.185
 4.5676  26406.2  163.446
 4.6096  26767.1  163.218
 4.6516  27265.2  164.437
 4.6936  27524.8  166.035
 4.7356  27841.5  166.816
 4.7776  27682.9  166.175
 4.8196  27266.6  165.563
 4.8616  26711.7  163.49
 4.9036  26436.7  162.258
 4.9456  26443.9  162.93
 4.9876  25825.2  160.915
 5.0296  25921.9  161.039
 5.0716  25926.6  161.682
 5.1136  26157.7  162.253
 5.1556  26648.2  163.231
 5.1976  30016.8  173.23
 5.2396  27180.6  164.54
 5.2816  26959.3  164.331
 5.3236  27138.5  164.581
 5.3656  26663.8  164.051
 5.4076  26334.9  163.19
 5.4496  26500.8  163.187
 5.4916  26734.3  163.664
 5.5336  26471.1  162.865
 5.5756  26292.8  162.342
 5.6176  26619.6  162.785
 5.6596  26713.5  164.038
 5.7016  26885.6  163.838
 5.7436  27120.1  164.827
 5.7856  27055.8  164.686
 5.8276  27252.4  165.011
 5.8696  27460.6  165.808
 5.9116  27197.2  165.614
 5.9536  27629.9  166.673
 5.9956  27852.4  166.71
 6.0376  28057.1  167.962
 6.0796  28180.4  168.163
 6.1216  28274.4  168.647
 6.1636  28450.1  168.23
 6.2056  28568.6  169.247
 6.2476  28756.8  169.678
 6.2896  28923.4  169.848
 6.3316  28751.7  169.516
 6.3736  28966.4  170.042
 6.4156  28945.8  169.877
 6.4576  29278.5  170.459
 6.4996  29361.4  171.182
 6.5416  29330.5  171.226
 6.5836  29588.7  172.213
 6.6256  29634.8  171.905
 6.6676  29867.1  172.147
 6.7096  29823.2  172.869
 6.7516  30150.5  173.473
 6.7936  30853.4  174.907
 6.8356  31373.8  176.455
 6.8776  31221.7  176.837
 6.9196  30842.2  176.157
 6.9616  31502  177.444
 7.0036  31957.8  178.402
 7.0456  31861.5  177.424
 7.0876  31691.1  178.642
 7.1296  31874  178.293
 7.1716  31709.1  177.365
 7.2136  31517.4  176.612
 7.2556  31869.7  177.756
 7.2976  31831  178.148
 7.3396  31758.5  178.158
 7.3816  31507.1  177.667
 7.4236  32035  178.438
 7.4656  32242.2  178.498
 7.5076  32517.6  179.393
 7.5496  32500  179.89
 7.5916  32538.7  180.021
 7.6336  32995.1  181.178
 7.6756  32911  180.798
 7.7176  33211.5  181.926
 7.7596  33259.1  183.312
 7.8016  35704.8  192.191
 7.8436  34458.5  185.45
 7.8856  34254.8  184.512
 7.9276  35247  187.567
 7.9696  35218.4  187.801
 8.0116  36171.3  188.849
 8.0536  36425.8  189.768
 8.0956  37135.7  192.801
 8.1376  36812.2  191.432
 8.1796  37047.3  192.589
 8.2216  37953.3  193.657
 8.2636  38479.7  195.245
 8.3056  37891.9  194.533
 8.3476  38986.7  196.637
 8.3896  38667.2  195.911
 8.4316  38443.1  195.507
 8.4736  38761  195.772
 8.5156  38160.6  194.523
 8.5576  37736.2  194.422
 8.5996  38149.2  194.338
 8.6416  37931.6  195.06
 8.6836  37775.7  194.487
 8.7256  38314.1  195.307
 8.7676  38743.8  199.369
 8.8096  38831.4  196.826
 8.8516  37537.6  193.138
 8.8936  38130.3  194.542
 8.9356  36990.7  191.947
 8.9776  37251.7  192.733
 9.0196  37150.3  192.14
 9.0616  37242.3  191.851
 9.1036  37555.9  193.867
 9.1456  36954.9  191.66
 9.1876  36657.5  190.836
 9.2296  36679.6  190.299
 9.2716  35816.5  188.1
 9.3136  35852  188.18
 9.3556  36233.8  189.155
 9.3976  34878.3  186.11
 9.4396  35337.9  187.237
 9.4816  34850.6  185.794
 9.5236  34801.7  185.579
 9.5656  34637.3  185.465
 9.6076  34355.4  185.25
 9.6496  34144.9  184.597
 9.6916  34237.7  184.824
 9.7336  34408.8  185.057
 9.7756  34483.1  186.614
 9.8176  33573.5  183.533
 9.8596  33448.2  181.628
 9.9016  33172.3  180.875
 9.9436  32890.8  180.017
 9.9856  32856.5  180.155
 10.0276  31886  178.578
 10.0696  32265.4  178.672
 10.1116  31524.6  176.872
 10.1536  31499.5  176.97
 10.1956  30791.1  174.567
 10.2376  30480.7  173.187
 10.2796  30696  173.928
 10.3216  30317.6  173.127
 10.3636  30126.3  172.601
 10.4056  31220.7  176.12
 10.4476  31399.3  176.238
 10.4896  33428.5  181.264
 10.5316  31474.5  176.618
 10.5736  29874.5  172.484
 10.6156  29363  170.768
 10.6576  31388.7  175.067
 10.6996  29086.1  169.198
 10.7416  28768  168.501
 10.7836  29206.9  170.494
 10.8256  28075.7  167.596
 10.8676  28350.5  167.941
 10.9096  27927.8  166.73
 10.9516  27934.9  165.67
 10.9936  28031.7  166.152
 11.0356  27881.7  166.354
 11.0776  28375.3  167.111
 11.1196  27771.4  166.085
 11.1616  27174.3  163.98
 11.2036  27607.6  165.131
 11.2456  28043.3  167.156
 11.2876  26692.2  162.806
 11.3296  26893.2  163.318
 11.3716  27270.3  164.146
 11.4136  27175.1  164.773
 11.4556  27663.1  165.906
 11.4976  28348.7  166.884
 11.5396  27949.5  165.873
 11.5816  26886  163.151
 11.6236  26331.6  161.9
 11.6656  26118.6  160.18
 11.7076  25764.8  159.931
 11.7496  25566.5  163.243
 11.7916  25845  159.439
 11.8336  25248.8  158.506
 11.8756  25303.6  158.181
 11.9176  25174.9  157.432
 11.9596  24894.9  156.738
 12.0016  24962.1  157.753
 12.0436  24865.2  156.861
 12.0856  24687.7  156.834
 12.1276  24566.3  156.37
 12.1696  24579.1  155.534
 12.2116  24994.5  156.838
 12.2536  25523.2  159.341
 12.2956  24773.4  156.314
 12.3376  24522.8  155.722
 12.3796  24574.5  156.355
 12.4216  24667.1  155.854
 12.4636  24908.6  157.547
 12.5056  24375.9  155.127
 12.5476  24596.2  155.352
 12.5896  24445.3  155.512
 12.6316  24032.2  154.345
 12.6736  24147.4  155.206
 12.7156  24279.4  155.488
 12.7576  24404.5  156.137
 12.7996  24529.8  155.169
 12.8416  24557.3  156.318
 12.8836  25147.8  158.014
 12.9256  25022.6  156.611
 12.9676  25001.2  156.984
 13.0096  24575.5  156.745
 13.0516  25042.2  157.25
 13.0936  24970  157.431
 13.1356  25351.4  157.597
 13.1776  24891.5  157.154
 13.2196  24709.4  156.238
 13.2616  24706.5  156.54
 13.3036  24946.1  157.268
 13.3456  24779.6  156.896
 13.3876  25018.9  157.14
 13.4296  24796.8  156.595
 13.4716  24863.5  156.414
 13.5136  24886.6  156.644
 13.5556  24802.4  156.983
 13.5976  24906.3  157.459
 13.6396  25212.7  157.789
 13.6816  24858.1  157.174
 13.7236  25529.2  158.923
 13.7656  24688.9  156.817
 13.8076  25225.6  157.282
 13.8496  24605  155.936
 13.8916  24572.8  156.847
 13.9336  24455  155.693
 13.9756  24469.4  155.088
 14.0176  24338.2  155.36
 14.0596  24694.5  156.45
 14.1016  24182.5  155.218
 14.1436  23644.9  152.611
 14.1856  23616.5  152.821
 14.2276  23408.8  152.628
 14.2696  23648.8  153.255
 14.3116  23314.1  152.063
 14.3536  22728.8  150.32
 14.3956  22719.8  150.021
 14.4376  23057.6  150.909
 14.4796  22819.7  150.122
 14.5216  22498.5  149.856
 14.5636  22430.8  149.197
 14.6056  22606.4  149.355
 14.6476  22384.3  147.846
 14.6896  21987.1  147.074
 14.7316  21496  146.443
 14.7736  21579.1  145.873
 14.8156  21384  145.246
 14.8576  21323.4  144.894
 14.8996  20858.7  144.514
 14.9416  20604.2  143.623
 14.9836  20791.1  144.233
 15.0256  20440.5  141.945
 15.0676  20487.3  142.426
 15.1096  20174.8  141.072
 15.1516  19906.3  140.683
 15.1936  20169.4  141.036
 15.2356  19841.3  140.165
 15.2776  19778.3  139.526
 15.3196  19329.4  138.939
 15.3616  19248  138.402
 15.4036  19254.1  138.282
 15.4456  19597.3  139.153
 15.4876  19337.1  137.9
 15.5296  19030.1  137.086
 15.5716  18734.7  135.621
 15.6136  18584  135.395
 15.6556  19395.6  137.55
 15.6976  18866.6  135.739
 15.7396  18594.1  135.37
 15.7816  18594.9  134.868
 15.8236  18058  133.618
 15.8656  18270.3  134.186
 15.9076  17934.7  132.768
 15.9496  17873.4  135.349
 15.9916  17842.6  135.679
 16.0336  17369.5  130.76
 16.0756  17578.5  131.856
 16.1176  17446.1  131.433
 16.1596  17169.9  131.567
 16.2016  17299.6  130.805
 16.2436  17082  130.365
 16.2856  16814.9  128.888
 16.3276  16774.5  129.15
 16.3696  17194.7  130.571
 16.4116  16712.1  129.192
 16.4536  16912  129.741
 16.4956  16860  129.276
 16.5376  16933.3  129.749
 16.5796  16767.7  128.475
 16.6216  16719.9  128.592
 16.6636  16642.5  128.457
 16.7056  16676.5  128.442
 16.7476  16679.6  127.986
 16.7896  16803.9  129.221
 16.8316  16668.5  128.668
 16.8736  16755.2  129.259
 16.9156  16617.6  129.066
 16.9576  16536.3  129.553
 16.9996  16583.3  130.232
 17.0416  16564  128.488
 17.0836  16242.3  126.997
 17.1256  16111.2  126.492
 17.1676  16163.2  126.685
 17.2096  16255.1  126.923
 17.2516  16076.5  126
 17.2936  15941.2  125.809
 17.3356  15591.7  124.414
 17.3776  15596.6  124.629
 17.4196  15687.5  124.685
 17.4616  15572.4  124.141
 17.5036  15789.6  125.376
 17.5456  15165.1  123.512
 17.5876  15307.9  123.135
 17.6296  15381.4  123.251
 17.6716  15388.4  123.852
 17.7136  15318.8  123.718
 17.7556  15154.5  123.345
 17.7976  15277.9  123.448
 17.8396  14965.4  121.812
 17.8816  14935.2  122.229
 17.9236  14819.6  121.568
 17.9656  15149.9  123.632
 18.0076  15375.2  123.953
 18.0496  15619.1  124.043
 18.0916  17091.3  130.331
 18.1336  16293.8  127.359
 18.1756  15702.9  124.548
 18.2176  15466.3  123.839
 18.2596  15020  121.769
 18.3016  15353  123.375
 18.3436  15515.2  124.265
 18.3856  14946.4  121.868
 18.4276  14981.2  121.68
 18.4696  14881.1  121.376
 18.5116  14913.9  121.799
 18.5536  14952.3  122.32
 18.5956  14769.4  121.115
 18.6376  14689.4  121.196
 18.6796  14531.4  119.856
 18.7216  14766  121.394
 18.7636  14421.9  119.885
 18.8056  14344.6  119.505
 18.8476  14249.7  119.74
 18.8896  14304.1  119.296
 18.9316  14506.5  119.956
 18.9736  14330.3  119.084
 19.0156  14520.8  120.285
 19.0576  14375.2  118.535
 19.0996  14501  119.77
 19.1416  14052.9  118.298
 19.1836  14233.6  118.657
 19.2256  14188.6  118.676
 19.2676  14255.9  119.06
 19.3096  14217.3  119.145
 19.3516  14176.7  118.932
 19.3936  14164.7  118.781
 19.4356  14041  118.125
 19.4776  14110.3  118.524
 19.5196  14154  118.555
 19.5616  14128.3  118.7
 19.6036  14256.5  118.736
 19.6456  14296.7  119.025
 19.6876  14507.5  119.54
 19.7296  14268.4  119.009
 19.7716  14326.9  119.272
 19.8136  14611.7  120.812
 19.8556  14910.5  121.505
 19.8976  14800.2  121.121
 19.9396  14945.9  121.284
 19.9816  15066.3  122.014
 20.0236  14799.7  121.155
 20.0656  14624  120.43
 20.1076  14001.1  118.299
 20.1496  14122.1  118.811
 20.1916  13970.1  117.688
 20.2336  13930.3  117.456
 20.2756  13823.9  117.433
 20.3176  13735.8  116.805
 20.3596  13774  116.945
 20.4016  13799.1  116.855
 20.4436  13756  117.24
 20.4856  13517.4  116
 20.5276  13525.3  116.492
 20.5696  13560.9  116.097
 20.6116  13555.9  116.359
 20.6536  13463.5  115.524
 20.6956  13413.9  115.367
 20.7376  13455.6  115.793
 20.7796  13389.7  115.198
 20.8216  13534  115.515
 20.8636  13551.9  115.968
 20.9056  14028.3  117.936
 20.9476  13341  114.85
 20.9896  13960.3  117.354
 21.0316  13541.5  115.473
 21.0736  13481.9  115.743
 21.1156  13688  116.79
 21.1576  13386.8  115.545
 21.1996  13291.8  115.113
 21.2416  13204.5  114.567
 21.2836  13447.8  115.574
 21.3256  13201.4  114.602
 21.3676  13212.1  114.194
 21.4096  13362.1  115.155
 21.4516  13217  114.402
 21.4936  13043.7  113.906
 21.5356  13206.8  114.555
 21.5776  13103.9  113.94
 21.6196  12939.8  113.27
 21.6616  13112  114.099
 21.7036  12992  113.359
 21.7456  13127.8  114.027
 21.7876  12951.1  113.009
 21.8296  12969.5  112.944
 21.8716  12954.2  113.108
 21.9136  13182.7  114.306
 21.9556  13061.8  113.447
 21.9976  12921  112.847
 22.0396  12846.5  112.779
 22.0816  12899.6  113.56
 22.1236  12990.6  113.405
 22.1656  12995.4  113.609
 22.2076  13008.2  113.078
 22.2496  12934.6  112.785
 22.2916  13052.4  113.178
 22.3336  12977.1  113.567
 22.3756  12933.2  113.112
 22.4176  12727.6  112.064
 22.4596  12557.5  111.903
 22.5016  12773.4  112.344
 22.5436  12888.9  112.739
 22.5856  13078.1  113.815
 22.6276  12762  112.562
 22.6696  12697.3  112.628
 22.7116  12927.6  113.155
 22.7536  12803.4  112.589
 22.7956  12880.4  112.25
 22.8376  12695  111.968
 22.8796  12899.2  112.656
 22.9216  12900.2  113.22
 22.9636  12866.7  112.207
 23.0056  12990.8  112.891
 23.0476  13016.3  113.576
 23.0896  13239.8  113.915
 23.1316  12850.3  112.659
 23.1736  12746.6  115.169
 23.2156  12895.2  113.187
 23.2576  12777.8  112.799
 23.2996  12734.5  112.406
 23.3416  12650.3  112.548
 23.3836  12762.4  112.277
 23.4256  12818.7  112.64
 23.4676  12819.2  112.335
 23.5096  12846.5  113.14
 23.5516  12837.6  112.379
 23.5936  12820.7  113.211
 23.6356  12960.1  113.49
 23.6776  12946.5  113.648
 23.7196  12476.3  111.138
 23.7616  12816.5  112.564
 23.8036  12689.8  112.041
 23.8456  12600  111.223
 23.8876  12460  110.95
 23.9296  12288.7  110.678
 23.9716  12544.6  111.01
 24.0136  12711  112.652
 24.0556  12490.8  111.407
 24.0976  12235.2  110.069
 24.1396  12257.4  112.836
 24.1816  12447.9  112.432
 24.2236  12178.7  110.485
 24.2656  12230  110.189
 24.3076  12254.4  110.542
 24.3496  12259.8  110.466
 24.3916  12237.6  110.405
 24.4336  11970.7  109.412
 24.4756  12035.5  109.576
 24.5176  11947.7  108.824
 24.5596  11900.5  108.734
 24.6016  11807.9  108.601
 24.6436  11821.1  108.141
 24.6856  11917.5  108.348
 24.7276  11913  108.647
 24.7696  11736.2  107.952
 24.8116  11802.8  108.444
 24.8536  11712.3  108.021
 24.8956  11671.6  107.569
 24.9376  11721.1  107.734
 24.9796  11692.9  107.964
 25.0216  11447  106.932
 25.0636  11665.2  107.598
 25.1056  11433  106.954
 25.1476  11532.7  109.391
 25.1896  11578.8  108.055
 25.2316  11574.5  107.301
 25.2736  11510.4  106.657
 25.3156  11452  106.458
 25.3576  11366.7  106.485
 25.3996  11452.5  106.867
 25.4416  11296.4  106.119
 25.4836  11160  106.002
 25.5256  11332.4  106.176
 25.5676  11337  105.924
 25.6096  11205.4  105.885
 25.6516  11150.4  105.119
 25.6936  11167  105.517
 25.7356  11068  105.185
 25.7776  11305.7  105.909
 25.8196  11142.3  105.367
 25.8616  11415.3  106.583
 25.9036  11346.6  105.718
 25.9456  11159.5  105.444
 25.9876  11113.6  105.29
 26.0296  11319.4  105.86
 26.0716  11159.1  105.444
 26.1136  11281.3  105.964
 26.1556  11389.8  105.839
 26.1976  10976.1  104.827
 26.2396  11173.8  105.165
 26.2816  11171.8  105.508
 26.3236  11295.8  106.266
 26.3656  10949.9  104.344
 26.4076  11078.4  105.162
 26.4496  11465  106.465
 26.4916  11083.5  104.692
 26.5336  11135.4  105.261
 26.5756  11181.4  105.344
 26.6176  11038.8  104.718
 26.6596  10844.4  104.096
 26.7016  10808.6  103.68
 26.7436  10850.6  104.016
 26.7856  10695.6  103.251
 26.8276  10706.7  103.258
 26.8696  10859.2  103.871
 26.9116  10668.2  102.884
 26.9536  10727.7  103.225
 26.9956  10741.9  103.326
 27.0376  10551.7  102.603
 27.0796  10714.3  103.217
 27.1216  10612.3  102.723
 27.1636  10565.5  102.665
 27.2056  10571.1  102.572
 27.2476  10624.6  102.832
 27.2896  10600.4  102.829
 27.3316  10627.3  102.669
 27.3736  10516  102.397
 27.4156  10478.8  102.055
 27.4576  10608.9  102.922
 27.4996  10571.5  102.327
 27.5416  10621.4  102.894
 27.5836  10536.3  102.3
 27.6256  10870.6  104.069
 27.6676  10674.6  103.159
 27.7096  10391.4  101.637
 27.7516  10722.4  103.403
 27.7936  10525.2  102.617
 27.8356  10607.4  102.63
 27.8776  10508  102.195
 27.9196  10370.6  101.373
 27.9616  10463.1  102.024
 28.0036  10350.3  101.439
 28.0456  10321.3  101.433
 28.0876  10246.7  101.156
 28.1296  10341.8  101.464
 28.1716  10314.5  101.339
 28.2136  10353.6  101.493
 28.2556  10147.9  100.595
 28.2976  10113.7  100.417
 28.3396  10277.6  101.029
 28.3816  10228.4  100.765
 28.4236  10321.8  101.381
 28.4656  10039.4  100.019
 28.5076  10046  99.6877
 28.5496  10001.5  99.7286
 28.5916  10217.1  100.6
 28.6336  10020.1  99.9713
 28.6756  10131  99.7163
 28.7176  10047.8  99.8576
 28.7596  9924.75  99.142
 28.8016  10021.6  99.6591
 28.8436  9868.28  99.1354
 28.8856  10058.4  99.9334
 28.9276  9991.66  99.8491
 28.9696  9920.13  99.147
 29.0116  10024.2  99.8539
 29.0536  9755.69  98.713
 29.0956  9949.07  99.4003
 29.1376  9857.15  98.8998
 29.1796  9750.19  98.4052
 29.2216  9761.32  98.3062
 29.2636  9941.02  99.1998
 29.3056  9785.69  98.2955
 29.3476  10040.9  100.1
 29.3896  9964.46  99.814
 29.4316  10098  99.8133
 29.4736  9812.54  98.4582
 29.5156  10023.4  99.4265
 29.5576  9965.87  99.8906
 29.5996  9992.1  99.2701
 29.6416  9827.27  98.5576
 29.6836  9770.35  98.2102
 29.7256  9728.79  98.5698
 29.7676  9872.15  98.9516
 29.8096  9770.06  98.3756
 29.8516  9550.99  97.6011
 29.8936  9805.1  98.9857
 29.9356  9828.46  98.8547
 29.9776  9750.58  98.6188
 30.0196  9825.38  98.3714
 30.0616  9691.51  98.0796
 30.1036  9699.83  97.9427
 30.1456  9678.14  98.0705
 30.1876  9661.12  97.9623
 30.2296  9624.7  97.7248
 30.2716  9821.5  98.3526
 30.3136  9751.28  98.8698
 30.3556  9775.46  99.0002
 30.3976  9603.8  99.6613
 30.4396  9701.1  97.4725
 30.4816  9720.96  97.1724
 30.5236  9591.41  96.54
 30.5656  9575.81  97.1148
 30.6076  9706.05  97.2025
 30.6496  9710.32  97.6103
 30.6916  9546.79  96.8804
 30.7336  9578.06  97.1895
 30.7756  9516.52  96.9694
 30.8176  9637.33  97.4973
 30.8596  9657.46  97.3564
 30.9016  9540.34  97.1177
 30.9436  9481.29  96.5621
 30.9856  9649.66  97.5266
 31.0276  9474.18  96.2487
 31.0696  9522.95  97.0719
 31.1116  9374.71  96.2929
 31.1536  9657.23  97.6169
 31.1956  9330.63  96.0376
 31.2376  9332.97  96.0591
 31.2796  9556.72  96.7334
 31.3216  9426.43  96.0146
 31.3636  9426.35  96.7069
 31.4056  9486.7  98.349
 31.4476  9454.6  96.0481
 31.4896  9291.57  95.7205
 31.5316  9382.42  95.6207
 31.5736  9556.69  96.275
 31.6156  9552.98  96.2858
 31.6576  9525.83  96.2491
 31.6996  9509.8  95.8353
 31.7416  9206.29  95.3456
 31.7836  9446.37  95.5925
 31.8256  9330.66  95.3567
 31.8676  9544.1  96.3547
 31.9096  9210.07  95.0136
 31.9516  9267.7  95.473
 31.9936  9201.8  94.9562
 32.0356  9273.59  95.3948
 32.0776  9333.5  95.5842
 32.1196  9410.18  96.0656
 32.1616  9467.12  95.8088
 32.2036  9177.67  94.8361
 32.2456  9214.98  95.4197
 32.2876  9346.67  95.4188
 32.3296  9175.45  94.6743
 32.3716  9189.54  94.8535
 32.4136  9403.16  96.173
 32.4556  9248.23  94.8081
 32.4976  9297.67  94.9089
 32.5396  9175.57  94.3561
 32.5816  9149.29  94.3406
 32.6236  9267.64  95.0215
 32.6656  9295.63  95.7096
 32.7076  9130.28  94.5087
 32.7496  9113.91  94.091
 32.7916  9255.21  94.7663
 32.8336  9112.97  94.1414
 32.8756  9172.24  94.1653
 32.9176  9077.85  94.1657
 32.9596  9013.52  93.9034
 33.0016  9110.84  94.1997
 33.0436  9140.22  94.5283
 33.0856  9041.18  94.0838
 33.1276  8991.69  93.5531
 33.1696  9114.71  94.0358
 33.2116  9115.95  94.2717
 33.2536  9142.82  94.4144
 33.2956  9050.43  94.0216
 33.3376  8932.58  93.1457
 33.3796  9149.74  94.4716
 33.4216  9090.63  93.7723
 33.4636  9067.86  93.796
 33.5056  8995.92  93.6677
 33.5476  8905.3  93.1836
 33.5896  9043.44  93.6469
 33.6316  8874.73  93.1132
 33.6736  8924.88  93.6247
 33.7156  8929.93  93.6978
 33.7576  9007.76  93.7258
 33.7996  9092.69  93.9364
 33.8416  8754.95  92.3504
 33.8836  9008.45  93.457
 33.9256  8871.55  92.8012
 33.9676  9028.15  93.5181
 34.0096  8839.41  92.844
 34.0516  8833.85  92.4584
 34.0936  8779.51  92.4356
 34.1356  8832.95  92.4549
 34.1776  8791.41  92.2527
 34.2196  8768.97  92.3135
 34.2616  8624.22  91.6819
 34.3036  8757.23  92.6389
 34.3456  8721.02  92.2034
 34.3876  8739.17  92.2616
 34.4296  8704.49  91.7703
 34.4716  8821.13  92.5277
 34.5136  8796.45  92.6052
 34.5556  8643.3  92.0454
 34.5976  8746.34  92.3988
 34.6396  8730.97  92.0304
 34.6816  8709.68  92.028
 34.7236  8887.76  92.7494
 34.7656  8821.2  92.5934
 34.8076  8629.31  91.9122
 34.8496  8759.24  92.4538
 34.8916  8740.84  92.2261
 34.9336  8833.13  92.6732
 34.9756  8688.39  91.8337
 35.0176  8711  92.4878
 35.0596  8638.38  91.923
 35.1016  8671.81  91.8708
 35.1436  8828.99  92.3779
 35.1856  8545.29  91.0119
 35.2276  8550.94  91.2136
 35.2696  8522.23  91.2527
 35.3116  8697.66  92.2831
 35.3536  8645.13  91.7135
 35.3956  8570.67  91.0182
 35.4376  8551.53  91.4772
 35.4796  8626.31  91.9414
 35.5216  8617.53  91.8504
 35.5636  8414.29  91.5063
 35.6056  8574.56  91.387
 35.6476  8598.18  91.3995
 35.6896  8726.58  92.2577
 35.7316  8536.45  91.1326
 35.7736  8520.75  91.2531
 35.8156  8481.25  91.0365
 35.8576  8486.78  91.3231
 35.8996  8690.64  92.3705
 35.9416  8963.26  93.2059
 35.9836  8476.6  91.0815
 36.0256  8651.44  92.039
 36.0676  8628.48  91.4528
 36.1096  8434.35  90.773
 36.1516  8499.9  91.0175
 36.1936  8586.86  91.3271
 36.2356  8515.01  91.5877
 36.2776  8474.13  90.8518
 36.3196  8575.9  91.0565
 36.3616  8473.52  90.6458
 36.4036  8525.89  90.9834
 36.4456  8409.6  90.5623
 36.4876  8313.26  89.9884
 36.5296  8497.09  91.0191
 36.5716  8462.25  91.6216
 36.6136  8623.64  91.2316
 36.6556  8687.31  91.7899
 36.6976  8514.38  91.374
 36.7396  8414.29  90.5625
 36.7816  8473.84  91.2636
 36.8236  8491.39  91.2724
 36.8656  8383.62  90.7763
 36.9076  8346.68  90.5758
 36.9496  8522.97  91.3856
 36.9916  8305.06  89.8383
 37.0336  8572.9  91.5988
 37.0756  8461.4  90.7866
 37.1176  8248.22  89.9066
 37.1596  8229.69  89.8092
 37.2016  8171.74  89.6705
 37.2436  8417.87  90.3699
 37.2856  8372.2  90.3757
 37.3276  8374.22  89.7382
 37.3696  8136.99  89.3397
 37.4116  8355.29  90.4368
 37.4536  8317.66  90.0969
 37.4956  8262.57  89.8458
 37.5376  8308.95  91.6528
 37.5796  8176.06  90.8873
 37.6216  8189.27  89.213
 37.6636  8102.49  88.6405
 37.7056  8286.44  89.8386
 37.7476  8274.45  89.3028
 37.7896  8189.45  89.3273
 37.8316  8001.98  88.487
 37.8736  8273.98  89.4992
 37.9156  8301.28  89.6494
 37.9576  8228.27  89.1376
 37.9996  8181.06  88.6039
 38.0416  8105.96  88.9879
 38.0836  8224.87  89.5629
 38.1256  8134.57  89.0175
 38.1676  8013.49  88.4979
 38.2096  8250.34  89.4128
 38.2516  8210.32  89.4089
 38.2936  8204.96  89.1701
 38.3356  8342.13  89.8247
 38.3776  8086.89  88.7217
 38.4196  8268.19  89.5633
 38.4616  8112.37  88.9535
 38.5036  8242.88  89.5057
 38.5456  8072.08  89.4141
 38.5876  8113.38  89.676
 38.6296  7990.72  87.9637
 38.6716  7992.09  87.7629
 38.7136  8078.55  88.178
 38.7556  7936.51  87.9007
 38.7976  8139.84  88.9609
 38.8396  8001.28  88.6542
 38.8816  7918.65  87.977
 38.9236  7956.53  87.9969
 38.9656  8018.23  88.2501
 39.0076  7941.26  87.2329
 39.0496  7963.63  87.8968
 39.0916  8064.89  88.0839
 39.1336  7993.15  88.12
 39.1756  7954.35  87.9749
 39.2176  8099.02  89.3074
 39.2596  7951.1  88.4086
 39.3016  7953.03  87.9956
 39.3436  8153.73  89.5267
 39.3856  7996.79  88.1057
 39.4276  8010.78  88.6814
 39.4696  7972.78  88.0944
 39.5116  7920.69  88.3196
 39.5536  8104.34  89.7721
 39.5956  8120.58  88.9516
 39.6376  8159.21  89.1664
 39.6796  7975.47  87.8982
 39.7216  8054.96  88.4328
 39.7636  7995.73  88.6805
 39.8056  8139.18  89.2529
 39.8476  7960.14  88.5183
 39.8896  7975.23  88.2324
 39.9316  7973.74  88.4792
 39.9736  8150.47  89.0168
 40.0156  7977.48  87.8791
 40.0576  7962.89  88.1692
 40.0996  8158.9  88.422
 40.1416  8139.12  89.1145
 40.1836  8070.54  88.6297
 40.2256  8143.74  89.0741
 40.2676  8014.6  88.4747
 40.3096  8120.14  88.9734
 40.3516  8126.15  89.1182
 40.3936  8203.71  89.0987
 40.4356  8141.1  88.9519
 40.4776  8211.69  89.7575
 40.5196  8141.21  89.5012
 40.5616  8089.64  88.8556
 40.6036  8073.77  89.0262
 40.6456  8196.71  89.3066
 40.6876  8184.51  89.2111
 40.7296  8119.78  89.0095
 40.7716  8142.05  89.2587
 40.8136  8034.61  88.6124
 40.8556  8157.69  89.4211
 40.8976  8097.16  89.009
 40.9396  7941.48  88.4982
 40.9816  8211.33  89.2673
 41.0236  8099.5  88.433
 41.0656  8164.41  89.3368
 41.1076  8160.1  89.0815
 41.1496  8097.81  88.6486
 41.1916  8060.07  88.767
 41.2336  8085.24  88.8872
 41.2756  8103.42  88.5961
 41.3176  7973.79  88.4971
 41.3596  8170.09  89.3084
 41.4016  8101.47  89.1947
 41.4436  8095.13  88.9435
 41.4856  8142.45  89.3722
 41.5276  8008.57  88.6507
 41.5696  8095.82  88.7411
 41.6116  7967.91  88.4514
 41.6536  8066.01  88.8498
 41.6956  8042.37  88.777
 41.7376  8081.48  89.0231
 41.7796  7995.6  88.4724
 41.8216  8117.77  89.3402
 41.8636  7978.14  88.5062
 41.9056  7953.18  88.1529
 41.9476  8036.91  88.8489
 41.9896  8024.23  88.4463
 42.0316  8047.18  88.6562
 42.0736  8113.59  89.1358
 42.1156  7975.37  88.2108
 42.1576  8016.34  88.5386
 42.1996  8014.72  88.6713
 42.2416  8157.24  89.025
 42.2836  7913.35  87.8022
 42.3256  7892.11  87.802
 42.3676  8058.67  88.5241
 42.4096  8027.76  88.3086
 42.4516  7955.54  88.0059
 42.4936  7812.74  87.2804
 42.5356  7972.96  88.3072
 42.5776  8041.03  88.6201
 42.6196  8108.74  89.0491
 42.6616  7776.19  87.3767
 42.7036  8022.16  88.1223
 42.7456  7973.19  88.2132
 42.7876  7784.42  87.2671
 42.8296  7993.64  88.2602
 42.8716  7811.52  87.4089
 42.9136  7850.87  87.4106
 42.9556  8019.82  88.4851
 42.9976  8097.21  88.8695
 43.0396  7904.27  87.5369
 43.0816  7816.32  87.4265
 43.1236  7822.45  87.5231
 43.1656  7972.78  88.1824
 43.2076  7861.98  87.6754
 43.2496  7868.31  87.5271
 43.2916  7797.33  87.4964
 43.3336  7813.31  87.4224
 43.3756  7859.79  87.4313
 43.4176  7707.08  86.6634
 43.4596  7789.74  86.9817
 43.5016  7805.51  87.4792
 43.5436  7886.71  87.8294
 43.5856  7770.51  87.2089
 43.6276  7753.71  87.0048
 43.6696  7763.57  87.209
 43.7116  7858.83  87.3493
 43.7536  7825.97  87.6571
 43.7956  7734.47  88.3447
 43.8376  7788.02  87.1778
 43.8796  7784.43  87.2418
 43.9216  7942.17  88.0381
 43.9636  7828.56  87.5171
 44.0056  7809.47  87.6424
 44.0476  7666.89  86.4711
 44.0896  7715.01  87.0835
 44.1316  7661.76  86.4482
 44.1736  7810.56  87.2615
 44.2156  7764.43  86.859
 44.2576  7733.79  87.0138
 44.2996  7678.07  86.67
 44.3416  7705.04  86.582
 44.3836  7518.84  85.8609
 44.4256  7506.78  85.4372
 44.4676  7606.24  86.1569
 44.5096  7621.02  86.3829
 44.5516  7634.94  86.4277
 44.5936  7512.02  85.6834
 44.6356  7564.68  85.7201
 44.6776  7597.04  86.22
 44.7196  7547.55  86.2522
 44.7616  7665.93  88.2538
 44.8036  7601.59  86.3101
 44.8456  7610.29  86.5573
 44.8876  7540.24  86.0051
 44.9296  7620.7  85.9222
 44.9716  7544.93  85.9165
 45.0136  7573.41  86.0153
 45.0556  7664.06  86.4993
 45.0976  7469.61  85.5612
 45.1396  7391.6  84.8792
 45.1816  7434.44  85.0579
 45.2236  7470.61  85.1625
 45.2656  7518.55  85.9393
 45.3076  7445.26  85.3032
 45.3496  7488.3  85.8564
 45.3916  7460.2  85.9609
 45.4336  7488.13  85.965
 45.4756  7447.3  85.5809
 45.5176  7476.3  85.3682
 45.5596  7581.72  86.0932
 45.6016  7424.14  85.6111
 45.6436  7457.23  84.977
 45.6856  7435.51  85.5119
 45.7276  7328.33  86.1947
 45.7696  7550.72  87.1704
 45.8116  7496.9  86.2839
 45.8536  7408.29  85.6677
 45.8956  7429.38  85.1455
 45.9376  7364.24  84.2387
 45.9796  7396.89  85.1182
 46.0216  7479.59  85.9303
 46.0636  7554.19  85.4903
 46.1056  7443.31  84.8463
 46.1476  7434.34  85.3911
 46.1896  7457.64  85.6743
 46.2316  7370.72  85.0413
 46.2736  7270.38  84.8272
 46.3156  7422.05  85.294
 46.3576  7397.43  85.3561
 46.3996  7397.88  85.5188
 46.4416  7456.59  85.4278
 46.4836  7318  84.9889
 46.5256  7371.34  85.2356
 46.5676  7316.17  85.0302
 46.6096  7455.06  85.7655
 46.6516  7456.76  84.8142
 46.6936  7533.53  85.7473
 46.7356  7493.38  85.6231
 46.7776  7307.88  85.4056
 46.8196  7281.56  84.8416
 46.8616  7218.38  84.4242
 46.9036  7187.19  83.8955
 46.9456  7224.41  83.7671
 46.9876  7233  83.8965
 47.0296  7176.6  84.2485
 47.0716  7207.37  84.2491
 47.1136  7248.36  84.1695
 47.1556  7219  83.8658
 47.1976  7323.34  84.5441
 47.2396  7256.97  84.5645
 47.2816  7232.36  84.124
 47.3236  7159.51  84.0617
 47.3656  7225.98  84.3828
 47.4076  7196.49  84.0161
 47.4496  7237.54  84.3523
 47.4916  7145.68  84.0044
 47.5336  7300.97  84.7274
 47.5756  7310.21  84.9014
 47.6176  7082.7  83.4669
 47.6596  7109.54  83.3359
 47.7016  7327.32  84.4244
 47.7436  7247.76  84.3036
 47.7856  7300.85  84.632
 47.8276  7111.76  83.5766
 47.8696  7167.11  83.987
 47.9116  7214.61  83.9836
 47.9536  7182.66  83.7394
 47.9956  7033.63  83.5654
 48.0376  7114.95  83.8223
 48.0796  7236.4  84.6638
 48.1216  7290.46  84.7882
 48.1636  7246.08  84.1108
 48.2056  7232.1  84.2923
 48.2476  7121.31  83.9523
 48.2896  7108.87  83.7891
 48.3316  7155.14  84.0095
 48.3736  7028.78  83.2816
 48.4156  7114.12  83.6387
 48.4576  7065.79  83.6452
 48.4996  7201.75  83.8992
 48.5416  7253.41  84.5277
 48.5836  7091.96  83.259
 48.6256  7131.43  83.701
 48.6676  7061.1  83.7914
 48.7096  7094.71  83.2594
 48.7516  7064  83.2329
 48.7936  6996.4  82.8994
 48.8356  6956.31  82.7089
 48.8776  7085.67  83.963
 48.9196  7187.16  84.0095
 48.9616  7076.5  83.7442
 49.0036  7090.43  84.1683
 49.0456  6927.46  83.1815
 49.0876  7020.2  83.3694
 49.1296  6948.73  83.0174
 49.1716  6927.98  82.7585
 49.2136  7006.77  83.1516
 49.2556  7016.13  83.2481
 49.2976  7006.64  83.2505
 49.3396  6922.9  82.8077
 49.3816  7087.44  83.2194
 49.4236  6984.73  83.0401
 49.4656  6938.24  82.7748
 49.5076  7092.85  83.4406
 49.5496  6953.32  82.6746
 49.5916  7024.77  83.0133
 49.6336  6878.42  82.357
 49.6756  7059.05  83.6594
 49.7176  6973.03  83.0903
 49.7596  6926.14  82.5818
 49.8016  6996.83  82.9289
 49.8436  6916.63  82.7385
 49.8856  6810.79  82.1085
 49.9276  6764.62  81.9253
 49.9696  6910.09  82.7887
 50.0116  6896.74  82.8341
 50.0536  6939.58  83.0448
 50.0956  6891.6  82.8249
 50.1376  6914.72  82.6631
 50.1796  6841.99  82.4957
 50.2216  6851.56  82.5495
 50.2636  6816.89  81.962
 50.3056  6779.6  81.9085
 50.3476  6871.99  82.4885
 50.3896  6887.16  82.5484
 50.4316  6876.19  82.3154
 50.4736  6805.81  82.1146
 50.5156  6821.33  82.2034
 50.5576  6884.77  82.3346
 50.5996  6781.54  81.9992
 50.6416  6810.33  82.1021
 50.6836  6849.48  82.3968
 50.7256  6867.18  82.4263
 50.7676  6932  83.0871
 50.8096  6842.08  82.1338
 50.8516  6749.11  81.9846
 50.8936  6707.88  81.5161
 50.9356  6798.1  82.1717
 50.9776  6749.64  82.0277
 51.0196  6604.19  81.2689
 51.0616  6710.55  81.2491
 51.1036  6779.25  82.0181
 51.1456  6797.54  82.0429
 51.1876  6694.16  80.7661
 51.2296  6709.5  81.4887
 51.2716  6746.24  81.4103
 51.3136  6687.58  81.5173
 51.3556  6763.2  81.6035
 51.3976  6635.7  80.9737
 51.4396  6629.23  81.2378
 51.4816  6644.15  81.1798
 51.5236  6711.21  81.6779
 51.5656  6612.82  80.6887
 51.6076  6722.39  81.4335
 51.6496  6742.11  81.7469
 51.6916  6584.97  81.1371
 51.7336  6643.21  81.5894
 51.7756  6657.72  81.376
 51.8176  6681.14  81.6239
 51.8596  6717.33  81.8625
 51.9016  6840.21  82.2142
 51.9436  6604.25  82.2368
 51.9856  6572.75  82.4536
 52.0276  6697.08  81.7464
 52.0696  6625.56  81.3673
 52.1116  6648.25  81.6303
 52.1536  6576.6  81.0735
 52.1956  6739.97  81.5378
 52.2376  6758.39  81.8261
 52.2796  6625.29  80.8149
 52.3216  6502.56  80.7558
 52.3636  6599.95  80.9375
 52.4056  6504.57  80.1945
 52.4476  6513.2  80.6276
 52.4896  6510.76  80.6627
 52.5316  6481.52  80.5232
 52.5736  6621.12  81.1191
 52.6156  6517.7  80.8476
 52.6576  6621.73  80.9447
 52.6996  6404.72  80.5621
 52.7416  6566.01  81.4266
 52.7836  6606.78  81.546
 52.8256  6601.43  80.7486
 52.8676  6313.28  79.521
 52.9096  6615.63  81.502
 52.9516  6504.97  81.1839
 52.9936  6497.68  81.5262
 53.0356  6328.71  79.4769
 53.0776  6416.16  80.2989
 53.1196  6358.48  80.0463
 53.1616  6424.86  80.5109
 53.2036  6423.67  80.4595
 53.2456  6294.99  79.7472
 53.2876  6460.14  80.4937
 53.3296  6459.8  80.8176
 53.3716  6256.77  79.2882
 53.4136  6433.06  80.5449
 53.4556  6327.46  79.9107
 53.4976  6330.79  79.7825
 53.5396  6352.27  80.3047
 53.5816  6358.57  79.9855
 53.6236  6306.73  79.9953
 53.6656  6434.92  80.4347
 53.7076  6435.52  80.3971
 53.7496  6373.51  80.1286
 53.7916  6407.58  80.4712
 53.8336  6308.13  79.7381
 53.8756  6229.93  79.7887
 53.9176  6399.18  80.2149
 53.9596  6408.72  81.0463
 54.0016  6332.78  79.8951
 54.0436  6365.32  80.3168
 54.0856  6467.12  80.3747
 54.1276  6344.73  79.8182
 54.1696  6360.01  80.0813
 54.2116  6343.94  79.7352
 54.2536  6358.8  79.6488
 54.2956  6415.83  80.0453
 54.3376  6294.29  79.7674
 54.3796  6299.88  79.7041
 54.4216  6441.55  80.6403
 54.4636  6410.55  80.4064
 54.5056  6376.89  80.0166
 54.5476  6288.91  79.7945
 54.5896  6363.77  80.0958
 54.6316  6422.02  80.3237
 54.6736  6324.84  79.7338
 54.7156  6285.76  79.5647
 54.7576  6247.38  79.3161
 54.7996  6384.22  80.3162
 54.8416  6264.97  79.6101
 54.8836  6231.01  79.5082
 54.9256  6296.11  79.6694
 54.9676  6393.46  80.1435
 55.0096  6359.83  79.9983
 55.0516  6334.88  80.0144
 55.0936  6363.86  79.8793
 55.1356  6300.83  79.5293
 55.1776  6261  79.5478
 55.2196  6409.77  80.2695
 55.2616  6255.2  79.5086
 55.3036  6270.44  79.7636
 55.3456  6336.65  80.3367
 55.3876  6333.09  80.057
 55.4296  6261.9  79.5817
 55.4716  6326.22  80.0213
 55.5136  6320.93  79.7441
 55.5556  6323.88  79.8355
 55.5976  6294.18  79.7042
 55.6396  6317.9  79.7995
 55.6816  6296.16  79.5433
 55.7236  6333.48  79.8182
 55.7656  6306.97  79.4105
 55.8076  6368.72  79.7838
 55.8496  6271.95  79.49
 55.8916  6317.19  79.9498
 55.9336  6273.47  79.5197
 55.9756  6190.62  78.8857
 56.0176  6165.88  78.8811
 56.0596  6258.41  79.452
 56.1016  6270.63  79.5699
 56.1436  6190.71  79.2946
 56.1856  6234.44  79.3206
 56.2276  6321.3  79.9223
 56.2696  6279.1  79.626
 56.3116  6125.38  79.0455
 56.3536  6257.12  79.5518
 56.3956  6256.04  79.5359
 56.4376  6275.79  79.6925
 56.4796  6261.22  79.4015
 56.5216  6202.78  79.4031
 56.5636  6246.07  79.2723
 56.6056  6264.2  79.6154
 56.6476  6189.74  78.7738
 56.6896  6305.09  79.9513
 56.7316  6301  79.8152
 56.7736  6225.38  79.3537
 56.8156  6195.14  79.1633
 56.8576  6211.09  79.205
 56.8996  6208.1  79.1191
 56.9416  6306.13  80.0511
 56.9836  6172.27  78.7068
 57.0256  6219.95  79.3325
 57.0676  6144.77  78.9686
 57.1096  6154.2  78.8247
 57.1516  6226.26  79.3121
 57.1936  6215.98  79.0294
 57.2356  6263.51  79.6523
 57.2776  6285.01  79.7464
 57.3196  6311.87  80.2894
 57.3616  6142.17  78.6972
 57.4036  6230.67  79.3236
 57.4456  6198.6  79.0791
 57.4876  6291.24  79.5313
 57.5296  6143.26  78.8275
 57.5716  6109.03  78.6972
 57.6136  6245.05  79.3818
 57.6556  6237.24  79.4791
 57.6976  6195.16  79.0273
 57.7396  6039.01  78.4012
 57.7816  6074.42  78.9873
 57.8236  6198.88  79.5846
 57.8656  6177.98  79.1047
 57.9076  6185.76  79.1869
 57.9496  6145.26  79.2769
 57.9916  6167.44  78.9295
 58.0336  6150.35  79.0949
 58.0756  6184.16  78.9321
 58.1176  6142.34  78.6798
 58.1596  6130.05  79.1597
 58.2016  6298.62  79.4658
 58.2436  6170.57  79.0673
 58.2856  6284.13  79.7094
 58.3276  6205.87  79.5855
 58.3696  6148.95  78.9633
 58.4116  6182.72  79.0497
 58.4536  6147.41  78.7071
 58.4956  6133.89  78.8048
 58.5376  6210.36  78.8609
 58.5796  6211.76  79.3019
 58.6216  6259.25  79.4159
 58.6636  6292.16  79.8395
 58.7056  6353.13  80.0776
 58.7476  6040.79  78.5313
 58.7896  6079.61  78.4258
 58.8316  6156.75  78.9163
 58.8736  6166.55  78.9911
 58.9156  6133.25  78.8185
 58.9576  6228.66  79.758
 58.9996  6389.36  79.9858
 59.0416  6376.7  80.2958
 59.0836  6196.84  79.08
 59.1256  6123.2  79.3106
 59.1676  6203.58  80.135
 59.2096  6169.41  79.2305
 59.2516  6345.19  79.9218
 59.2936  6251.72  79.6649
 59.3356  6028.15  78.1053
 59.3776  6121.25  78.8762
 59.4196  6206.09  79.3565
 59.4616  6227.46  79.3504
 59.5036  6188.19  79.1357
 59.5456  6535.91  81.0095
 59.5876  6316.59  79.8342
 59.6296  6159.94  78.9079
 59.6716  6171.56  79.0409
 59.7136  6314.75  79.9406
 59.7556  6341.02  80.2466
 59.7976  6169.83  78.8953
 59.8396  6211.43  79.0536
 59.8816  6231.25  79.7339
 59.9236  6331.78  80.0094
 59.9656  6258.79  79.8119
 60.0076  6248.28  79.0915
 60.0496  6227.04  79.4679
 60.0916  6461.06  80.3462
 60.1336  6169.77  79.6335
 60.1756  6162.17  80.7808
 60.1996  0.0000000E+00  0.0000000E+00