File: docs/examples/opeando_xrd/IS17_D/Data/IS17_D/17_Da_f00051.xye
# /beamlines/bl04/projects/cycle2025-II/20250340211-lsimonelli/DATA/IS17_D/17_Da_f00051.xye : mythproc.py merge -s 0.006 -l 0.5 -f /beamlines/bl04/inhouse/ff/FlatField/ff_20Nov2024rod8mm60s_17keV.raw -b True -c true -o xye /beamlines/bl04/projects/cycle2025-II/20250340211-lsimonelli/DATA/IS17_D/17_Da_00051.dat
# IsMon = [6774500, 6775973, 6775371]  IsPos = [-1.4999, -2.4884, -3.4988]
# Wave = 0.4962  CalPath /beamlines/bl04/projects/cycle2025-II/20250340211-lsimonelli/DATA/Align/Si_Pos1_25keV_f00001.cal
# Date = 2025-09-24_07:45:56 Dt = 4.8000  Bin = 0.0060  <imon> = 6775281 +/- 605 (Min/Max) 6774500 / 6775973
# icurr 251.1679  mocoIn 1.7132E-05  mocoOut 0.8038  i15 7.09018e+06  imon 6.77528e+06  i7 6.0000  iEMpd_timer 4.8000  iEMpd_1 3.6441E-08  iEMpd_2 7.9037E-08  iEMpd_3 1.6213E-08  iEMpd_4 4.7939E-08  iEMhp_timer 4.8000  iEMhp_1 4.9077E-06  iEMhp_2 -2.5166E-08  iEMhp_3 -2.3887E-08  iEMhp_4 -2.1995E-08
#      9776
 1.5856  41165.5  208.351
 1.6276  48306.7  221.827
 1.6696  55559.5  237.059
 1.7116  63646.7  254.222
 1.7536  72583.3  270.327
 1.7956  77898.4  280.749
 1.8376  73713.1  273.537
 1.8796  62560.9  250.149
 1.9216  50715.2  226.117
 1.9636  42781  206.827
 2.0056  38241.1  194.786
 2.0476  35682.2  190.219
 2.0896  34507.5  185.965
 2.1316  33688.9  182.863
 2.1736  32194.5  180.179
 2.2156  32947.4  180.811
 2.2576  31409.2  177.172
 2.2996  30298.8  174.651
 2.3416  30498.3  173.827
 2.3836  29682.5  171.592
 2.4256  28940.1  169.984
 2.4676  28587.3  168.706
 2.5096  28270.4  167.823
 2.5516  27781.4  170.214
 2.5936  27756.2  166.695
 2.6356  27153.8  165.574
 2.6776  27205.3  164.608
 2.7196  26938.8  164.318
 2.7616  26900.6  163.979
 2.8036  26392.7  162.599
 2.8456  26276  162.865
 2.8876  25857.5  161.434
 2.9296  25502.7  160.45
 2.9716  25104.1  158.677
 3.0136  24806.9  157.805
 3.0556  25046.6  158.966
 3.0976  24764  156.996
 3.1396  24966.8  158.353
 3.1816  24329.9  156.264
 3.2236  24145.6  155.669
 3.2656  24211.5  154.907
 3.3076  24205.2  156.362
 3.3496  24245.6  155.418
 3.3916  24667.7  156.587
 3.4336  25049.4  158.383
 3.4756  25361.5  159.292
 3.5176  26163.7  161.581
 3.5596  26143  163.982
 3.6016  26129.4  161.534
 3.6436  25510.5  160.722
 3.6856  24969.4  157.286
 3.7276  24111.4  155.664
 3.7696  23816.4  154.908
 3.8116  23357.5  153.29
 3.8536  23533.1  153.8
 3.8956  23656.9  154.026
 3.9376  23244.2  152.933
 3.9796  23238.9  152.422
 4.0216  23411.5  152.01
 4.0636  23119.4  152.529
 4.1056  23347.9  152.928
 4.1476  23367.4  153.311
 4.1896  23578.6  153.864
 4.2316  23842.7  154.549
 4.2736  24265  155.695
 4.3156  24573.3  156.913
 4.3576  25225.2  158.905
 4.3996  25483.7  159.98
 4.4416  26043.2  161.306
 4.4836  26413.9  162.602
 4.5256  26777.2  164.335
 4.5676  26898.9  164.964
 4.6096  27401  165.14
 4.6516  27824  166.112
 4.6936  27968.1  167.368
 4.7356  28022.8  167.359
 4.7776  28107  167.437
 4.8196  27658.8  166.75
 4.8616  27300.2  165.145
 4.9036  26955.4  163.844
 4.9456  26940.9  164.452
 4.9876  26212.4  162.116
 5.0296  26591.2  163.101
 5.0716  26670.2  164.124
 5.1136  26705.3  163.939
 5.1556  26976  164.227
 5.1976  27203.2  164.915
 5.2396  27429.4  165.289
 5.2816  27454.2  165.832
 5.3236  27534.7  165.779
 5.3656  26837.3  164.589
 5.4076  26825.4  164.703
 5.4496  26975.4  164.64
 5.4916  26972.8  164.392
 5.5336  27018.9  164.54
 5.5756  26678.9  163.531
 5.6176  27002.3  163.952
 5.6596  27191.5  165.508
 5.7016  27422.5  165.467
 5.7436  27466.9  165.872
 5.7856  27290.5  165.403
 5.8276  27710.7  166.389
 5.8696  27748.6  166.676
 5.9116  27723.4  167.208
 5.9536  28024.4  167.863
 5.9956  28575.8  168.866
 6.0376  28241.2  168.51
 6.0796  28585  169.363
 6.1216  28722.7  169.976
 6.1636  28955.6  169.72
 6.2056  28969.6  170.43
 6.2476  29009  170.421
 6.2896  29380.2  171.185
 6.3316  29247.5  170.974
 6.3736  29602.3  171.897
 6.4156  29519.7  171.552
 6.4576  29818.5  172.024
 6.4996  29960.7  172.918
 6.5416  30021.2  173.23
 6.5836  30106.9  173.712
 6.6256  30034.1  173.059
 6.6676  30527  174.038
 6.7096  30321.4  174.307
 6.7516  30723.3  175.112
 6.7936  31151.5  175.752
 6.8356  31144  175.809
 6.8776  31366.1  177.238
 6.9196  31441  177.859
 6.9616  32035.2  178.965
 7.0036  32204.1  179.086
 7.0456  32445.3  179.044
 7.0876  32345.9  180.477
 7.1296  32433.8  179.85
 7.1716  32292.8  178.993
 7.2136  31917  177.727
 7.2556  32380.3  179.176
 7.2976  32490.9  179.986
 7.3396  32267.8  179.579
 7.3816  32305.2  179.904
 7.4236  32608.3  180.027
 7.4656  32788.6  180.003
 7.5076  32864.4  180.347
 7.5496  32952.1  181.133
 7.5916  32907.5  181.035
 7.6336  33420.7  182.344
 7.6756  33460.9  182.3
 7.7176  33749.9  183.398
 7.7596  33650.1  184.39
 7.8016  33886.1  187.228
 7.8436  34455  185.433
 7.8856  34688.5  185.67
 7.9276  35312.5  187.732
 7.9696  35274.1  187.939
 8.0116  36529.1  189.771
 8.0536  36898.6  190.993
 8.0956  36645.6  191.522
 8.1376  36993.8  191.898
 8.1796  37121.3  192.773
 8.2216  38107.3  194.042
 8.2636  38223.8  194.589
 8.3056  37941.8  194.652
 8.3476  38712.7  195.937
 8.3896  38345.9  195.087
 8.4316  38635.4  195.989
 8.4736  38895.8  196.105
 8.5156  38692.1  195.872
 8.5576  38337.6  195.962
 8.5996  38469.4  195.149
 8.6416  38098  195.479
 8.6836  37832.5  194.631
 8.7256  38357.5  195.412
 8.7676  37698.6  196.671
 8.8096  37757.2  194.096
 8.8516  37394.5  192.77
 8.8936  37091.3  191.879
 8.9356  37047.9  192.107
 8.9776  37475  193.317
 9.0196  37478.7  192.998
 9.0616  37488.5  192.484
 9.1036  36729.3  191.727
 9.1456  36966.9  191.689
 9.1876  36832.9  191.293
 9.2296  36995.1  191.106
 9.2716  36241.8  189.215
 9.3136  36330.4  189.43
 9.3556  36676.8  190.317
 9.3976  35039.2  186.548
 9.4396  35729.8  188.271
 9.4816  35089.1  186.429
 9.5236  35281.2  186.854
 9.5656  35081.2  186.648
 9.6076  34545.9  185.758
 9.6496  34453.4  185.43
 9.6916  34516.3  185.571
 9.7336  34605.8  185.586
 9.7756  34786.1  187.343
 9.8176  33753.2  184.031
 9.8596  33760.9  182.485
 9.9016  33169.2  180.872
 9.9436  33016.9  180.368
 9.9856  32516.6  179.22
 10.0276  32376.7  179.955
 10.0696  32705.8  179.894
 10.1116  31582.1  177.038
 10.1536  31581.2  177.205
 10.1956  31216.7  175.774
 10.2376  30574.1  173.465
 10.2796  30719.1  173.996
 10.3216  30510.4  173.684
 10.3636  30348.1  173.247
 10.4056  29939.4  172.474
 10.4476  30044.4  172.399
 10.4896  30040.5  171.839
 10.5316  29065.5  169.735
 10.5736  28998.5  169.939
 10.6156  28907.6  169.449
 10.6576  28864.3  167.885
 10.6996  28513.5  167.521
 10.7416  28298.9  167.133
 10.7836  28297  167.819
 10.8256  27937.5  167.184
 10.8676  27992.9  166.879
 10.9096  27762.1  166.233
 10.9516  27476.3  164.302
 10.9936  27444.5  164.406
 11.0356  27286.3  164.568
 11.0776  27355.5  164.086
 11.1196  26714.6  162.89
 11.1616  26464.2  161.822
 11.2036  26617.2  162.145
 11.2456  26494.9  162.474
 11.2876  26462.4  162.102
 11.3296  26070.6  160.805
 11.3716  26553.2  161.97
 11.4136  26455.6  162.575
 11.4556  26554.5  162.545
 11.4976  26788.8  162.227
 11.5396  27109.6  163.367
 11.5816  27821.1  165.966
 11.6236  27669.4  165.73
 11.6656  27173.1  163.384
 11.7076  26534.5  162.302
 11.7496  26014.7  164.672
 11.7916  25829  159.389
 11.8336  25509.3  159.291
 11.8756  25276.4  158.093
 11.9176  25648.2  158.902
 11.9596  25140.2  157.515
 12.0016  25043.6  158.011
 12.0436  24929.2  157.069
 12.0856  24745  157.016
 12.1276  24801.6  157.109
 12.1696  24768.5  156.132
 12.2116  25144.5  157.309
 12.2536  24683.7  156.701
 12.2956  24769.4  156.3
 12.3376  24425.7  155.422
 12.3796  24781.4  157.016
 12.4216  24825.6  156.363
 12.4636  24275.2  155.532
 12.5056  24616.6  155.89
 12.5476  24652  155.53
 12.5896  24588.7  155.97
 12.6316  24393.7  155.509
 12.6736  24174.8  155.287
 12.7156  24284.8  155.51
 12.7576  24477.3  156.374
 12.7996  24680.9  155.646
 12.8416  24427.9  155.906
 12.8836  24815.9  156.966
 12.9256  24787.2  155.888
 12.9676  25110.6  157.322
 13.0096  24762.3  157.337
 13.0516  25201  157.751
 13.0936  24991.6  157.5
 13.1356  25586.7  158.327
 13.1776  25122.6  157.882
 13.2196  25265.9  157.987
 13.2616  25186.4  158.049
 13.3036  25481  158.947
 13.3456  25239.1  158.548
 13.3876  25065.2  157.288
 13.4296  24956.5  157.094
 13.4716  25076.5  157.076
 13.5136  25231  157.722
 13.5556  25106.6  157.947
 13.5976  25263.7  158.588
 13.6396  25420.8  158.444
 13.6816  25028.7  157.712
 13.7236  25794.8  159.74
 13.7656  25093.1  158.1
 13.8076  25187.5  157.165
 13.8496  24828.6  156.648
 13.8916  24815.6  157.618
 13.9336  24814.5  156.831
 13.9756  24683  155.761
 14.0176  24586.1  156.146
 14.0596  24707.4  156.493
 14.1016  24241  155.407
 14.1436  24104.8  154.1
 14.1856  23941.6  153.872
 14.2276  23584.4  153.204
 14.2696  23904.6  154.085
 14.3116  23498.4  152.665
 14.3536  23137.3  151.663
 14.3956  23278  151.851
 14.4376  23261  151.576
 14.4796  23152.2  151.214
 14.5216  22879.1  151.124
 14.5636  22587.9  149.723
 14.6056  22911.2  150.358
 14.6476  22690.3  148.857
 14.6896  22422.9  148.523
 14.7316  22027.8  148.243
 14.7736  21923.4  147.039
 14.8156  21618.3  146.043
 14.8576  21577.1  145.754
 14.8996  21319.3  146.099
 14.9416  20874  144.565
 14.9836  20941  144.763
 15.0256  20842.1  143.326
 15.0676  20884.4  143.794
 15.1096  20775  143.15
 15.1516  20195.4  141.701
 15.1936  20463.5  142.056
 15.2356  20184.1  141.366
 15.2776  19875.8  139.865
 15.3196  19577.3  139.822
 15.3616  19656.3  139.857
 15.4036  19447  138.957
 15.4456  19747.4  139.68
 15.4876  19389.4  138.083
 15.5296  19066.7  137.211
 15.5716  18959.5  136.428
 15.6136  18963.1  136.771
 15.6556  19012.6  136.179
 15.6976  18795.2  135.698
 15.7396  18612.4  135.43
 15.7816  18417.4  134.22
 15.8236  18302  134.51
 15.8656  18036  133.318
 15.9076  17952.6  132.836
 15.9496  17953  135.647
 15.9916  18046.7  136.45
 16.0336  17633.3  131.753
 16.0756  17827  132.788
 16.1176  17736.1  132.52
 16.1596  17160.4  131.533
 16.2016  17540.6  131.708
 16.2436  17248.2  130.999
 16.2856  17142.9  130.137
 16.3276  16890.2  129.596
 16.3696  17061.7  130.071
 16.4116  16862.3  129.772
 16.4536  17198.6  130.839
 16.4956  16820  129.125
 16.5376  16925.9  129.725
 16.5796  16681.4  128.136
 16.6216  16862.4  129.136
 16.6636  16695  128.653
 16.7056  16751.4  128.731
 16.7476  16791.2  128.413
 16.7896  16455.5  127.873
 16.8316  16659.3  128.622
 16.8736  16662.4  128.902
 16.9156  16570.6  128.882
 16.9576  16564.9  129.667
 16.9996  16534.3  130.038
 17.0416  16777.1  129.317
 17.0836  16690.2  128.732
 17.1256  16284  127.167
 17.1676  16488.3  127.95
 17.2096  16279  127.02
 17.2516  16255.3  126.708
 17.2936  16200.4  126.817
 17.3356  15827.2  125.357
 17.3776  15927.9  125.948
 17.4196  15961.4  125.768
 17.4616  15837.4  125.2
 17.5036  15407.9  123.85
 17.5456  15297.8  124.055
 17.5876  15283.5  123.041
 17.6296  15431.6  123.455
 17.6716  15091.8  122.661
 17.7136  14967.7  122.296
 17.7556  15057.3  122.953
 17.7976  14956.5  122.283
 17.8396  14882.2  121.477
 17.8816  14979  122.418
 17.9236  14710  121.124
 17.9656  14958.1  122.679
 18.0076  14790.8  121.575
 18.0496  14868.7  121.026
 18.0916  14856.1  121.517
 18.1336  14817.8  121.458
 18.1756  14878.4  121.234
 18.2176  14615.6  120.386
 18.2596  14583.2  119.987
 18.3016  14830.1  121.249
 18.3436  14636.7  120.467
 18.3856  14462.9  119.885
 18.4276  14686.4  120.474
 18.4696  14471.1  119.692
 18.5116  14439.5  119.846
 18.5536  14609.3  120.909
 18.5956  14312.4  119.223
 18.6376  14474.7  120.306
 18.6796  14467.9  119.598
 18.7216  14545.2  120.406
 18.7636  14312.9  119.432
 18.8056  14268.9  119.19
 18.8476  14169.5  119.399
 18.8896  14210.8  118.907
 18.9316  14410  119.721
 18.9736  14305.8  118.983
 19.0156  14166.9  118.812
 19.0576  14361.3  118.482
 19.0996  14331.6  119.064
 19.1416  14092.6  118.467
 19.1836  14129.7  118.222
 19.2256  13945.7  117.665
 19.2676  14188.8  118.776
 19.3096  14274.8  119.384
 19.3516  14186.2  118.974
 19.3936  14069.7  118.382
 19.4356  14183  118.728
 19.4776  14165.8  118.756
 19.5196  14057.4  118.149
 19.5616  14152.5  118.809
 19.6036  14057.5  117.905
 19.6456  14080.3  118.117
 19.6876  14204.9  118.286
 19.7296  14059.8  118.135
 19.7716  13938.1  117.787
 19.8136  14026.1  118.366
 19.8556  14392.4  119.374
 19.8976  14270.6  118.935
 19.9396  14382.4  118.976
 19.9816  14554.5  119.928
 20.0236  14710.7  120.79
 20.0656  15028.6  122.08
 20.1076  15119.3  122.933
 20.1496  15102.8  122.871
 20.1916  15023.4  122.044
 20.2336  14770.9  120.949
 20.2756  14439.4  120.019
 20.3176  14253  118.984
 20.3596  14320.3  119.241
 20.4016  14119.1  118.198
 20.4436  14049.8  118.473
 20.4856  13886.7  117.577
 20.5276  13869.8  117.97
 20.5696  13664  116.547
 20.6116  13609.1  116.588
 20.6536  13498.9  115.622
 20.6956  13574.8  116.075
 20.7376  13570  116.285
 20.7796  13572  115.977
 20.8216  13610.7  115.848
 20.8636  13504.5  115.764
 20.9056  13514  115.756
 20.9476  13205  114.264
 20.9896  13667.3  116.113
 21.0316  13524.1  115.394
 21.0736  13413.7  115.45
 21.1156  13378  115.452
 21.1576  13430.5  115.732
 21.1996  13282  115.074
 21.2416  13241.8  114.727
 21.2836  13201.3  114.518
 21.3256  13193.6  114.568
 21.3676  13257.3  114.388
 21.4096  13172.8  114.333
 21.4516  13197.2  114.319
 21.4936  12982.2  113.638
 21.5356  13202.3  114.544
 21.5776  13280.9  114.712
 21.6196  13056.4  113.773
 21.6616  13101.9  114.06
 21.7036  13103.5  113.846
 21.7456  13068.3  113.77
 21.7876  13085.4  113.584
 21.8296  12951.5  112.864
 21.8716  12938.8  113.041
 21.9136  13171.1  114.255
 21.9556  12957.8  112.998
 21.9976  12910.3  112.804
 22.0396  12915.8  113.087
 22.0816  12960.9  113.831
 22.1236  13069.7  113.752
 22.1656  12980.2  113.485
 22.2076  13086.8  113.42
 22.2496  13058.3  113.32
 22.2916  13040.1  113.126
 22.3336  12894.2  113.218
 22.3756  12967.1  113.259
 22.4176  12847.9  112.592
 22.4596  12726  112.648
 22.5016  12985.1  113.266
 22.5436  13031.6  113.359
 22.5856  13013.4  113.528
 22.6276  12959.6  113.43
 22.6696  12975.9  113.857
 22.7116  12725.1  112.264
 22.7536  12839  112.741
 22.7956  12864.7  112.178
 22.8376  12822.2  112.522
 22.8796  12976  112.986
 22.9216  13015.7  113.721
 22.9636  12923.3  112.455
 23.0056  12891.7  112.454
 23.0476  12883.3  112.994
 23.0896  13094.6  113.285
 23.1316  13044.3  113.511
 23.1736  12808.5  115.453
 23.2156  13068.2  113.951
 23.2576  12917  113.416
 23.2996  13055.8  113.812
 23.3416  12922.9  113.754
 23.3836  13079.9  113.665
 23.4256  13020.8  113.525
 23.4676  12852.4  112.484
 23.5096  12812.5  112.99
 23.5516  12901.5  112.658
 23.5936  12854.1  113.361
 23.6356  13216.7  114.609
 23.6776  12977.2  113.785
 23.7196  12681.2  112.042
 23.7616  12877.7  112.828
 23.8036  12786.3  112.467
 23.8456  12723.9  111.767
 23.8876  12551.1  111.359
 23.9296  12531.2  111.763
 23.9716  12632.4  111.402
 24.0136  12701.1  112.618
 24.0556  12355.8  110.803
 24.0976  12411.8  110.856
 24.1396  12468.5  113.8
 24.1816  12408.7  111.925
 24.2236  12328.3  111.166
 24.2656  12144.9  109.808
 24.3076  12239.4  110.487
 24.3496  12139.7  109.925
 24.3916  12210.7  110.298
 24.4336  12075.6  109.893
 24.4756  12124.4  109.994
 24.5176  11725.9  107.813
 24.5596  11983.5  109.119
 24.6016  11727.4  108.232
 24.6436  11847.6  108.277
 24.6856  11807.1  107.849
 24.7276  11932.4  108.737
 24.7696  11714.7  107.858
 24.8116  11666.3  107.812
 24.8536  11683.9  107.892
 24.8956  11617  107.321
 24.9376  11601.7  107.189
 24.9796  11483.4  106.996
 25.0216  11322.6  106.355
 25.0636  11565.8  107.141
 25.1056  11243.2  106.34
 25.1476  11473  109.096
 25.1896  11562.3  107.978
 25.2316  11598.9  107.413
 25.2736  11535.7  106.768
 25.3156  11381.4  106.131
 25.3576  11377.2  106.536
 25.3996  11477.8  106.991
 25.4416  11253.9  105.922
 25.4836  11169.8  106.052
 25.5256  11348.5  106.251
 25.5676  11350.3  105.986
 25.6096  11175.9  105.748
 25.6516  11382.6  106.212
 25.6936  11100.5  105.202
 25.7356  11263.4  106.105
 25.7776  11218.1  105.499
 25.8196  11034.1  104.863
 25.8616  11119  105.187
 25.9036  11154.4  104.823
 25.9456  11118.1  105.252
 25.9876  11034.3  104.918
 26.0296  11171.1  105.075
 26.0716  10990.2  104.647
 26.1136  11098.2  105.088
 26.1556  11274  105.299
 26.1976  10957.1  104.73
 26.2396  11069.1  104.417
 26.2816  11071.5  105.048
 26.3236  11021.4  104.964
 26.3656  11020.2  104.681
 26.4076  11184.8  105.676
 26.4496  11437.3  106.344
 26.4916  11169.1  105.097
 26.5336  11108.4  105.134
 26.5756  11252.5  105.678
 26.6176  11040.8  104.726
 26.6596  10861  104.174
 26.7016  10998.5  104.587
 26.7436  10775  103.654
 26.7856  10796.8  103.74
 26.8276  10785.8  103.645
 26.8696  10761.1  103.397
 26.9116  10860.6  103.813
 26.9536  10720.7  103.19
 26.9956  10748  103.356
 27.0376  10671.3  103.199
 27.0796  10846.5  103.776
 27.1216  10640.1  102.859
 27.1636  10552  102.6
 27.2056  10588.5  102.658
 27.2476  10556.8  102.503
 27.2896  10537.2  102.519
 27.3316  10543.2  102.263
 27.3736  10503.2  102.327
 27.4156  10544.8  102.375
 27.4576  10515.8  102.467
 27.4996  10431  101.65
 27.5416  10471.8  102.166
 27.5836  10466.1  101.958
 27.6256  10837.2  103.917
 27.6676  10606.8  102.823
 27.7096  10426.5  101.81
 27.7516  10330  101.493
 27.7936  10377.5  101.898
 27.8356  10362.7  101.444
 27.8776  10293.8  101.152
 27.9196  10290.8  100.981
 27.9616  10452  101.959
 28.0036  10287.9  101.135
 28.0456  10258.6  101.124
 28.0876  10184.4  100.849
 28.1296  10276.6  101.144
 28.1716  10255.4  101.046
 28.2136  10238  100.928
 28.2556  10102.9  100.374
 28.2976  10119.1  100.446
 28.3396  10193.1  100.569
 28.3816  10109.7  100.179
 28.4236  10174.4  100.652
 28.4656  10099.2  100.316
 28.5076  10039.1  99.6552
 28.5496  10122.1  100.327
 28.5916  10212.5  100.578
 28.6336  10016  99.9539
 28.6756  10157  99.8456
 28.7176  10063.3  99.9319
 28.7596  10014.5  99.5895
 28.8016  10041.7  99.7578
 28.8436  9829.6  98.9443
 28.8856  10023.3  99.7593
 28.9276  9930.21  99.5444
 28.9696  9950.84  99.3053
 29.0116  9958.25  99.5254
 29.0536  9900.2  99.4384
 29.0956  9897.81  99.1401
 29.1376  9882.84  99.0309
 29.1796  9815.48  98.7378
 29.2216  9948.94  99.2446
 29.2636  9873.28  98.9455
 29.3056  9921.25  98.9737
 29.3476  9834.25  99.0664
 29.3896  9898.88  99.485
 29.4316  9990.04  99.2737
 29.4736  9872.93  98.7524
 29.5156  10044.8  99.5199
 29.5576  9833.35  99.218
 29.5996  9922.98  98.9233
 29.6416  9735.97  98.1048
 29.6836  9861.38  98.6629
 29.7256  9884.35  99.3499
 29.7676  9836.11  98.7635
 29.8096  9840.25  98.7283
 29.8516  9616.96  97.9363
 29.8936  9897.44  99.4478
 29.9356  9767.06  98.5377
 29.9776  9655.69  98.1323
 30.0196  9744.27  97.9584
 30.0616  9776.44  98.5054
 30.1036  9702.06  97.9529
 30.1456  9606.96  97.7076
 30.1876  9738.52  98.3505
 30.2296  9609.93  97.6478
 30.2716  9728.45  97.8812
 30.3136  9832.96  99.2783
 30.3556  9745.42  98.8483
 30.3976  9589.89  99.5818
 30.4396  9809.75  98.0227
 30.4816  9782.69  97.4801
 30.5236  9634.99  96.7638
 30.5656  9617.49  97.3262
 30.6076  9611.99  96.7275
 30.6496  9564.49  96.8743
 30.6916  9534.05  96.8138
 30.7336  9463.79  96.6069
 30.7756  9675.75  97.7751
 30.8176  9515.92  96.8815
 30.8596  9542.69  96.7733
 30.9016  9684.5  97.8467
 30.9436  9571.08  97.0249
 30.9856  9625.93  97.4128
 31.0276  9457.28  96.1539
 31.0696  9572.81  97.3274
 31.1116  9359.2  96.2109
 31.1536  9590.18  97.2734
 31.1956  9424.23  96.5169
 31.2376  9390.22  96.355
 31.2796  9393.02  95.9031
 31.3216  9435.92  96.0648
 31.3636  9509.8  97.135
 31.4056  9440.56  98.1186
 31.4476  9524.29  96.404
 31.4896  9382.55  96.1896
 31.5316  9462.38  95.987
 31.5736  9332.33  95.1514
 31.6156  9389.6  95.461
 31.6576  9577.84  96.5049
 31.6996  9377.16  95.1659
 31.7416  9250.24  95.5827
 31.7836  9396.27  95.342
 31.8256  9238.27  94.8089
 31.8676  9486.56  96.0726
 31.9096  9359.96  95.7884
 31.9516  9132.51  94.7767
 31.9936  9239.83  95.1551
 32.0356  9292.78  95.4969
 32.0776  9320.22  95.5183
 32.1196  9320.73  95.6078
 32.1616  9335.26  95.1425
 32.2036  9131.3  94.6081
 32.2456  9095.62  94.803
 32.2876  9128.09  94.469
 32.3296  9104.07  94.3086
 32.3716  9154.09  94.6715
 32.4136  9233.07  95.3012
 32.4556  9278.38  94.9019
 32.4976  9310.57  94.9747
 32.5396  9164.63  94.2952
 32.5816  9099.81  94.0842
 32.6236  9234.69  94.8508
 32.6656  9291.54  95.6885
 32.7076  9111.35  94.4099
 32.7496  9124.73  94.1354
 32.7916  9180.96  94.39
 32.8336  9137.42  94.2686
 32.8756  9222.97  94.4257
 32.9176  8966.57  93.5797
 32.9596  9004.12  93.8542
 33.0016  9037.34  93.8248
 33.0436  9127.55  94.4626
 33.0856  9041.26  94.0853
 33.1276  8988.25  93.5407
 33.1696  9037.22  93.6377
 33.2116  9108.55  94.2303
 33.2536  9027.13  93.8144
 33.2956  9155.44  94.5655
 33.3376  9051.41  93.7634
 33.3796  9101.5  94.2319
 33.4216  9103.8  93.8371
 33.4636  9220.62  94.5846
 33.5056  8973.7  93.5542
 33.5476  9044.31  93.9119
 33.5896  9210.96  94.5408
 33.6316  8995.31  93.745
 33.6736  8897.01  93.4831
 33.7156  8889.35  93.4816
 33.7576  9093.27  94.1732
 33.7996  9045.7  93.6871
 33.8416  8902.81  93.1263
 33.8836  8977.97  93.2958
 33.9256  8919.25  93.0583
 33.9676  8939.91  93.0595
 34.0096  8808.16  92.6875
 34.0516  8911.14  92.8612
 34.0936  8769.97  92.389
 34.1356  8965.88  93.155
 34.1776  8841.75  92.5171
 34.2196  8773.77  92.342
 34.2616  8822.83  92.7336
 34.3036  8696.89  92.3211
 34.3456  8890.56  93.0929
 34.3876  8788.68  92.5191
 34.4296  8872.47  92.6407
 34.4716  8855.65  92.7149
 34.5136  8819.97  92.7289
 34.5556  8775.63  92.7484
 34.5976  8760.75  92.4727
 34.6396  8787.7  92.3269
 34.6816  8741.1  92.1963
 34.7236  8807.79  92.331
 34.7656  8803.43  92.5058
 34.8076  8579.78  91.6439
 34.8496  8600.69  91.6127
 34.8916  8731.76  92.1806
 34.9336  8826.3  92.6434
 34.9756  8717.23  91.9923
 35.0176  8733.07  92.599
 35.0596  8625.58  91.8554
 35.1016  8696.54  92.0009
 35.1436  8819.14  92.3258
 35.1856  8585.18  91.2263
 35.2276  8778.36  92.4234
 35.2696  8613.22  91.7386
 35.3116  8628.11  91.9135
 35.3536  8587.04  91.4005
 35.3956  8599.54  91.1789
 35.4376  8645.28  91.9802
 35.4796  8684.74  92.2501
 35.5216  8619.97  91.8622
 35.5636  8455.01  91.7252
 35.6056  8664.74  91.8633
 35.6476  8744.59  92.1805
 35.6896  8681.1  91.9327
 35.7316  8511  91.0003
 35.7736  8497.52  91.1281
 35.8156  8493.1  91.1037
 35.8576  8644.66  92.1647
 35.8996  8659.81  92.2118
 35.9416  8834.16  92.5832
 35.9836  8488.93  91.1523
 36.0256  8562.26  91.5636
 36.0676  8581.69  91.4234
 36.1096  8387.22  90.5216
 36.1516  8592.48  91.5115
 36.1936  8518.72  90.9628
 36.2356  8503.67  91.5317
 36.2776  8478.9  90.8722
 36.3196  8553.35  90.934
 36.3616  8504.98  90.8113
 36.4036  8472.66  90.6936
 36.4456  8499.47  91.0539
 36.4876  8395.8  90.4347
 36.5296  8439.47  90.7137
 36.5716  8361.27  91.074
 36.6136  8569.79  90.9522
 36.6556  8577.89  91.206
 36.6976  8396.04  90.7334
 36.7396  8428.99  90.6358
 36.7816  8476.51  91.2705
 36.8236  8435.38  90.9712
 36.8656  8363.07  90.6587
 36.9076  8392.8  90.692
 36.9496  8452.51  91.0048
 36.9916  8414.55  90.4244
 37.0336  8540.51  91.4207
 37.0756  8424.31  90.5845
 37.1176  8156.82  89.4039
 37.1596  8401.51  90.739
 37.2016  8324.58  90.5514
 37.2436  8511.8  90.8637
 37.2856  8289.97  89.9302
 37.3276  8385.09  89.7934
 37.3696  8212.6  89.7495
 37.4116  8327.28  90.2827
 37.4536  8386.11  90.4651
 37.4956  8343.31  90.277
 37.5376  8331.43  91.7979
 37.5796  8361.12  91.9032
 37.6216  8080.71  88.6207
 37.6636  8148.61  88.8931
 37.7056  8160.35  89.1515
 37.7476  8287.19  89.3719
 37.7896  8234.92  89.5917
 37.8316  8033.93  88.6655
 37.8736  8254.46  89.3956
 37.9156  8298.93  89.636
 37.9576  8249.55  89.2502
 37.9996  8081.78  88.067
 38.0416  8139.35  89.1953
 38.0836  8447.42  90.7674
 38.1256  8185.4  89.28
 38.1676  8004.37  88.4491
 38.2096  8189.21  89.0868
 38.2516  8274.14  89.7497
 38.2936  8161.63  88.9372
 38.3356  8248  89.3295
 38.3776  8030.59  88.411
 38.4196  8175.8  89.0565
 38.4616  8087.65  88.8112
 38.5036  8234.04  89.4563
 38.5456  8021.35  89.1304
 38.5876  8131.08  89.7666
 38.6296  8006.2  88.0508
 38.6716  8110.78  88.4097
 38.7136  8096.09  88.2771
 38.7556  8064.25  88.6117
 38.7976  8039.87  88.4139
 38.8396  7971.04  88.4888
 38.8816  7995.61  88.3991
 38.9236  8069.29  88.6204
 38.9656  8122.78  88.8259
 39.0076  8147.95  88.3621
 39.0496  8158.71  88.9716
 39.0916  8212.72  88.8884
 39.1336  8034.56  88.3518
 39.1756  8033.58  88.4085
 39.2176  8056.8  89.0736
 39.2596  8020.45  88.7968
 39.3016  8036.96  88.4485
 39.3436  7914.12  88.2043
 39.3856  8187.99  89.1572
 39.4276  8009.77  88.6807
 39.4696  8051.9  88.5346
 39.5116  7906.9  88.2487
 39.5536  8146.61  90.0082
 39.5956  8207.14  89.4253
 39.6376  8121.22  88.962
 39.6796  8044.9  88.2782
 39.7216  8060.89  88.4619
 39.7636  8197.35  89.7885
 39.8056  8200.27  89.5812
 39.8476  7974.49  88.5974
 39.8896  7945.78  88.0655
 39.9316  8059.44  88.9545
 39.9736  8123.2  88.8631
 40.0156  8172.5  88.9603
 40.0576  8054.09  88.6689
 40.0996  8172.5  88.4866
 40.1416  8041.9  88.5783
 40.1836  8090.31  88.7392
 40.2256  8102.5  88.8506
 40.2676  8049.51  88.6681
 40.3096  8176.6  89.2846
 40.3516  8194.9  89.4962
 40.3936  8199.88  89.0794
 40.4356  8052.45  88.4643
 40.4776  8148.78  89.4146
 40.5196  8166.84  89.6429
 40.5616  8189.29  89.4018
 40.6036  8097.91  89.1538
 40.6456  8156.22  89.0828
 40.6876  8194.72  89.2782
 40.7296  8090.95  88.853
 40.7716  8155.62  89.3362
 40.8136  8110.23  89.0224
 40.8556  8068.06  88.9297
 40.8976  8165.53  89.3875
 40.9396  8039.19  89.0452
 40.9816  8137.21  88.861
 41.0236  8200.99  88.9894
 41.0656  8171.89  89.3728
 41.1076  8177.88  89.1771
 41.1496  8108.5  88.7062
 41.1916  8092.21  88.9425
 41.2336  7996.57  88.4033
 41.2756  8157.48  88.8913
 41.3176  8055.73  88.9527
 41.3596  8214.79  89.553
 41.4016  8066.54  89.0064
 41.4436  8140.99  89.1927
 41.4856  8086.43  89.0591
 41.5276  8126.47  89.3015
 41.5696  8111.16  88.8392
 41.6116  8028.31  88.786
 41.6536  8085.56  88.9608
 41.6956  8097.78  89.0815
 41.7376  8187.7  89.6019
 41.7796  7929.84  88.0633
 41.8216  8119.35  89.3482
 41.8636  8071.01  89.019
 41.9056  7927.25  88.0149
 41.9476  8077.1  89.0774
 41.9896  8039.05  88.527
 42.0316  8072.98  88.7988
 42.0736  8097.46  89.0494
 42.1156  7934.52  87.9855
 42.1576  8095.2  88.9715
 42.1996  8032.27  88.7683
 42.2416  8051.92  88.4523
 42.2836  7951.78  88.0133
 42.3256  7873.23  87.695
 42.3676  8063.58  88.5518
 42.4096  8062.42  88.5073
 42.4516  8003.52  88.2717
 42.4936  7903.57  87.7892
 42.5356  7970.23  88.2904
 42.5776  8074.41  88.8036
 42.6196  8109.1  89.0532
 42.6616  7833.41  87.6935
 42.7036  8061.05  88.3369
 42.7456  8000.7  88.3662
 42.7876  8011.14  88.5168
 42.8296  7938.09  87.9479
 42.8716  7920.61  88.0133
 42.9136  7986.53  88.1683
 42.9556  7959.89  88.1524
 42.9976  7952.4  88.0743
 43.0396  7940.36  87.7384
 43.0816  7962.82  88.2442
 43.1236  7813.97  87.4755
 43.1656  8012.97  88.4049
 43.2076  7830.49  87.5036
 43.2496  7834.95  87.3295
 43.2916  7871.48  87.9117
 43.3336  7806.45  87.3855
 43.3756  7781.59  86.9967
 43.4176  7728.35  86.7808
 43.4596  7736.51  86.684
 43.5016  7889.61  87.9461
 43.5436  7817.21  87.4445
 43.5856  7783.67  87.2842
 43.6276  7831.11  87.4412
 43.6696  7742.11  87.2018
 43.7116  7829.13  87.184
 43.7536  7850.73  87.7972
 43.7956  7793.53  88.6561
 43.8376  7758.59  87.0089
 43.8796  7748.7  87.038
 43.9216  7714.9  86.7674
 43.9636  7803.31  87.374
 44.0056  7687.69  86.9514
 44.0476  7826.28  87.3612
 44.0896  7724.41  87.1353
 44.1316  7788.23  87.0119
 44.1736  7735.56  86.8425
 44.2156  7718.29  86.5955
 44.2576  7759.99  87.1614
 44.2996  7774.22  87.2107
 44.3416  7765.28  86.9207
 44.3836  7538.2  85.9674
 44.4256  7514.87  85.4799
 44.4676  7568.95  85.9421
 44.5096  7611.32  86.3259
 44.5516  7666.56  86.5952
 44.5936  7598.58  86.1721
 44.6356  7643.89  86.1634
 44.6776  7681.31  86.6964
 44.7196  7577.09  86.4156
 44.7616  7622.68  88.0096
 44.8036  7441.67  85.3955
 44.8456  7606.13  86.539
 44.8876  7506.24  85.8126
 44.9296  7675.64  86.2286
 44.9716  7546.05  85.9271
 45.0136  7694.16  86.6964
 45.0556  7641.97  86.3784
 45.0976  7530.34  85.9094
 45.1396  7605.64  86.1047
 45.1816  7511.06  85.4917
 45.2236  7573.88  85.7516
 45.2656  7548.12  86.1083
 45.3076  7462.64  85.395
 45.3496  7426.43  85.5002
 45.3916  7569.88  86.5907
 45.4336  7450.46  85.735
 45.4756  7501.76  85.894
 45.5176  7448.19  85.2098
 45.5596  7551.1  85.919
 45.6016  7445.51  85.7345
 45.6436  7476.48  85.0881
 45.6856  7433.01  85.4968
 45.7276  7406.17  86.6818
 45.7696  7494.64  86.8413
 45.8116  7467.79  86.1235
 45.8536  7472.25  86.0407
 45.8956  7436.99  85.1919
 45.9376  7478.81  84.8938
 45.9796  7472.76  85.5433
 46.0216  7605.58  86.6489
 46.0636  7570.39  85.5892
 46.1056  7452.26  84.9008
 46.1476  7511.65  85.8367
 46.1896  7403.84  85.3689
 46.2316  7451.46  85.5134
 46.2736  7251.76  84.7227
 46.3156  7576.97  86.1821
 46.3576  7417.47  85.4738
 46.3996  7296.24  84.931
 46.4416  7420.3  85.2226
 46.4836  7249.69  84.5929
 46.5256  7435.18  85.6078
 46.5676  7303.7  84.9589
 46.6096  7429.98  85.6141
 46.6516  7382.52  84.3952
 46.6936  7471.93  85.3992
 46.7356  7397.56  85.0751
 46.7776  7314.22  85.4375
 46.8196  7397.15  85.5117
 46.8616  7220.11  84.4295
 46.9036  7202.98  83.9908
 46.9456  7259.79  83.9653
 46.9876  7334.2  84.4778
 47.0296  7315.09  85.0557
 47.0716  7239.5  84.4405
 47.1136  7166.21  83.6862
 47.1556  7276.66  84.2001
 47.1976  7263.73  84.2078
 47.2396  7299.39  84.7957
 47.2816  7174.49  83.7877
 47.3236  7230.07  84.4826
 47.3656  7259.36  84.5811
 47.4076  7168.84  83.8564
 47.4496  7220.59  84.2539
 47.4916  7204.14  84.3452
 47.5336  7325.37  84.8651
 47.5756  7316.69  84.9359
 47.6176  7168.06  83.9668
 47.6596  7124.05  83.4263
 47.7016  7304.6  84.2902
 47.7436  7258.73  84.3623
 47.7856  7327.33  84.7786
 47.8276  7160.2  83.8577
 47.8696  7218.95  84.292
 47.9116  7235.32  84.0995
 47.9536  7215.18  83.9278
 47.9956  7087.31  83.8828
 48.0376  7073.91  83.5788
 48.0796  7180.11  84.3343
 48.1216  7262.34  84.6283
 48.1636  7353.66  84.7354
 48.2056  7233.86  84.3039
 48.2476  7212.87  84.4928
 48.2896  7096.41  83.716
 48.3316  7162.04  84.0432
 48.3736  7060.27  83.4694
 48.4156  7114.32  83.6403
 48.4576  7057.38  83.5974
 48.4996  7209.62  83.9484
 48.5416  7137.64  83.8507
 48.5836  7114.51  83.392
 48.6256  7095.84  83.4751
 48.6676  7039.91  83.6691
 48.7096  7163.33  83.6701
 48.7516  7115.4  83.5287
 48.7936  6936.08  82.538
 48.8356  7134.06  83.7594
 48.8776  7054.92  83.8582
 48.9196  7136.55  83.7168
 48.9616  6995.64  83.2608
 49.0036  7142.16  84.4756
 49.0456  7013.74  83.7006
 49.0876  7102.85  83.7629
 49.1296  6984.21  83.2127
 49.1716  6937.05  82.8074
 49.2136  7043.96  83.3815
 49.2556  7047.32  83.4258
 49.2976  7045.53  83.4821
 49.3396  7048.16  83.5546
 49.3816  7090.51  83.2339
 49.4236  6985.15  83.0371
 49.4656  6950.39  82.8512
 49.5076  7131.79  83.671
 49.5496  6998.9  82.9473
 49.5916  7032.59  83.0619
 49.6336  6974.18  82.9157
 49.6756  6968.25  83.1174
 49.7176  7110.8  83.9082
 49.7596  6933.21  82.6209
 49.8016  6991.4  82.8885
 49.8436  6900.91  82.6389
 49.8856  6908.28  82.6959
 49.9276  6817.41  82.2436
 49.9696  6979.93  83.2055
 50.0116  6980.78  83.3421
 50.0536  6980.37  83.2842
 50.0956  6898.16  82.8669
 50.1376  6967.29  82.9755
 50.1796  6785.59  82.1548
 50.2216  6880.12  82.7203
 50.2636  6838.11  82.0881
 50.3056  6816.9  82.1339
 50.3476  6882.52  82.5491
 50.3896  6856.4  82.3592
 50.4316  6802.91  81.8768
 50.4736  6802.51  82.0912
 50.5156  6836.91  82.2917
 50.5576  6920.26  82.5537
 50.5996  6855.87  82.4461
 50.6416  6779.67  81.9178
 50.6836  6918.67  82.8123
 50.7256  6884.67  82.538
 50.7676  6905.62  82.9768
 50.8096  6753.31  81.5954
 50.8516  6809.11  82.3486
 50.8936  6717.26  81.5724
 50.9356  6880.03  82.6587
 50.9776  6836.1  82.5483
 51.0196  6722.85  81.9903
 51.0616  6691.34  81.1298
 51.1036  6831.02  82.3298
 51.1456  6824.1  82.2005
 51.1876  6811.62  81.4692
 51.2296  6846.29  82.3147
 51.2716  6762.16  81.5128
 51.3136  6727.23  81.7571
 51.3556  6820.79  81.9461
 51.3976  6762.03  81.7432
 51.4396  6602.66  81.0718
 51.4816  6579.38  80.7854
 51.5236  6709.34  81.6676
 51.5656  6676.79  81.0728
 51.6076  6713.99  81.3797
 51.6496  6747.99  81.7798
 51.6916  6656.58  81.5758
 51.7336  6676.83  81.7925
 51.7756  6695.95  81.6076
 51.8176  6649.96  81.4243
 51.8596  6710.48  81.819
 51.9016  6819.63  82.082
 51.9436  6672.76  82.664
 51.9856  6605.02  82.6593
 52.0276  6726.17  81.923
 52.0696  6526.81  80.7644
 52.1116  6571.58  81.1548
 52.1536  6682.07  81.7182
 52.1956  6701.83  81.3106
 52.2376  6729.9  81.6526
 52.2796  6728.33  81.4468
 52.3216  6518.2  80.8558
 52.3636  6740.94  81.7995
 52.4056  6614.63  80.8851
 52.4476  6548.38  80.8458
 52.4896  6488.06  80.5237
 52.5316  6637.1  81.4896
 52.5736  6551.12  80.6889
 52.6156  6576.32  81.2171
 52.6576  6580.58  80.6864
 52.6996  6391.64  80.4771
 52.7416  6637.58  81.8618
 52.7836  6622.28  81.6572
 52.8256  6567.92  80.551
 52.8676  6443.91  80.3555
 52.9096  6510.49  80.8468
 52.9516  6487.15  81.0748
 52.9936  6500.64  81.546
 53.0356  6445.96  80.2114
 53.0776  6526.99  80.978
 53.1196  6391.37  80.2563
 53.1616  6420.17  80.4833
 53.2036  6462.84  80.7067
 53.2456  6354.52  80.1283
 53.2876  6439.68  80.3684
 53.3296  6354.8  80.16
 53.3716  6440.22  80.4363
 53.4136  6343.39  79.9763
 53.4556  6419.64  80.4937
 53.4976  6344.77  79.8723
 53.5396  6425.12  80.7691
 53.5816  6352.48  79.9497
 53.6236  6352.95  80.2922
 53.6656  6357.67  79.9536
 53.7076  6428.28  80.3569
 53.7496  6436.33  80.5266
 53.7916  6444.69  80.7021
 53.8336  6335.68  79.9192
 53.8756  6295.39  80.2096
 53.9176  6452.28  80.5451
 53.9596  6380.41  80.8606
 54.0016  6369.96  80.1272
 54.0436  6400.41  80.5352
 54.0856  6473.86  80.4178
 54.1276  6360.51  79.9162
 54.1696  6386.74  80.249
 54.2116  6412.67  80.1641
 54.2536  6425.39  80.0607
 54.2956  6487.66  80.4922
 54.3376  6412.62  80.5147
 54.3796  6425.02  80.4922
 54.4216  6458.7  80.7528
 54.4636  6426.84  80.5107
 54.5056  6406.13  80.2017
 54.5476  6340.08  80.1189
 54.5896  6392.07  80.2796
 54.6316  6382.04  80.0735
 54.6736  6247.72  79.2966
 54.7156  6347.2  79.9559
 54.7576  6345.75  79.9319
 54.7996  6469.43  80.8488
 54.8416  6340.42  80.0957
 54.8836  6294.4  79.9125
 54.9256  6283.31  79.5921
 54.9676  6439.68  80.4302
 55.0096  6462.42  80.6434
 55.0516  6377.74  80.3409
 55.0936  6391.52  80.059
 55.1356  6346.21  79.8199
 55.1776  6349.19  80.1078
 55.2196  6322.04  79.7173
 55.2616  6397.07  80.4084
 55.3036  6239.2  79.5656
 55.3456  6367.99  80.5307
 55.3876  6323.74  79.9957
 55.4296  6327.91  80.0003
 55.4716  6292.33  79.8033
 55.5136  6359.86  79.983
 55.5556  6335.5  79.9062
 55.5976  6342.6  80.0131
 55.6396  6239.62  79.3065
 55.6816  6369.11  80.004
 55.7236  6388.68  80.166
 55.7656  6434.84  80.2113
 55.8076  6415.65  80.0771
 55.8496  6186.08  78.9479
 55.8916  6294.15  79.8394
 55.9336  6267.85  79.4838
 55.9756  6244.66  79.2306
 56.0176  6260.64  79.4851
 56.0596  6239.43  79.3313
 56.1016  6268.28  79.5282
 56.1436  6177.23  79.2081
 56.1856  6371.4  80.1844
 56.2276  6331.46  79.9909
 56.2696  6294.49  79.7235
 56.3116  6274.96  80.0092
 56.3536  6223.41  79.3354
 56.3956  6214.61  79.2701
 56.4376  6220.27  79.3406
 56.4796  6348.92  79.9554
 56.5216  6246.17  79.6784
 56.5636  6339.87  79.8644
 56.6056  6178.72  79.0722
 56.6476  6220.26  78.9683
 56.6896  6336.51  80.154
 56.7316  6279.22  79.7029
 56.7736  6335.61  80.0476
 56.8156  6295.09  79.7982
 56.8576  6239.64  79.3863
 56.8996  6224.8  79.2266
 56.9416  6279.9  79.8773
 56.9836  6123.61  78.3967
 57.0256  6247.58  79.5068
 57.0676  6169.07  79.1332
 57.1096  6256.51  79.4744
 57.1516  6331.22  80.0164
 57.1936  6146.36  78.5753
 57.2356  6203.08  79.2694
 57.2776  6197.88  79.1895
 57.3196  6251.16  79.9029
 57.3616  6292.23  79.65
 57.4036  6246.66  79.4249
 57.4456  6262.22  79.4907
 57.4876  6220.56  79.0839
 57.5296  6153.85  78.9984
 57.5716  6161.85  79.0387
 57.6136  6214.91  79.1918
 57.6556  6114.85  78.6856
 57.6976  6216.5  79.1654
 57.7396  6145.71  79.0837
 57.7816  6076.66  79.0035
 57.8236  6166.12  79.3738
 57.8656  6214.99  79.346
 57.9076  6161.81  79.0306
 57.9496  6180.54  79.504
 57.9916  6210.3  79.2045
 58.0336  6122.79  78.9188
 58.0756  6243.93  79.3323
 58.1176  6174.51  78.8819
 58.1596  6125.06  79.1399
 58.2016  6251.83  79.1649
 58.2436  6230.64  79.449
 58.2856  6253.76  79.5156
 58.3276  6195.45  79.5181
 58.3696  6190.24  79.226
 58.4116  6229.53  79.3464
 58.4536  6241.44  79.3026
 58.4956  6206.01  79.2631
 58.5376  6252.67  79.1282
 58.5796  6153.23  78.9227
 58.6216  6214.18  79.1258
 58.6636  6251.55  79.58
 58.7056  6297.4  79.7167
 58.7476  6099.68  78.9098
 58.7896  6213.36  79.2827
 58.8316  6160.36  78.9374
 58.8736  6260.96  79.5881
 58.9156  6214.19  79.3361
 58.9576  6294.91  80.1723
 58.9996  6316.27  79.5384
 59.0416  6325.55  79.9734
 59.0836  6221.44  79.2352
 59.1256  6138.33  79.4066
 59.1676  6134.23  79.6934
 59.2096  6360.27  80.4415
 59.2516  6194.34  78.961
 59.2936  6424.3  80.7516
 59.3356  6326.81  80.0114
 59.3776  6261.16  79.7674
 59.4196  6216.78  79.4182
 59.4616  6317.65  79.9177
 59.5036  6004.12  77.9441
 59.5456  6311.94  79.6042
 59.5876  6299.91  79.7235
 59.6296  6079.98  78.389
 59.6716  6141.12  78.8406
 59.7136  6233.88  79.4219
 59.7556  6144.22  78.9863
 59.7976  6123.42  78.5929
 59.8396  6199.68  78.9736
 59.8816  6196.14  79.5037
 59.9236  6298.31  79.7924
 59.9656  6182.2  79.3158
 60.0076  6133.59  78.3571
 60.0496  6261.99  79.6859
 60.0916  6553.3  80.9125
 60.1336  6011.33  78.5992
 60.1756  6250.14  81.35
 60.1996  0.0000000E+00  0.0000000E+00