File: docs/examples/opeando_xrd/IS17_D/Data/IS17_D/17_Db_f00074.xye
# /beamlines/bl04/projects/cycle2025-II/20250340211-lsimonelli/DATA/IS17_D/17_Db_f00074.xye : mythproc.py merge -s 0.006 -l 0.5 -f /beamlines/bl04/inhouse/ff/FlatField/ff_20Nov2024rod8mm60s_17keV.raw -b True -c true -o xye /beamlines/bl04/projects/cycle2025-II/20250340211-lsimonelli/DATA/IS17_D/17_Db_00074.dat
# IsMon = [6793014, 6784362, 6786614]  IsPos = [-1.4999, -2.4885, -3.4988]
# Wave = 0.4962  CalPath /beamlines/bl04/projects/cycle2025-II/20250340211-lsimonelli/DATA/Align/Si_Pos1_25keV_f00001.cal
# Date = 2025-09-24_14:17:26 Dt = 4.8000  Bin = 0.0060  <imon> = 6787997 +/- 3665 (Min/Max) 6784362 / 6793014
# icurr 253.2481  mocoIn 1.7263E-05  mocoOut 0.8106  i15 7.11363e+06  imon 6.788e+06  i7 6.0000  iEMpd_timer 4.8000  iEMpd_1 3.3766E-08  iEMpd_2 7.7817E-08  iEMpd_3 1.5337E-08  iEMpd_4 4.6994E-08  iEMhp_timer 4.8000  iEMhp_1 4.9452E-06  iEMhp_2 -2.4643E-08  iEMhp_3 -2.5089E-08  iEMhp_4 -2.0444E-08
#      9776
 1.5856  42779.3  212.305
 1.6276  49604.6  224.692
 1.6696  55399.4  236.616
 1.7116  62379.8  251.572
 1.7536  70587.7  266.471
 1.7956  74703.3  274.815
 1.8376  71492  269.269
 1.8796  61407.5  247.724
 1.9216  51223  227.149
 1.9636  43317.3  208.03
 2.0056  39339.6  197.48
 2.0476  36999.9  193.617
 2.0896  35255.8  187.89
 2.1316  34506.9  184.99
 2.1736  32631.8  181.321
 2.2156  33412.8  182.006
 2.2576  31975.3  178.685
 2.2996  31136.5  176.974
 2.3416  31151.7  175.603
 2.3836  30864.2  174.899
 2.4256  29887.3  172.67
 2.4676  29316.7  170.771
 2.5096  29683.7  171.893
 2.5516  37001.5  196.38
 2.5936  179034  422.825
 2.6356  31586.6  178.556
 2.6776  27768.6  166.312
 2.7196  26896.4  164.166
 2.7616  26466.8  162.641
 2.8036  26268.4  162.191
 2.8456  25966.3  161.891
 2.8876  25743.9  161.037
 2.9296  25311.2  159.835
 2.9716  24959.5  158.207
 3.0136  24797.9  157.753
 3.0556  24759.6  158.027
 3.0976  24800.7  157.061
 3.1396  24484.3  156.785
 3.1816  24019.6  155.238
 3.2236  23842.8  154.663
 3.2656  23784.5  153.539
 3.3076  23708.9  154.734
 3.3496  24040.3  154.981
 3.3916  24275.1  155.318
 3.4336  24629.2  157.027
 3.4756  24974.4  158.05
 3.5176  25640.9  159.932
 3.5596  25567.5  162.129
 3.6016  25451.8  159.42
 3.6436  24757.5  158.338
 3.6856  24373  155.412
 3.7276  23334.8  153.146
 3.7696  23148  152.71
 3.8116  23006.2  152.131
 3.8536  23138.9  152.49
 3.8956  22974.1  151.779
 3.9376  23793.9  154.735
 3.9796  22739.7  150.762
 4.0216  22915.7  150.394
 4.0636  22967.8  152.015
 4.1056  22747  150.958
 4.1476  23130.9  152.503
 4.1896  23090.9  152.254
 4.2316  23364.6  152.969
 4.2736  23706.3  153.892
 4.3156  23846.2  154.581
 4.3576  24557.3  156.775
 4.3996  24816.2  157.876
 4.4416  25701.5  160.241
 4.4836  27269  165.23
 4.5256  26854.1  164.55
 4.5676  26362.5  163.308
 4.6096  26930.4  163.697
 4.6516  27575.9  165.364
 4.6936  27432.6  165.766
 4.7356  28792.1  169.638
 4.7776  27702.7  166.239
 4.8196  27293.3  165.618
 4.8616  26715.1  163.5
 4.9036  26565.4  162.63
 4.9456  26782.1  163.963
 4.9876  26098.2  161.762
 5.0296  25939.7  161.1
 5.0716  25724.9  161.053
 5.1136  26010.9  161.793
 5.1556  26270.7  162.076
 5.1976  37396.9  193.292
 5.2396  27037.6  164.1
 5.2816  26926.3  164.214
 5.3236  26726.6  163.323
 5.3656  26069.2  162.216
 5.4076  25969.2  162.042
 5.4496  26083  161.915
 5.4916  26159.6  161.893
 5.5336  26114.2  161.776
 5.5756  26181.2  161.966
 5.6176  26204.5  161.503
 5.6596  26379  162.992
 5.7016  26517.3  162.71
 5.7436  26596.7  163.228
 5.7856  26400.8  162.692
 5.8276  26736.9  163.454
 5.8696  27035.6  164.522
 5.9116  26817.3  164.452
 5.9536  27352.5  165.815
 5.9956  27431.2  165.459
 6.0376  27263  165.563
 6.0796  27838.7  167.135
 6.1216  27625.1  166.702
 6.1636  28032.1  166.963
 6.2056  27910.3  167.301
 6.2476  27940.1  167.249
 6.2896  28386.8  168.258
 6.3316  28226.5  167.935
 6.3736  28232.1  167.863
 6.4156  28487.1  168.495
 6.4576  28584.6  168.421
 6.4996  28543.6  168.787
 6.5416  28674.2  169.28
 6.5836  29230.5  171.167
 6.6256  28990.1  170.01
 6.6676  29268.2  170.4
 6.7096  29454.3  171.779
 6.7516  29700.9  172.169
 6.7936  30997.2  175.269
 6.8356  31636.8  177.184
 6.8776  30749.7  175.497
 6.9196  30305.8  174.613
 6.9616  30756.1  175.315
 7.0036  31022.7  175.765
 7.0456  31124.4  175.359
 7.0876  30894.2  176.375
 7.1296  31085.5  176.062
 7.1716  31088.2  175.6
 7.2136  30842.8  174.695
 7.2556  30987.5  175.268
 7.2976  31027.3  175.866
 7.3396  30904.8  175.749
 7.3816  31046.2  176.358
 7.4236  31141.3  175.927
 7.4656  31482.1  176.354
 7.5076  31788.2  177.346
 7.5496  31448.3  176.941
 7.5916  31717  177.739
 7.6336  32486.9  179.767
 7.6756  32395.6  179.359
 7.7176  32903  181.083
 7.7596  32500.3  181.2
 7.8016  39890.4  203.163
 7.8436  33221.4  182.122
 7.8856  33184.4  181.635
 7.9276  33804.9  183.712
 7.9696  33781  183.955
 8.0116  34616.5  184.78
 8.0536  35366.8  187.025
 8.0956  38043.7  195.195
 8.1376  35813.8  188.855
 8.1796  35883.3  189.576
 8.2216  36607.1  190.22
 8.2636  38255.3  194.711
 8.3056  36961.5  192.153
 8.3476  39834.2  198.794
 8.3896  37753  193.609
 8.4316  37167.3  192.269
 8.4736  37310.8  192.109
 8.5156  36845.7  191.185
 8.5576  36656.7  191.656
 8.5996  36541.3  190.24
 8.6416  36486.7  191.353
 8.6836  36307.4  190.707
 8.7256  37239.8  192.593
 8.7676  40622  204.174
 8.8096  41714.3  203.994
 8.8516  37536.2  193.081
 8.8936  40088.4  199.488
 8.9356  37027.1  192.036
 8.9776  36977.7  192.006
 9.0196  37121.8  192.032
 9.0616  37210.4  191.772
 9.1036  40596.7  201.546
 9.1456  36300.7  189.931
 9.1876  36154.8  189.479
 9.2296  35632.6  187.561
 9.2716  35372.3  186.892
 9.3136  35387.6  186.933
 9.3556  35996.1  188.5
 9.3976  34711.4  185.614
 9.4396  34612  185.268
 9.4816  34469.4  184.726
 9.5236  34058.6  183.533
 9.5656  34072.7  183.93
 9.6076  33091  181.8
 9.6496  33553.4  182.939
 9.6916  32952.1  181.241
 9.7336  33824.5  183.412
 9.7756  33141  182.942
 9.8176  32855.7  181.535
 9.8596  32733.2  179.649
 9.9016  32982.2  180.338
 9.9436  32353.6  178.514
 9.9856  33072.2  180.763
 10.0276  31665.4  177.95
 10.0696  31736  177.181
 10.1116  31445  176.639
 10.1536  31035.6  175.633
 10.1956  30675.6  174.234
 10.2376  30430.5  173.025
 10.2796  30191.7  172.469
 10.3216  30107.1  172.517
 10.3636  30248.3  172.948
 10.4056  33940.4  183.657
 10.4476  34614.6  185.032
 10.4896  39151.6  196.148
 10.5316  34663.6  185.343
 10.5736  30050  172.995
 10.6156  29805.8  172.02
 10.6576  36162  187.892
 10.6996  29599.5  170.704
 10.7416  28786.2  168.558
 10.7836  29722.9  171.993
 10.8256  27429.1  165.636
 10.8676  27363.2  164.996
 10.9096  27567.7  165.628
 10.9516  26865  162.456
 10.9936  28292.6  166.923
 11.0356  27475.9  165.123
 11.0776  29364.2  170.004
 11.1196  29216.2  170.372
 11.1616  26640.3  162.366
 11.2036  28287.3  167.15
 11.2456  30422.9  174.115
 11.2876  26622.5  162.577
 11.3296  26622.3  162.499
 11.3716  27083  163.58
 11.4136  26476.4  162.631
 11.4556  26602.8  162.685
 11.4976  28225.2  166.524
 11.5396  27864.4  165.629
 11.5816  26040.2  160.559
 11.6236  25615  159.681
 11.6656  25870.9  159.402
 11.7076  24890.5  157.187
 11.7496  25500.5  163.113
 11.7916  25977.7  159.818
 11.8336  24468.6  156.04
 11.8756  25137.7  157.667
 11.9176  24549.5  155.493
 11.9596  24389.3  155.126
 12.0016  24399.9  155.953
 12.0436  24373.4  155.297
 12.0856  23815.1  154.026
 12.1276  23907.9  154.272
 12.1696  23916  153.417
 12.2116  24397.3  154.967
 12.2536  27514.2  165.432
 12.2956  24551.6  155.614
 12.3376  24607.4  155.975
 12.3796  24100.8  154.86
 12.4216  24282.4  154.635
 12.4636  25905.1  160.687
 12.5056  23842.2  153.426
 12.5476  23919.2  153.195
 12.5896  23473.5  152.407
 12.6316  23698.4  153.255
 12.6736  23558.7  153.307
 12.7156  24176.1  155.126
 12.7576  23670.4  153.764
 12.7996  24006.8  153.492
 12.8416  24233.9  155.282
 12.8836  25268.8  158.396
 12.9256  24535.4  155.087
 12.9676  24221.7  154.516
 13.0096  24235.8  155.645
 13.0516  24298.9  154.887
 13.0936  24240.2  155.102
 13.1356  24349.6  154.421
 13.1776  24700.2  156.563
 13.2196  24135.8  154.409
 13.2616  23707.6  153.353
 13.3036  24055.9  154.431
 13.3456  23846.8  153.909
 13.3876  24713.8  156.135
 13.4296  24107.2  154.383
 13.4716  24485.4  155.219
 13.5136  24315.3  154.813
 13.5556  24361.9  155.599
 13.5976  24324.7  155.64
 13.6396  24644  156.023
 13.6816  24405  155.72
 13.7236  24926.9  156.987
 13.7656  26691.7  162.869
 13.8076  28388.6  166.626
 13.8496  26803.9  162.546
 13.8916  24961.8  158.007
 13.9336  23788.1  153.55
 13.9756  24099.3  153.905
 14.0176  23698.8  153.313
 14.0596  25108.8  157.732
 14.1016  23625.7  153.42
 14.1436  23474.1  152.047
 14.1856  23183.4  151.412
 14.2276  23316.9  152.31
 14.2696  23683.3  153.366
 14.3116  22580.9  149.678
 14.3536  22282.2  148.835
 14.3956  22028.2  147.725
 14.4376  22274  148.324
 14.4796  22431  148.847
 14.5216  22012.2  148.228
 14.5636  22611.2  149.798
 14.6056  21935.1  147.099
 14.6476  21708.3  145.596
 14.6896  21460.6  145.303
 14.7316  20698.2  143.714
 14.7736  20902.1  143.573
 14.8156  20883.2  143.525
 14.8576  20764.8  142.976
 14.8996  20804.5  144.313
 14.9416  20104.1  141.876
 14.9836  20194.3  142.183
 15.0256  19598.9  139.017
 15.0676  19613.9  139.379
 15.1096  19391  138.329
 15.1516  18921.3  137.194
 15.1936  19028.7  137.014
 15.2356  18847.6  136.635
 15.2776  18922.7  136.5
 15.3196  18727.8  136.783
 15.3616  18334.6  135.095
 15.4036  18296.5  134.823
 15.4456  18846.6  136.486
 15.4876  18388.1  134.499
 15.5296  18125.7  133.822
 15.5716  17863  132.455
 15.6136  17884.4  132.857
 15.6556  21028.9  143.25
 15.6976  18417.1  134.138
 15.7396  17888.5  132.796
 15.7816  17869.3  132.245
 15.8236  17395.5  131.161
 15.8656  17426.6  131.076
 15.9076  17446.1  130.974
 15.9496  18951.2  139.359
 15.9916  17455.3  134.154
 16.0336  17736.2  132.073
 16.0756  17564.4  131.768
 16.1176  17302.1  130.857
 16.1596  16913.4  130.555
 16.2016  16835.1  129.029
 16.2436  16877.2  129.554
 16.2856  17080.8  129.855
 16.3276  16311.6  127.331
 16.3696  16749.3  128.851
 16.4116  16362.4  127.788
 16.4536  16718.7  128.98
 16.4956  17732.7  132.553
 16.5376  16787.9  129.166
 16.5796  16484.9  127.361
 16.6216  16450.8  127.494
 16.6636  16386.4  127.452
 16.7056  16353.5  127.17
 16.7476  16501.1  127.278
 16.7896  16402.8  127.645
 16.8316  16145.8  126.616
 16.8736  16631.4  128.747
 16.9156  16727.1  129.467
 16.9576  16130.5  127.94
 16.9996  16281  129.004
 17.0416  16093.4  126.659
 17.0836  16304.5  127.234
 17.1256  15771.5  125.14
 17.1676  16529.9  128.085
 17.2096  16411  127.519
 17.2516  16170.9  126.364
 17.2936  15642.1  124.63
 17.3356  15369.4  123.514
 17.3776  15356.8  123.657
 17.4196  15311.1  123.192
 17.4616  15658.3  124.472
 17.5036  16199  126.98
 17.5456  15159.5  123.464
 17.5876  15051.1  122.086
 17.6296  15256.1  122.746
 17.6716  15311.9  123.548
 17.7136  16612.8  128.806
 17.7556  15148.8  123.313
 17.7976  15211.9  123.186
 17.8396  15220.2  122.833
 17.8816  14707.4  121.321
 17.9236  14561.9  120.491
 17.9656  14851.3  122.374
 18.0076  15830.4  125.756
 18.0496  16478.8  127.404
 18.0916  21104.7  144.83
 18.1336  18982.9  137.472
 18.1756  16337.7  127.054
 18.2176  16474.2  127.815
 18.2596  14972.3  121.576
 18.3016  15606.6  124.393
 18.3436  16137.7  126.734
 18.3856  15260.9  123.131
 18.4276  14644.5  120.313
 18.4696  15150.5  122.458
 18.5116  15028  122.252
 18.5536  14710.7  121.318
 18.5956  14765  121.092
 18.6376  14859.7  121.898
 18.6796  14571.9  120.002
 18.7216  14704.4  121.129
 18.7636  14454.3  120.015
 18.8056  14068.6  118.338
 18.8476  13799.8  117.831
 18.8896  13870.2  117.461
 18.9316  14237.7  118.84
 18.9736  14106.8  118.141
 19.0156  14554.9  120.438
 19.0576  14833.8  120.38
 19.0996  14175.1  118.412
 19.1416  14235.7  119.048
 19.1836  13907.7  117.285
 19.2256  13722.5  116.723
 19.2676  13859.1  117.384
 19.3096  13716.4  117.034
 19.3516  13814.5  117.405
 19.3936  14013.5  118.149
 19.4356  13889.3  117.487
 19.4776  13824.3  117.314
 19.5196  13723.9  116.739
 19.5616  13950.9  117.956
 19.6036  13797.6  116.815
 19.6456  13959.5  117.614
 19.6876  14482.8  119.422
 19.7296  14176.9  118.612
 19.7716  13895.7  117.467
 19.8136  14410.1  119.944
 19.8556  14607.7  120.26
 19.8976  14929  121.637
 19.9396  14490.9  119.423
 19.9816  14506.9  119.749
 20.0236  14966  121.819
 20.0656  13780.5  116.902
 20.1076  13780.4  117.349
 20.1496  13657.1  116.828
 20.1916  13694.6  116.499
 20.2336  13666.6  116.31
 20.2756  13284.5  115.106
 20.3176  13336.1  115.081
 20.3596  13243.6  114.678
 20.4016  13388.7  115.086
 20.4436  13352.6  115.517
 20.4856  13335.9  115.21
 20.5276  13316.6  115.597
 20.5696  13393.2  115.358
 20.6116  13268.4  115.12
 20.6536  13030.9  113.661
 20.6956  12983.2  113.519
 20.7376  13044.3  114.011
 20.7796  13002.1  113.511
 20.8216  13263  114.355
 20.8636  13691.2  116.559
 20.9056  14754.7  120.923
 20.9476  13539.6  115.691
 20.9896  14415.2  119.242
 21.0316  13187.7  113.965
 21.0736  13646.5  116.444
 21.1156  14027.9  118.238
 21.1576  13405.4  115.611
 21.1996  13000.6  113.845
 21.2416  13092.4  114.062
 21.2836  13176.4  114.408
 21.3256  13148.8  114.354
 21.3676  13062  113.524
 21.4096  13507.9  115.771
 21.4516  13028.2  113.555
 21.4936  12766.1  112.691
 21.5356  13007.3  113.689
 21.5776  12959.3  113.317
 21.6196  13159.8  114.23
 21.6616  13017.3  113.692
 21.7036  12868.5  112.803
 21.7456  12706.1  112.175
 21.7876  12557.1  111.279
 21.8296  12467  110.726
 21.8716  12604.2  111.554
 21.9136  12948.2  113.269
 21.9556  13036.6  113.333
 21.9976  12641.5  111.631
 22.0396  12711.7  112.196
 22.0816  12645.2  112.431
 22.1236  13210.1  114.365
 22.1656  12665.2  112.18
 22.2076  12534.6  111.021
 22.2496  12443.2  110.647
 22.2916  12402.1  110.341
 22.3336  12359.4  110.854
 22.3756  12311.3  110.381
 22.4176  12500.5  111.076
 22.4596  12037  109.577
 22.5016  12538.4  111.338
 22.5436  12482.9  110.965
 22.5856  12540.4  111.469
 22.6276  12572.3  111.748
 22.6696  12387.1  111.275
 22.7116  12213.9  110.014
 22.7536  12323.2  110.475
 22.7956  12417.4  110.233
 22.8376  12166.1  109.625
 22.8796  12161.9  109.411
 22.9216  12293.8  110.543
 22.9636  12221.6  109.384
 23.0056  12291.7  109.826
 23.0476  12398.8  110.873
 23.0896  12681.3  111.506
 23.1316  12683.9  111.957
 23.1736  12469.6  113.925
 23.2156  12495.1  111.418
 23.2576  12726.1  112.555
 23.2996  12403.6  110.921
 23.3416  12725.9  112.861
 23.3836  12601.4  111.55
 23.4256  12667.9  111.955
 23.4676  12638.9  111.52
 23.5096  12767.6  112.76
 23.5516  12578.6  111.212
 23.5936  12613.8  112.286
 23.6356  12881.6  113.131
 23.6776  12425.8  111.337
 23.7196  12345.8  110.54
 23.7616  12644.8  111.801
 23.8036  12566  111.485
 23.8456  12250.2  109.653
 23.8876  12363.4  110.493
 23.9296  12127.7  109.925
 23.9716  12415.1  110.427
 24.0136  12419.2  111.349
 24.0556  12244.3  110.277
 24.0976  12175.8  109.789
 24.1396  12048  111.851
 24.1816  12218.9  111.369
 24.2236  12157.4  110.377
 24.2656  12261.5  110.314
 24.3076  12345.9  110.969
 24.3496  12426.8  111.22
 24.3916  12510.5  111.636
 24.4336  12208.9  110.473
 24.4756  12134.9  110.035
 24.5176  11903.4  108.6
 24.5596  11886.1  108.644
 24.6016  11905.7  109.045
 24.6436  11951.3  108.736
 24.6856  11910.9  108.299
 24.7276  11954.6  108.848
 24.7696  12032.5  109.298
 24.8116  11833.5  108.576
 24.8536  11850.8  108.658
 24.8956  11765.6  107.998
 24.9376  11823.3  108.192
 24.9796  11675.2  107.871
 25.0216  11689.3  108.044
 25.0636  11667.2  107.602
 25.1056  11465.4  107.105
 25.1476  11416.5  108.806
 25.1896  11384.2  107.148
 25.2316  11301.2  106.027
 25.2736  11379.8  106.044
 25.3156  11203  105.277
 25.3576  11115.1  105.304
 25.3996  11209.2  105.732
 25.4416  11258.9  105.947
 25.4836  11121.3  105.813
 25.5256  11168.5  105.393
 25.5676  11284.2  105.68
 25.6096  11010.5  104.957
 25.6516  11185.5  105.299
 25.6936  11089.8  105.139
 25.7356  11067.5  105.185
 25.7776  11185.3  105.33
 25.8196  11057.4  104.978
 25.8616  11107.9  105.147
 25.9036  11271.9  105.368
 25.9456  10913.5  104.281
 25.9876  10743.9  103.523
 26.0296  11060.4  104.643
 26.0716  11082.6  105.071
 26.1136  11291.5  105.999
 26.1556  11286.9  105.358
 26.1976  10877.6  104.353
 26.2396  11029.8  104.494
 26.2816  10868.6  104.077
 26.3236  11051.7  105.112
 26.3656  11207.9  105.557
 26.4076  10723.4  103.46
 26.4496  11073.4  104.707
 26.4916  11140.3  104.937
 26.5336  11534.4  107.13
 26.5756  11764  108.065
 26.6176  11242.2  105.664
 26.6596  10975.4  104.707
 26.7016  10749.9  103.392
 26.7436  10796  103.726
 26.7856  10467.5  102.138
 26.8276  10687.3  103.174
 26.8696  10609.1  102.659
 26.9116  10695.9  103.019
 26.9536  10506.7  102.154
 26.9956  10395.3  101.656
 27.0376  10542.8  102.576
 27.0796  10543.1  102.39
 27.1216  10639.3  102.823
 27.1636  10477  102.222
 27.2056  10432.8  101.887
 27.2476  10575.6  102.564
 27.2896  10380.2  101.751
 27.3316  10323  101.176
 27.3736  10308.8  101.385
 27.4156  10291.6  101.121
 27.4576  10543.2  102.583
 27.4996  10638.9  102.635
 27.5416  10497  102.261
 27.5836  10396.9  101.62
 27.6256  10288.3  101.279
 27.6676  10330.9  101.48
 27.7096  10399  101.687
 27.7516  10879.4  104.163
 27.7936  11126.5  105.459
 27.8356  10891.2  103.947
 27.8776  10913.2  104.129
 27.9196  10621.5  102.592
 27.9616  10577.1  102.576
 28.0036  10484.2  102.083
 28.0456  10111.3  100.4
 28.0876  10196.9  100.907
 28.1296  10202.4  100.758
 28.1716  10282.7  101.17
 28.2136  10161  100.549
 28.2556  10223.2  100.945
 28.2976  10153.5  100.617
 28.3396  10101.9  100.162
 28.3816  10217.7  100.701
 28.4236  10215.4  100.854
 28.4656  10026.1  99.9434
 28.5076  9952.65  99.2184
 28.5496  9883.63  99.1255
 28.5916  9962.99  99.3452
 28.6336  9858.62  99.1523
 28.6756  10112.6  99.6213
 28.7176  9918.06  99.2126
 28.7596  9741.88  98.2123
 28.8016  9838.55  98.7436
 28.8436  9787.92  98.7297
 28.8856  9903.3  99.1601
 28.9276  9942.36  99.6023
 28.9696  9814.13  98.6128
 29.0116  9675.09  98.0959
 29.0536  9544.12  97.6345
 29.0956  9891.61  99.1003
 29.1376  9776.18  98.491
 29.1796  9726.85  98.2889
 29.2216  9672.12  97.8559
 29.2636  9856.56  98.7673
 29.3056  9547.59  97.0767
 29.3476  9634.69  98.0501
 29.3896  9688.23  98.4374
 29.4316  9574.62  97.207
 29.4736  9517.22  96.9751
 29.5156  9607.78  97.3647
 29.5576  9598.42  98.055
 29.5996  9469.73  96.6583
 29.6416  9401.47  96.426
 29.6836  9432.59  96.5132
 29.7256  9320.69  96.4973
 29.7676  9457.45  96.8642
 29.8096  9432.11  96.6797
 29.8516  9265.17  96.147
 29.8936  9368.71  96.7757
 29.9356  9528.05  97.3509
 29.9776  9322.27  96.4462
 30.0196  9473.56  96.6191
 30.0616  9551.34  97.3859
 30.1036  9425.83  96.57
 30.1456  9329.61  96.3043
 30.1876  9274.5  96.0024
 30.2296  9271.3  95.9307
 30.2716  9322.3  95.8366
 30.3136  9276.8  96.4503
 30.3556  9537.31  97.7767
 30.3976  9601.61  99.6095
 30.4396  9797.79  97.932
 30.4816  9553.25  96.3138
 30.5236  9761.84  97.3495
 30.5656  9375.34  96.0701
 30.6076  9705.28  97.1431
 30.6496  9680.29  97.4366
 30.6916  9395.02  96.0857
 30.7336  9399.81  96.2484
 30.7756  9431.86  96.5012
 30.8176  9436.06  96.4425
 30.8596  9390.82  95.9689
 30.9016  9331.14  96.0057
 30.9436  9429.47  96.2736
 30.9856  9683.85  97.6693
 31.0276  9466.75  96.1999
 31.0696  9296.16  95.8891
 31.1116  9466.98  96.7303
 31.1536  9408.19  96.3253
 31.1956  9587.66  97.3209
 31.2376  9229.9  95.5079
 31.2796  9322.33  95.5231
 31.3216  9298.55  95.312
 31.3636  9357.49  96.3443
 31.4056  9260.78  97.136
 31.4476  9472.47  96.1369
 31.4896  9331.69  95.9225
 31.5316  9515.54  96.304
 31.5736  10241.6  99.6886
 31.6156  10140.7  99.2018
 31.6576  9767.42  97.4314
 31.6996  9576.29  96.1301
 31.7416  9643.21  97.5904
 31.7836  9447.33  95.5931
 31.8256  9498.47  96.1825
 31.8676  9520.75  96.2047
 31.9096  9277.36  95.3514
 31.9516  9364.33  95.9657
 31.9936  9179.26  94.8484
 32.0356  9287  95.449
 32.0776  9265.12  95.2225
 32.1196  9293.51  95.4733
 32.1616  9299.1  94.9366
 32.2036  9197.61  94.9329
 32.2456  9205.86  95.3539
 32.2876  9179.79  94.5707
 32.3296  9217.52  94.884
 32.3716  9035.97  94.0718
 32.4136  9089.34  94.5494
 32.4556  9087.83  93.9791
 32.4976  9164.83  94.2263
 32.5396  8954.75  93.1996
 32.5816  8951.31  93.3058
 32.6236  8974.28  93.4975
 32.6656  9137.6  94.8911
 32.7076  9106.71  94.3825
 32.7496  8980.71  93.4059
 32.7916  8983.01  93.3722
 32.8336  8940.73  93.254
 32.8756  9149.01  94.0404
 32.9176  9044.37  93.9954
 32.9596  9047.54  94.0796
 33.0016  9090.97  94.0613
 33.0436  9052.25  94.0573
 33.0856  8964.99  93.6932
 33.1276  8977.74  93.4863
 33.1696  9040.9  93.658
 33.2116  8968.56  93.5124
 33.2536  9153.01  94.4468
 33.2956  8913.8  93.3019
 33.3376  8913.96  93.0314
 33.3796  8976.05  93.5826
 33.4216  8822.28  92.3697
 33.4636  8838.02  92.6051
 33.5056  8779.93  92.5494
 33.5476  8966.16  93.4753
 33.5896  8835.44  92.5835
 33.6316  8785.34  92.6374
 33.6736  8710.88  92.5004
 33.7156  8656.72  92.2473
 33.7576  8851.84  92.9244
 33.7996  8836.28  92.6109
 33.8416  8660.97  91.865
 33.8836  8702.36  91.8673
 33.9256  8917.14  93.0318
 33.9676  8895.05  92.8234
 34.0096  8725.76  92.238
 34.0516  8532.03  90.8632
 34.0936  8627.68  91.6412
 34.1356  8771.54  92.1388
 34.1776  8612.97  91.3027
 34.2196  8575.5  91.2864
 34.2616  8513.6  91.0986
 34.3036  8712.99  92.3874
 34.3456  8701.06  92.0868
 34.3876  8720.1  92.1471
 34.4296  8647.4  91.462
 34.4716  8746.36  92.1329
 34.5136  8648.24  91.8154
 34.5556  8601.48  91.8336
 34.5976  8757.74  92.4596
 34.6396  8529.98  90.9606
 34.6816  8865.75  92.8301
 34.7236  8659.47  91.526
 34.7656  8686.66  91.8855
 34.8076  8450.35  90.9602
 34.8496  8486.77  91.0129
 34.8916  8667.37  91.8312
 34.9336  8544.73  91.1681
 34.9756  8616.8  91.4656
 35.0176  8640.88  92.1241
 35.0596  8645.98  91.9613
 35.1016  8751.51  92.2724
 35.1436  8759.94  92.0147
 35.1856  8528.23  90.9047
 35.2276  8522.05  91.0608
 35.2696  8569.91  91.5052
 35.3116  8521.38  91.348
 35.3536  8531.17  91.0909
 35.3956  8561.62  90.9775
 35.4376  8602.73  91.7515
 35.4796  8557.83  91.5605
 35.5216  8529.52  91.3674
 35.5636  8291.95  90.8245
 35.6056  8430.13  90.6089
 35.6476  8540.54  91.095
 35.6896  8515.64  91.1349
 35.7316  8422.31  90.5297
 35.7736  8513.45  91.1981
 35.8156  8510.94  91.1868
 35.8576  8438.05  91.0508
 35.8996  8572.56  91.7449
 35.9416  8526.16  90.9898
 35.9836  8480.47  91.0933
 36.0256  8715.53  92.3646
 36.0676  8699.69  91.7986
 36.1096  8508.57  91.1663
 36.1516  8617.23  91.6279
 36.1936  8533.22  91.0187
 36.2356  8392.29  90.9173
 36.2776  8287.74  89.8443
 36.3196  8507.68  90.6831
 36.3616  8416.45  90.3297
 36.4036  8404.91  90.3355
 36.4456  8466.93  90.8728
 36.4876  8370.25  90.2985
 36.5296  8231.56  89.5806
 36.5716  8420.57  91.3912
 36.6136  8484.42  90.5148
 36.6556  8348.84  89.9936
 36.6976  8357.18  90.5426
 36.7396  8235.44  89.6111
 36.7816  8198.43  89.7839
 36.8236  8262.81  90.0521
 36.8656  8110.79  89.2992
 36.9076  8211.08  89.8524
 36.9496  8068.13  88.9278
 36.9916  8114.9  88.8137
 37.0336  8200.11  89.5955
 37.0756  8202.99  89.4045
 37.1176  7904.07  88.0258
 37.1596  7939.8  88.2329
 37.2016  8113.31  89.3678
 37.2436  8146.52  88.9142
 37.2856  8155.65  89.2174
 37.3276  8324.02  89.4839
 37.3696  7987.36  88.5335
 37.4116  8063.45  88.8533
 37.4536  8054.35  88.6752
 37.4956  7882.5  87.7626
 37.5376  8112.94  90.6103
 37.5796  8240.69  91.2392
 37.6216  8079.48  88.61
 37.6636  8240.58  89.3683
 37.7056  8207.14  89.3894
 37.7476  8271.42  89.2635
 37.7896  8062.08  88.6532
 37.8316  8092.15  88.9563
 37.8736  8188.87  89.0319
 37.9156  8086.5  88.4485
 37.9576  8131.74  88.6144
 37.9996  8106.14  88.1871
 38.0416  8028.22  88.5653
 38.0836  8241.27  89.6346
 38.1256  8171.06  89.2258
 38.1676  8116.28  89.0471
 38.2096  8337.07  89.8422
 38.2516  8212.82  89.4098
 38.2936  8279.45  89.552
 38.3356  8028.99  88.1321
 38.3776  8191.42  89.2593
 38.4196  8048.8  88.3503
 38.4616  8117.8  88.9663
 38.5036  8168.95  89.0895
 38.5456  7951.34  88.7367
 38.5876  7985.86  88.956
 38.6296  8119.15  88.6576
 38.6716  8077.21  88.2156
 38.7136  8104.74  88.3113
 38.7556  7992.35  88.2078
 38.7976  8072.99  88.5736
 38.8396  8055.16  88.9392
 38.8816  7991.42  88.3857
 38.9236  7943.34  87.9183
 38.9656  8074.04  88.5512
 39.0076  8107.41  88.1216
 39.0496  8086.48  88.5625
 39.0916  8113.65  88.3602
 39.1336  8034.3  88.3323
 39.1756  7964.21  88.0111
 39.2176  7983.27  88.6674
 39.2596  7951.14  88.4026
 39.3016  7983.32  88.1637
 39.3436  7977.28  88.5464
 39.3856  8125.83  88.7771
 39.4276  8117.22  89.2584
 39.4696  8007.43  88.2859
 39.5116  8103.22  89.3224
 39.5536  8031.04  89.3504
 39.5956  7936.66  87.9451
 39.6376  8044.53  88.5374
 39.6796  7843.5  87.1764
 39.7216  7892.33  87.5381
 39.7636  7955.63  88.4473
 39.8056  8056.68  88.7935
 39.8476  7927.04  88.3345
 39.8896  7981.44  88.2544
 39.9316  7791.45  87.4496
 39.9736  7938.36  87.8553
 40.0156  7970.88  87.86
 40.0576  7970.74  88.2147
 40.0996  8074.62  87.9639
 40.1416  8016.06  88.4421
 40.1836  8097.07  88.7677
 40.2256  8033.07  88.4618
 40.2676  7909.85  87.8757
 40.3096  7989.51  88.2454
 40.3516  8002.28  88.4455
 40.3936  8054.66  88.278
 40.4356  7886.71  87.5615
 40.4776  8047.34  88.8422
 40.5196  7991.47  88.6624
 40.5616  8127.45  89.0446
 40.6036  7970.72  88.4515
 40.6456  7947.37  87.9315
 40.6876  8105.45  88.7944
 40.7296  7977.15  88.2225
 40.7716  8026.49  88.6197
 40.8136  7888.65  87.8013
 40.8556  7965.84  88.3471
 40.8976  8008.21  88.5049
 40.9396  8007.86  88.849
 40.9816  8078.56  88.5411
 41.0236  7968.5  87.7223
 41.0656  8110.91  89.0352
 41.1076  8007.22  88.2424
 41.1496  8065.52  88.4654
 41.1916  8030.55  88.5911
 41.2336  8030.17  88.5835
 41.2756  7949.25  87.7455
 41.3176  7972.88  88.4782
 41.3596  8022.49  88.4998
 41.4016  7927.3  88.2337
 41.4436  8152.12  89.2515
 41.4856  8006.42  88.6301
 41.5276  7946.1  88.302
 41.5696  8051.73  88.5017
 41.6116  8054.16  88.905
 41.6536  7960.04  88.2547
 41.6956  8114.11  89.1589
 41.7376  7861.4  87.7994
 41.7796  7882.74  87.8537
 41.8216  8106.07  89.2663
 41.8636  7952.89  88.3722
 41.9056  7929.16  88.0232
 41.9476  8018.17  88.7537
 41.9896  8111.87  88.9163
 42.0316  7971.68  88.2463
 42.0736  8105.38  89.0739
 42.1156  7920.36  87.9029
 42.1576  8021.2  88.5747
 42.1996  7935.13  88.2133
 42.2416  7935.65  87.8194
 42.2836  7823.59  87.3058
 42.3256  7908.95  87.884
 42.3676  8140.58  88.9436
 42.4096  8066.45  88.5272
 42.4516  8064.82  88.5832
 42.4936  7929.48  87.9231
 42.5356  7876.57  87.7829
 42.5776  7944.15  88.0867
 42.6196  7974.74  88.3128
 42.6616  7787.98  87.4425
 42.7036  7950.01  87.7162
 42.7456  7987.69  88.2714
 42.7876  7911.88  87.9583
 42.8296  7887.62  87.6596
 42.8716  7821.34  87.4605
 42.9136  7887.25  87.6142
 42.9556  7875.63  87.6862
 42.9976  7955.31  88.095
 43.0396  7844.34  87.2044
 43.0816  7767.81  87.1617
 43.1236  7759.71  87.1599
 43.1656  7832.96  87.4045
 43.2076  7820.75  87.4439
 43.2496  7839.89  87.3699
 43.2916  7803.9  87.5279
 43.3336  7796.24  87.3194
 43.3756  7858.77  87.4215
 43.4176  7683.05  86.5287
 43.4596  7755.98  86.7879
 43.5016  7913.88  88.0715
 43.5436  7800.22  87.3434
 43.5856  7756.96  87.1354
 43.6276  7706.84  86.7356
 43.6696  7671.62  86.6928
 43.7116  7791.27  86.9673
 43.7536  7849.31  87.7856
 43.7956  7727.11  88.3113
 43.8376  7577.02  86.0107
 43.8796  7566.89  86.0289
 43.9216  7718.18  86.8017
 43.9636  7609.02  86.2926
 44.0056  7541.54  86.1395
 44.0476  7622.09  86.2283
 44.0896  7606.8  86.4863
 44.1316  7639.86  86.3405
 44.1736  7526.48  85.6801
 44.2156  7576.37  85.8226
 44.2576  7590.24  86.22
 44.2996  7652.65  86.5499
 44.3416  7600.04  85.9983
 44.3836  7503.2  85.784
 44.4256  7447.39  85.1101
 44.4676  7477.18  85.4365
 44.5096  7574.81  86.1385
 44.5516  7598.36  86.2376
 44.5936  7377.77  84.9275
 44.6356  7480.82  85.2589
 44.6776  7520.75  85.8059
 44.7196  7524.42  86.1314
 44.7616  7587.15  87.8078
 44.8036  7535.74  85.9274
 44.8456  7875.4  88.0434
 44.8876  7684.21  86.81
 44.9296  7736.74  86.5416
 44.9716  7683.93  86.6755
 45.0136  7671.48  86.5497
 45.0556  7747.38  86.9472
 45.0976  7668.1  86.6639
 45.1396  7498.37  85.4696
 45.1816  7533.9  85.6184
 45.2236  7672.68  86.2947
 45.2656  7587.01  86.3265
 45.3076  7660.72  86.5042
 45.3496  7610.58  86.5404
 45.3916  7450.81  85.8931
 45.4336  7736.87  87.3604
 45.4756  7532.85  86.0664
 45.5176  7726.48  86.7632
 45.5596  7696.99  86.7279
 45.6016  7409.37  85.5118
 45.6436  7548.55  85.4672
 45.6856  7627.71  86.5949
 45.7276  7502.92  87.2138
 45.7696  7493.41  86.8369
 45.8116  7555.28  86.6277
 45.8536  7549.17  86.4603
 45.8956  7635.09  86.3086
 45.9376  7550.7  85.2932
 45.9796  7626.84  86.4197
 46.0216  7653.35  86.9157
 46.0636  7698.98  86.3033
 46.1056  7739.52  86.5186
 46.1476  7603.46  86.3522
 46.1896  7555.97  86.2239
 46.2316  7567.44  86.1676
 46.2736  7296.49  84.9778
 46.3156  7489.86  85.6784
 46.3576  7564.57  86.3058
 46.3996  7528.51  86.2619
 46.4416  7593.78  86.2082
 46.4836  7538.42  86.2457
 46.5256  7712.05  87.1765
 46.5676  7565.58  86.4565
 46.6096  7566.99  86.3923
 46.6516  7535.96  85.2531
 46.6936  7608.41  86.172
 46.7356  7654.63  86.5188
 46.7776  7489.72  86.4571
 46.8196  7487.48  86.033
 46.8616  7336.36  85.1153
 46.9036  7330.44  84.7374
 46.9456  7498.14  85.3372
 46.9876  7575.25  85.8561
 47.0296  7472.79  85.9667
 47.0716  7345.69  85.0553
 47.1136  7481.68  85.5059
 47.1556  7417.92  85.0118
 47.1976  7512.79  85.6327
 47.2396  7527.01  86.1227
 47.2816  7365.47  84.8975
 47.3236  7506.81  86.0809
 47.3656  7473.62  85.8263
 47.4076  7467.28  85.5849
 47.4496  7397.59  85.2785
 47.4916  7369.52  85.3023
 47.5336  7429.6  85.465
 47.5756  7475.52  85.8504
 47.6176  7400.11  85.3089
 47.6596  7361.62  84.8114
 47.7016  7635.65  86.1728
 47.7436  7492.93  85.7221
 47.7856  7455.5  85.5188
 47.8276  7443.78  85.5059
 47.8696  7442.29  85.5792
 47.9116  7524.21  85.7673
 47.9536  7422.73  85.1255
 47.9956  7526.1  86.4416
 48.0376  7312.81  84.9842
 48.0796  7511.63  86.2543
 48.1216  7357.46  85.1913
 48.1636  7531.02  85.7376
 48.2056  7431.61  85.4494
 48.2476  7390.87  85.5147
 48.2896  7447.4  85.7604
 48.3316  7429.23  85.5971
 48.3736  7410.3  85.5152
 48.4156  7396.43  85.2887
 48.4576  7403.5  85.621
 48.4996  7584.32  86.1041
 48.5416  7498  85.9282
 48.5836  7432.92  85.2386
 48.6256  7426.55  85.3979
 48.6676  7420.28  85.9037
 48.7096  7488.95  85.5524
 48.7516  7360.43  84.9655
 48.7936  7273.26  84.5285
 48.8356  7422.77  85.4355
 48.8776  7436.31  86.0177
 48.9196  7565.27  86.1856
 48.9616  7400.7  85.6398
 49.0036  7381.72  85.874
 49.0456  7472.35  86.3803
 49.0876  7455.15  85.9246
 49.1296  7372.79  85.5108
 49.1716  7312.58  85.0357
 49.2136  7419.23  85.5684
 49.2556  7486.56  85.9864
 49.2976  7477.53  85.9956
 49.3396  7271.18  84.868
 49.3816  7491.17  85.543
 49.4236  7372.46  85.3082
 49.4656  7246.25  84.6019
 49.5076  7355.22  84.9709
 49.5496  7356.06  85.046
 49.5916  7468.84  85.6051
 49.6336  7346.79  85.1036
 49.6756  7375.69  85.5084
 49.7176  7258.98  84.7759
 49.7596  7379.4  85.2311
 49.8016  7485.89  85.7677
 49.8436  7275.23  84.8625
 49.8856  7263.49  84.7943
 49.9276  7290.46  85.0579
 49.9696  7348.95  85.3734
 50.0116  7282.79  85.1202
 50.0536  7266.22  84.9695
 50.0956  7265.03  85.0333
 50.1376  7314.51  85.0163
 50.1796  7231.35  84.8102
 50.2216  7223.31  84.7543
 50.2636  7350.5  85.1056
 50.3056  7258.6  84.756
 50.3476  7263.89  84.7998
 50.3896  7196.88  84.3806
 50.4316  7298.49  84.8096
 50.4736  7267.38  84.8439
 50.5156  7287.38  84.9576
 50.5576  7350.25  85.0659
 50.5996  7212.59  84.5579
 50.6416  7227.32  84.5727
 50.6836  7287.5  84.9755
 50.7256  7290.18  84.9196
 50.7676  7477.46  86.2773
 50.8096  7252.02  84.5566
 50.8516  7277.33  85.13
 50.8936  7097.74  83.8437
 50.9356  7332.15  85.3358
 50.9776  7169.06  84.5418
 51.0196  7091.22  84.2271
 51.0616  7125.87  83.7443
 51.1036  7166.67  84.3454
 51.1456  7187.16  84.378
 51.1876  7244.79  84.0291
 51.2296  7257.4  84.7603
 51.2716  6986.51  82.8692
 51.3136  6983.67  83.3111
 51.3556  7019.58  83.1444
 51.3976  6908.69  82.6405
 51.4396  6942.53  83.1565
 51.4816  7086.9  83.8669
 51.5236  7056.19  83.7725
 51.5656  7039.99  83.2655
 51.6076  7167.42  84.1055
 51.6496  6987.23  83.2317
 51.6916  6958.48  83.4269
 51.7336  7015.92  83.8604
 51.7756  7047.31  83.7387
 51.8176  7003.17  83.5862
 51.8596  7022.87  83.7202
 51.9016  7064.18  83.5569
 51.9436  7052.46  84.9927
 51.9856  7133.95  85.8885
 52.0276  7091.65  84.1006
 52.0696  7287.74  85.3066
 52.1116  7070.91  84.1753
 52.1536  7212.89  84.8815
 52.1956  7066.93  83.4918
 52.2376  7165.26  84.2388
 52.2796  7105.27  83.6984
 52.3216  6909.19  83.2291
 52.3636  7078.99  83.804
 52.4056  7008.85  83.2481
 52.4476  6952.54  83.2859
 52.4896  6905.54  83.0435
 52.5316  7082.19  84.1378
 52.5736  6959.92  83.15
 52.6156  7074.2  84.2172
 52.6576  6924.86  82.7667
 52.6996  6818.48  83.1205
 52.7416  6868.36  83.2807
 52.7836  7076.68  84.4136
 52.8256  7149.98  84.0391
 52.8676  6843.28  82.8007
 52.9096  7037.2  84.0331
 52.9516  6932.54  83.8115
 52.9936  6993.42  84.5663
 53.0356  7046.48  83.8574
 53.0776  7118.58  84.5802
 53.1196  6913.39  83.4587
 53.1616  6948.79  83.7224
 53.2036  6949.69  83.6895
 53.2456  6805.67  82.9246
 53.2876  7044.93  84.0533
 53.3296  6948.92  83.8042
 53.3716  7114.43  84.5321
 53.4136  7034.66  84.2247
 53.4556  6977.73  83.9115
 53.4976  6955.09  83.6007
 53.5396  6967.84  84.1055
 53.5816  7055.78  84.2463
 53.6236  6860.05  83.4288
 53.6656  6966.76  83.6522
 53.7076  6989.45  83.7569
 53.7496  7051.79  84.2667
 53.7916  6854.28  83.2155
 53.8336  6975.48  83.8235
 53.8756  6810.41  83.4079
 53.9176  6818.99  82.794
 53.9596  6656.72  82.5631
 54.0016  6704.62  82.1953
 54.0436  6641.13  82.0275
 54.0856  6826.78  82.5735
 54.1276  6719.75  82.1108
 54.1696  6750.51  82.4838
 54.2116  6831.04  82.7091
 54.2536  6714.42  81.8058
 54.2956  6729.91  81.964
 54.3376  6681  82.1629
 54.3796  6627.43  81.737
 54.4216  6675.69  82.0771
 54.4636  6686.96  82.1127
 54.5056  6675.87  81.8327
 54.5476  6602.21  81.7254
 54.5896  6683.26  82.0622
 54.6316  6757.7  82.3771
 54.6736  6652.1  81.7665
 54.7156  6653.95  81.8429
 54.7576  6521.56  81.0096
 54.7996  6712.05  82.3129
 54.8416  6558.87  81.4511
 54.8836  6673.45  82.2316
 54.9256  6558  81.2943
 54.9676  6513.26  80.8744
 55.0096  6557.09  81.1955
 55.0516  6478.68  80.8847
 55.0936  6546.74  81.0184
 55.1356  6595.01  81.3627
 55.1776  6678.41  82.0913
 55.2196  6593.12  81.3691
 55.2616  6650.94  81.9516
 55.3036  6477.53  81.0563
 55.3456  6441.51  80.9797
 55.3876  6554.56  81.4001
 55.4296  6453.56  80.7773
 55.4716  6537.84  81.3124
 55.5136  6522.61  81.004
 55.5556  6648.22  81.8037
 55.5976  6533.7  81.1875
 55.6396  6628.82  81.7117
 55.6816  6474.07  80.6178
 55.7236  6410.09  80.2947
 55.7656  6538.65  80.8055
 55.8076  6417.56  80.0738
 55.8496  6501.75  80.9042
 55.8916  6433.44  80.6448
 55.9336  6541.97  81.1775
 55.9756  6460.53  80.5672
 56.0176  6402.64  80.3299
 56.0596  6455.7  80.6806
 56.1016  6297.23  79.7364
 56.1436  6402.75  80.6152
 56.1856  6345.5  80.0105
 56.2276  6527.51  81.174
 56.2696  6468.93  80.7997
 56.3116  6543.21  81.6496
 56.3536  6390.34  80.3596
 56.3956  6331.5  79.9778
 56.4376  6401.51  80.4555
 56.4796  6261.87  79.402
 56.5216  6383.49  80.5305
 56.5636  6359.83  79.9668
 56.6056  6524.36  81.2157
 56.6476  6368.84  79.8532
 56.6896  6494.1  81.096
 56.7316  6392.87  80.3922
 56.7736  6408.63  80.4878
 56.8156  6452.9  80.7891
 56.8576  6170.68  78.9458
 56.8996  6344.72  79.9559
 56.9416  6313.77  80.0686
 56.9836  6457.56  80.4818
 57.0256  6315.8  79.8968
 57.0676  6433.29  80.7612
 57.1096  6274.02  79.5477
 57.1516  6246.9  79.4088
 57.1936  6381.21  80.0171
 57.2356  6239.85  79.489
 57.2776  6292.56  79.7765
 57.3196  6421.01  80.937
 57.3616  6321.57  79.8014
 57.4036  6341.36  79.9888
 57.4456  6440.09  80.5776
 57.4876  6360.83  79.9617
 57.5296  6277.68  79.66
 57.5716  6257.43  79.6321
 57.6136  6216.11  79.21
 57.6556  6325.78  80.0235
 57.6976  6266.23  79.4851
 57.7396  6168.51  79.2191
 57.7816  6153.05  79.4776
 57.8236  6144.27  79.1998
 57.8656  6273.64  79.6968
 57.9076  6267  79.6818
 57.9496  6215.14  79.6987
 57.9916  6206.29  79.1681
 58.0336  6223.08  79.5561
 58.0756  6383.69  80.189
 58.1176  6211.78  79.0995
 58.1596  6262.69  80.0284
 58.2016  6012.63  77.6504
 58.2436  6065.04  78.3938
 58.2856  5936.97  77.4883
 58.3276  6041.62  78.5417
 58.3696  6059.05  78.407
 58.4116  5939.42  77.4935
 58.4536  6041.73  78.047
 58.4956  5981.1  77.8328
 58.5376  5984.87  77.4293
 58.5796  5979.23  77.8135
 58.6216  5984.6  77.6715
 58.6636  6021.16  78.1075
 58.7056  5982.18  77.7196
 58.7476  5883.06  77.5136
 58.7896  5890.26  77.2101
 58.8316  6000.4  77.9256
 58.8736  6018.47  78.0524
 58.9156  6013.35  78.0611
 58.9576  6006.28  78.33
 58.9996  6062.59  77.9528
 59.0416  6029.91  78.1022
 59.0836  6049.1  78.1352
 59.1256  5972.5  78.3455
 59.1676  5993.13  78.7929
 59.2096  5999.87  78.1376
 59.2516  6045.64  78.0159
 59.2936  5933.98  77.6174
 59.3356  6103.8  78.5972
 59.3776  6041.08  78.3614
 59.4196  5899.54  77.3752
 59.4616  5898.54  77.2297
 59.5036  5901.56  77.2846
 59.5456  6087.16  78.1824
 59.5876  5932.48  77.3721
 59.6296  5938.79  77.4819
 59.6716  5919.12  77.4109
 59.7136  5877.41  77.126
 59.7556  6035.23  78.2911
 59.7976  5910.57  77.2232
 59.8396  5926.62  77.2232
 59.8816  6011.5  78.3173
 59.9236  5874.23  77.0676
 59.9656  5947.29  77.8031
 60.0076  5974.05  77.3397
 60.0496  6081.25  78.5362
 60.0916  6095.18  78.0415
 60.1336  5911.42  77.9517
 60.1756  5764.07  78.1312
 60.1996  0.0000000E+00  0.0000000E+00