File: docs/examples/opeando_xrd/IS17_D/Data/IS17_D/17_Da_f00021.xye
# /beamlines/bl04/projects/cycle2025-II/20250340211-lsimonelli/DATA/IS17_D/17_Da_f00021.xye : mythproc.py merge -s 0.006 -l 0.5 -f /beamlines/bl04/inhouse/ff/FlatField/ff_20Nov2024rod8mm60s_17keV.raw -b True -c true -o xye /beamlines/bl04/projects/cycle2025-II/20250340211-lsimonelli/DATA/IS17_D/17_Da_00021.dat
# IsMon = [6769817, 6770835, 6772201]  IsPos = [-1.4999, -2.4885, -3.4986]
# Wave = 0.4962  CalPath /beamlines/bl04/projects/cycle2025-II/20250340211-lsimonelli/DATA/Align/Si_Pos1_25keV_f00001.cal
# Date = 2025-09-23_23:25:05 Dt = 4.8000  Bin = 0.0060  <imon> = 6770951 +/- 977 (Min/Max) 6769817 / 6772201
# icurr 251.2970  mocoIn 1.7143E-05  mocoOut 0.8046  i15 7.08527e+06  imon 6.77095e+06  i7 3.6667  iEMpd_timer 4.8000  iEMpd_1 3.4953E-08  iEMpd_2 7.8018E-08  iEMpd_3 1.7485E-08  iEMpd_4 4.7492E-08  iEMhp_timer 4.8000  iEMhp_1 4.9106E-06  iEMhp_2 -2.4841E-08  iEMhp_3 -2.2462E-08  iEMhp_4 -2.0110E-08
#      9776
 1.5856  38783.9  202.239
 1.6276  45726.6  215.828
 1.6696  52662.9  230.803
 1.7116  61632.5  250.174
 1.7536  70264.3  265.981
 1.7956  75299.2  276.033
 1.8376  71997.3  270.341
 1.8796  59432.1  243.811
 1.9216  48130.2  220.284
 1.9636  39821.5  199.55
 2.0056  36079.6  189.206
 2.0476  33061.1  183.104
 2.0896  31978.1  179.024
 2.1316  31263.9  176.163
 2.1736  29518.9  172.534
 2.2156  29775.7  171.892
 2.2576  28975.9  170.175
 2.2996  27549.1  166.542
 2.3416  28231.7  167.248
 2.3836  28007.1  166.683
 2.4256  26931.8  163.985
 2.4676  26779.3  163.288
 2.5096  27194.5  164.603
 2.5516  32781.1  184.827
 2.5936  113201  336.647
 2.6356  29441.1  172.415
 2.6776  25839.3  160.431
 2.7196  24915.4  158.036
 2.7616  24771.2  157.364
 2.8036  24124.1  155.462
 2.8456  24194.6  156.283
 2.8876  23992.3  155.485
 2.9296  23170.5  152.945
 2.9716  23103.2  152.232
 3.0136  22753.1  151.138
 3.0556  22870.3  151.912
 3.0976  22821.2  150.709
 3.1396  22780.3  151.279
 3.1816  22417.4  150.004
 3.2236  22143.2  149.072
 3.2656  22293.4  148.65
 3.3076  22092.8  149.389
 3.3496  22388.5  149.596
 3.3916  22694.1  150.2
 3.4336  23279.8  152.691
 3.4756  23581.7  153.607
 3.5176  24202.6  155.405
 3.5596  24323.6  158.177
 3.6016  24451.2  156.26
 3.6436  23644.5  154.736
 3.6856  23159.5  151.486
 3.7276  22396  150.028
 3.7696  22133.3  149.329
 3.8116  21724.3  147.833
 3.8536  21860.3  148.234
 3.8956  21864.9  148.08
 3.9376  22300.6  149.827
 3.9796  21662  147.157
 4.0216  21814.3  146.734
 4.0636  21788.4  148.088
 4.1056  21795.6  147.761
 4.1476  21908  148.452
 4.1896  21945.4  148.44
 4.2316  22303.2  149.471
 4.2736  22657.3  150.447
 4.3156  23130.7  152.234
 4.3576  23680.7  153.968
 4.3996  23926.6  154.821
 4.4416  24573.5  156.689
 4.4836  25924.5  161.09
 4.5256  25856.5  161.485
 4.5676  25575.4  160.854
 4.6096  26115.1  161.218
 4.6516  26618.5  162.479
 4.6936  26764.4  163.723
 4.7356  27378.9  165.423
 4.7776  26916.7  163.854
 4.8196  26346.2  162.749
 4.8616  26103.2  161.615
 4.9036  25842.8  160.43
 4.9456  25829.8  161.03
 4.9876  25144.3  158.778
 5.0296  25304.5  159.102
 5.0716  25231.4  159.494
 5.1136  25274.7  159.489
 5.1556  25930.6  161.013
 5.1976  32770.9  180.998
 5.2396  26536  162.577
 5.2816  26164.6  161.895
 5.3236  26137  161.514
 5.3656  25731.4  161.164
 5.4076  25436.8  160.382
 5.4496  25428.1  159.85
 5.4916  25672.5  160.381
 5.5336  25604.7  160.174
 5.5756  25473  159.788
 5.6176  25593.6  159.618
 5.6596  25814.1  161.261
 5.7016  25951.1  160.964
 5.7436  26232  162.106
 5.7856  26046.6  161.585
 5.8276  26222  161.859
 5.8696  26384.1  162.528
 5.9116  26327.2  162.911
 5.9536  26607.3  163.563
 5.9956  26882.5  163.78
 6.0376  27017.1  164.817
 6.0796  27246.9  165.354
 6.1216  27117.2  165.156
 6.1636  27521.6  165.463
 6.2056  27511  166.085
 6.2476  27567.8  166.133
 6.2896  27907.8  166.84
 6.3316  27711.2  166.424
 6.3736  27867.3  166.787
 6.4156  27760.2  166.364
 6.4576  28132.3  167.088
 6.4996  28322.5  168.121
 6.5416  28504.1  168.797
 6.5836  28750.7  169.753
 6.6256  28603.2  168.885
 6.6676  28877.6  169.269
 6.7096  28614.9  169.334
 6.7516  29199.5  170.711
 6.7936  30120.6  172.566
 6.8356  30520.8  174.04
 6.8776  30156.7  173.79
 6.9196  29824.4  173.226
 6.9616  30264.1  173.923
 7.0036  30659.6  174.742
 7.0456  30865.2  174.626
 7.0876  30715.7  175.87
 7.1296  30467.1  174.312
 7.1716  30453.4  173.818
 7.2136  30260.8  173.051
 7.2556  30375.1  173.54
 7.2976  30548  174.522
 7.3396  30374.9  174.236
 7.3816  30357.1  174.394
 7.4236  30735.9  174.781
 7.4656  30755.7  174.329
 7.5076  30976.1  175.088
 7.5496  31100.4  175.966
 7.5916  30884.3  175.387
 7.6336  31736.6  177.688
 7.6756  31443.5  176.719
 7.7176  31852.2  178.172
 7.7596  31757.3  179.129
 7.8016  36344.4  193.911
 7.8436  32846.2  181.049
 7.8856  32934.9  180.914
 7.9276  33763.7  183.563
 7.9696  33780.9  183.92
 8.0116  34823.3  185.649
 8.0536  35064.9  186.186
 8.0956  36929.6  192.26
 8.1376  35205.8  187.201
 8.1796  35214.1  187.756
 8.2216  36692  190.402
 8.2636  36983.6  191.402
 8.3056  36514.4  190.948
 8.3476  38150.7  194.502
 8.3896  37227.1  192.656
 8.4316  36793.8  191.257
 8.4736  36849.3  190.868
 8.5156  36285.7  189.679
 8.5576  36248.4  190.548
 8.5996  36266.1  189.478
 8.6416  35874.6  189.693
 8.6836  35951  189.723
 8.7256  36815.1  191.447
 8.7676  38106.3  197.718
 8.8096  38005.5  194.738
 8.8516  36027.1  189.207
 8.8936  37187.3  192.123
 8.9356  35231.2  187.351
 8.9776  35567.7  188.322
 9.0196  35061.8  186.669
 9.0616  35641  187.666
 9.1036  37207.5  192.96
 9.1456  35286.1  187.271
 9.1876  34835.9  186.027
 9.2296  34588.8  184.769
 9.2716  33772.4  182.651
 9.3136  33882.2  182.928
 9.3556  34375.4  184.237
 9.3976  32745.6  180.335
 9.4396  33460.1  182.183
 9.4816  32773.9  180.176
 9.5236  32979  180.648
 9.5656  32474.8  179.561
 9.6076  32359.3  179.777
 9.6496  32179.2  179.2
 9.6916  32232.9  179.318
 9.7336  32276.4  179.226
 9.7756  32636.6  181.546
 9.8176  31527.4  177.868
 9.8596  31496.4  176.264
 9.9016  31233.6  175.521
 9.9436  31122.7  175.124
 9.9856  31087.5  175.244
 10.0276  30201.9  173.813
 10.0696  30770.5  174.498
 10.1116  30008  172.579
 10.1536  29921.3  172.492
 10.1956  28970.3  169.341
 10.2376  28727.1  168.147
 10.2796  29009.9  169.095
 10.3216  28616.5  168.206
 10.3636  28702.7  168.489
 10.4056  31212.9  176.117
 10.4476  31387.9  176.219
 10.4896  34870.4  185.144
 10.5316  31612.8  177.021
 10.5736  28539.8  168.605
 10.6156  27965.3  166.669
 10.6576  32693.3  178.67
 10.6996  28073.5  166.234
 10.7416  27193.3  163.833
 10.7836  28393  168.105
 10.8256  26632.6  163.23
 10.8676  26766.9  163.185
 10.9096  26639.6  162.835
 10.9516  26182.5  160.387
 10.9936  26950.3  162.917
 11.0356  26360.6  161.753
 11.0776  27694.9  165.094
 11.1196  27083  164.01
 11.1616  25729.8  159.557
 11.2036  26672.2  162.306
 11.2456  27827.6  166.517
 11.2876  25421.6  158.886
 11.3296  25525.4  159.112
 11.3716  25874.2  159.889
 11.4136  25315.3  159.034
 11.4556  25639.7  159.718
 11.4976  26654.2  161.817
 11.5396  27115.5  163.378
 11.5816  25872.6  160.051
 11.6236  25121.5  158.136
 11.6656  24908.1  156.424
 11.7076  24267.3  155.216
 11.7496  24498.6  159.812
 11.7916  24735.2  155.978
 11.8336  23961.5  154.411
 11.8756  24133.6  154.478
 11.9176  24061.4  154.153
 11.9596  23566.4  152.502
 12.0016  23572.9  153.301
 12.0436  23324.3  151.929
 12.0856  23215.9  152.087
 12.1276  23369.4  152.504
 12.1696  23331.9  151.538
 12.2116  23752.2  152.891
 12.2536  25240.7  158.455
 12.2956  23765.8  153.097
 12.3376  23510.4  152.484
 12.3796  23408.4  152.596
 12.4216  23614.2  152.5
 12.4636  24263.5  155.506
 12.5056  23194.4  151.322
 12.5476  23351.4  151.369
 12.5896  23157.7  151.357
 12.6316  22767.1  150.236
 12.6736  22986.6  151.278
 12.7156  22928.1  151.106
 12.7576  23068.9  151.806
 12.7996  23368.2  151.45
 12.8416  23291.4  152.234
 12.8836  24297  155.297
 12.9256  23616.6  152.154
 12.9676  23750  153.003
 13.0096  23374.3  152.867
 13.0516  23607.2  152.68
 13.0936  23435.9  152.517
 13.1356  23775.6  152.621
 13.1776  23654.1  153.201
 13.2196  23646.4  152.84
 13.2616  23492.6  152.633
 13.3036  23594.7  152.948
 13.3456  23440.8  152.595
 13.3876  23849  153.428
 13.4296  23552.1  152.614
 13.4716  23873  153.256
 13.5136  23656.8  152.718
 13.5556  23878.1  154.034
 13.5976  23577.4  153.207
 13.6396  24032.6  154.053
 13.6816  23640.2  153.272
 13.7236  24498.7  155.672
 13.7656  23860.3  154.165
 13.8076  24649.2  155.473
 13.8496  23541  152.532
 13.8916  23458.2  153.251
 13.9336  23318.4  152.031
 13.9756  23264.5  151.218
 14.0176  23256.3  151.858
 14.0596  24101.9  154.559
 14.1016  23097.3  151.693
 14.1436  22562.2  149.084
 14.1856  22690.4  149.795
 14.2276  22411.8  149.347
 14.2696  22807.1  150.504
 14.3116  22338.9  148.851
 14.3536  21933.5  147.668
 14.3956  21669.4  146.513
 14.4376  21866.3  146.961
 14.4796  21845.9  146.884
 14.5216  21511.6  146.536
 14.5636  21904.3  147.436
 14.6056  21506.6  145.675
 14.6476  21370.9  144.456
 14.6896  21013.2  143.777
 14.7316  20515.6  143.054
 14.7736  20704.5  142.891
 14.8156  20200.9  141.172
 14.8576  20467.6  141.954
 14.8996  20201.2  142.218
 14.9416  19710.5  140.482
 14.9836  19831.2  140.864
 15.0256  19674.1  139.252
 15.0676  19621.8  139.378
 15.1096  19320.9  138.048
 15.1516  18837.4  136.85
 15.1936  18889.1  136.481
 15.2356  18801.6  136.436
 15.2776  18993.8  136.719
 15.3196  18551.5  136.106
 15.3616  18681.4  136.337
 15.4036  18429.9  135.281
 15.4456  18900.6  136.421
 15.4876  18361.2  134.37
 15.5296  18198.1  134.056
 15.5716  18076  133.208
 15.6136  17880.6  132.811
 15.6556  19607.9  138.294
 15.6976  18274.9  133.583
 15.7396  17751  132.252
 15.7816  17767.8  131.827
 15.8236  17361.1  130.999
 15.8656  17366.9  130.817
 15.9076  17406.9  130.8
 15.9496  17523.5  134.024
 15.9916  17057.9  132.662
 16.0336  16855.5  128.813
 16.0756  16750.7  128.713
 16.1176  16593.1  128.171
 16.1596  16402.9  128.593
 16.2016  16628.8  128.235
 16.2436  16151.3  126.76
 16.2856  16212.4  126.55
 16.3276  15814.6  125.396
 16.3696  16198.1  126.73
 16.4116  15974.5  126.302
 16.4536  16111.6  126.62
 16.4956  16504.7  127.91
 16.5376  16139.7  126.669
 16.5796  15841.2  124.862
 16.6216  16001.7  125.796
 16.6636  16070  126.213
 16.7056  15659.8  124.466
 16.7476  15840.7  124.86
 16.7896  15953.8  125.905
 16.8316  15713.8  124.917
 16.8736  15964.1  126.167
 16.9156  16078.9  126.953
 16.9576  15621.2  125.921
 16.9996  15813.6  127.173
 17.0416  15648.9  124.897
 17.0836  15434.5  123.799
 17.1256  15389.8  123.632
 17.1676  15832.3  125.399
 17.2096  15641  124.512
 17.2516  15351.8  123.141
 17.2936  15204.1  122.869
 17.3356  14718.3  120.896
 17.3776  14780.3  121.333
 17.4196  14861.1  121.363
 17.4616  15054.1  122.068
 17.5036  15181.1  122.942
 17.5456  14591.7  121.162
 17.5876  14472  119.735
 17.6296  14582.9  120.017
 17.6716  14564.1  120.499
 17.7136  15116.6  122.906
 17.7556  14411.8  120.293
 17.7976  14592  120.654
 17.8396  14516.5  119.981
 17.8816  14151.1  118.983
 17.9236  14174.1  118.898
 17.9656  14543.8  121.133
 18.0076  14829.7  121.735
 18.0496  15253.7  122.582
 18.0916  18962  137.275
 18.1336  16951.8  129.91
 18.1756  15235.4  122.668
 18.2176  16075.2  126.254
 18.2596  14332  118.95
 18.3016  14984.5  121.882
 18.3436  15500.2  124.212
 18.3856  14528.8  120.156
 18.4276  14195.5  118.443
 18.4696  14435.3  119.541
 18.5116  14407.3  119.71
 18.5536  14348.5  119.814
 18.5956  14336.7  119.327
 18.6376  14296.1  119.561
 18.6796  14041.6  117.819
 18.7216  14382.2  119.806
 18.7636  13976.2  118.024
 18.8056  13758.1  117.036
 18.8476  13555.4  116.484
 18.8896  13662.5  116.59
 18.9316  13870  117.294
 18.9736  13687.5  116.385
 19.0156  14266.2  119.203
 19.0576  14040.7  117.151
 19.0996  13807.4  116.875
 19.1416  13637.5  116.538
 19.1836  13497  115.546
 19.2256  13355.2  115.142
 19.2676  13424.5  115.528
 19.3096  13496.2  116.082
 19.3516  13445.1  115.822
 19.3936  13667  116.739
 19.4356  13569  116.135
 19.4776  13521.5  116.022
 19.5196  13436.7  115.51
 19.5616  13460.1  115.869
 19.6036  13417.1  115.049
 19.6456  13623  116.183
 19.6876  14002.1  117.436
 19.7296  13442.9  115.513
 19.7716  13421.2  115.437
 19.8136  13697.5  116.97
 19.8556  13809.1  116.93
 19.8976  14058.1  118.045
 19.9396  13788.2  116.489
 19.9816  14220.2  118.54
 20.0236  14496.2  119.906
 20.0656  13975.4  117.725
 20.1076  13596.5  116.574
 20.1496  13470.9  116.038
 20.1916  13464  115.536
 20.2336  13422.3  115.296
 20.2756  13154.7  114.555
 20.3176  13008.6  113.67
 20.3596  13290.6  114.872
 20.4016  13118.8  113.937
 20.4436  13164.8  114.693
 20.4856  12864.9  113.16
 20.5276  13052.6  114.442
 20.5696  12942.5  113.428
 20.6116  12963.1  113.789
 20.6536  12815.2  112.709
 20.6956  12772.3  112.59
 20.7376  12787  112.877
 20.7796  12855.3  112.869
 20.8216  12958.4  113.037
 20.8636  13009.5  113.621
 20.9056  14042.5  117.993
 20.9476  12839.4  112.674
 20.9896  13836.7  116.831
 21.0316  12940.5  112.879
 21.0736  13156.2  114.331
 21.1156  13266.6  114.978
 21.1576  12984.4  113.794
 21.1996  12595.4  112.053
 21.2416  12711.1  112.408
 21.2836  12979.1  113.547
 21.3256  12614.3  112.023
 21.3676  12808.2  112.43
 21.4096  12930.4  113.277
 21.4516  12586.7  111.642
 21.4936  12479.7  111.402
 21.5356  12562.5  111.733
 21.5776  12777.4  112.518
 21.6196  12672.7  112.093
 21.6616  12477  111.302
 21.7036  12512.3  111.248
 21.7456  12362.2  110.65
 21.7876  12294  110.101
 21.8296  12297  109.974
 21.8716  12308.9  110.256
 21.9136  12504  111.324
 21.9556  12690.8  111.828
 21.9976  12478  110.9
 22.0396  12260.1  110.179
 22.0816  12423.7  111.441
 22.1236  12755.9  112.373
 22.1656  12364.8  110.816
 22.2076  12473.5  110.729
 22.2496  12435.5  110.586
 22.2916  12432  110.445
 22.3336  12543.6  111.651
 22.3756  12427.9  110.877
 22.4176  12367.5  110.464
 22.4596  12080.4  109.748
 22.5016  12503.3  111.157
 22.5436  12362.3  110.406
 22.5856  12399.4  110.817
 22.6276  12175.3  109.944
 22.6696  12163.3  110.235
 22.7116  12182  109.841
 22.7536  12340.3  110.528
 22.7956  12303.6  109.701
 22.8376  12114.8  109.368
 22.8796  12082.4  109.028
 22.9216  12366.6  110.842
 22.9636  12281  109.622
 23.0056  12147.7  109.16
 23.0476  12306.3  110.432
 23.0896  12581.2  111.04
 23.1316  12520.1  111.205
 23.1736  12117.8  112.296
 23.2156  12385.3  110.832
 23.2576  12442.2  111.314
 23.2996  12194.8  109.985
 23.3416  12152.8  110.314
 23.3836  12260.3  110.021
 23.4256  12243.8  110.084
 23.4676  12137.9  109.31
 23.5096  12161.4  110.076
 23.5516  12125.8  109.214
 23.5936  12383.3  111.248
 23.6356  12512.7  111.508
 23.6776  12175.7  110.538
 23.7196  12045.3  109.198
 23.7616  12270  110.131
 23.8036  12139.8  109.592
 23.8456  12187.6  109.376
 23.8876  11925.7  108.541
 23.9296  11983.1  109.289
 23.9716  12150.5  109.249
 24.0136  12043.7  109.658
 24.0556  11959.7  109.007
 24.0976  11756.6  107.887
 24.1396  11838.4  110.855
 24.1816  11891.6  109.894
 24.2236  11816.6  108.839
 24.2656  11779.5  108.147
 24.3076  11643.4  107.773
 24.3496  11909.7  108.882
 24.3916  11762  108.258
 24.4336  11846.7  108.853
 24.4756  11777.5  108.406
 24.5176  11341.4  106.035
 24.5596  11341.7  106.154
 24.6016  11382.1  106.633
 24.6436  11466.5  106.525
 24.6856  11341.4  105.707
 24.7276  11530.5  106.897
 24.7696  11233.5  105.624
 24.8116  11334.3  106.275
 24.8536  11245.8  105.851
 24.8956  11199  105.374
 24.9376  11391.1  106.215
 24.9796  11048.8  104.952
 25.0216  11047.5  105.06
 25.0636  11310.2  105.955
 25.1056  11044.5  105.127
 25.1476  11030.5  106.974
 25.1896  11180.9  106.184
 25.2316  11150.1  105.2
 25.2736  11027.9  104.397
 25.3156  10906.3  103.887
 25.3576  10886.2  104.208
 25.3996  11038.4  104.92
 25.4416  10954.7  104.502
 25.4836  10807.4  104.318
 25.5256  10813.5  103.718
 25.5676  11002.4  104.352
 25.6096  10585.1  102.915
 25.6516  10791  103.41
 25.6936  10730.2  103.437
 25.7356  10745.6  103.636
 25.7776  10838  103.693
 25.8196  10643.8  102.994
 25.8616  10777  103.553
 25.9036  10859.5  103.428
 25.9456  10662.7  103.073
 25.9876  10625.7  102.956
 26.0296  10833.8  103.562
 26.0716  10593.9  102.737
 26.1136  10899.8  104.151
 26.1556  10770.7  102.829
 26.1976  10620  103.111
 26.2396  10701  102.91
 26.2816  10568  102.627
 26.3236  10732.5  103.499
 26.3656  10582.3  102.584
 26.4076  10735  103.521
 26.4496  11007.9  104.306
 26.4916  10864.8  103.646
 26.5336  10624.8  102.82
 26.5756  10920.6  104.1
 26.6176  10736.8  103.27
 26.6596  10567.4  102.76
 26.7016  10482.1  102.147
 26.7436  10247.3  101.08
 26.7856  10225  100.956
 26.8276  10318.6  101.372
 26.8696  10399.4  101.644
 26.9116  10316.2  101.179
 26.9536  10310.9  101.197
 26.9956  10282.9  101.095
 27.0376  10183.8  100.814
 27.0796  10296.8  101.149
 27.1216  10299.1  101.197
 27.1636  10228.8  101.015
 27.2056  10267.7  101.091
 27.2476  10250.8  101.008
 27.2896  10031.5  99.9579
 27.3316  10102  100.097
 27.3736  10184.1  100.767
 27.4156  9987.32  99.6367
 27.4576  10145.6  100.651
 27.4996  10128.4  100.164
 27.5416  10026.8  99.9742
 27.5836  10216  100.731
 27.6256  10371.7  101.657
 27.6676  10267.2  101.166
 27.7096  10031.8  99.8652
 27.7516  10562  102.626
 27.7936  10381.9  101.921
 27.8356  10241.1  100.849
 27.8776  10015.5  99.7742
 27.9196  10133.1  100.202
 27.9616  10232.6  100.884
 28.0036  10069.7  100.057
 28.0456  9949.9  99.5881
 28.0876  10039.9  100.128
 28.1296  9926.76  99.4051
 28.1716  9853.52  99.0476
 28.2136  9921.39  99.351
 28.2556  9814.14  98.9247
 28.2976  9847.25  99.0881
 28.3396  10001.4  99.6536
 28.3816  9920.9  99.2387
 28.4236  9996.31  99.7666
 28.4656  9720.92  98.4077
 28.5076  9679.07  97.8507
 28.5496  9688.03  98.1527
 28.5916  9757.64  98.3139
 28.6336  9652.82  98.1249
 28.6756  9740.46  97.7757
 28.7176  9668.38  97.9494
 28.7596  9473.93  96.8664
 28.8016  9601.41  97.6307
 28.8436  9532.44  97.4324
 28.8856  9626.33  97.7678
 28.9276  9645.42  98.1036
 28.9696  9614.49  97.6117
 29.0116  9509.47  97.2467
 29.0536  9396.4  96.8793
 29.0956  9571.64  97.497
 29.1376  9614.35  97.6762
 29.1796  9439.97  96.8289
 29.2216  9432.63  96.6391
 29.2636  9569.33  97.3249
 29.3056  9411.2  96.3967
 29.3476  9423.73  96.975
 29.3896  9525.3  97.5875
 29.4316  9564.97  97.1384
 29.4736  9450.48  96.6162
 29.5156  9527.5  96.9323
 29.5576  9447.99  97.259
 29.5996  9580.52  97.2003
 29.6416  9255.5  95.6504
 29.6836  9524.62  96.9602
 29.7256  9409.76  96.9351
 29.7676  9492.25  97.0189
 29.8096  9474.53  96.8671
 29.8516  9241.6  95.9985
 29.8936  9439.45  97.1181
 29.9356  9372.55  96.5295
 29.9776  9238.92  95.9906
 30.0196  9419.76  96.3208
 30.0616  9595.36  97.5879
 30.1036  9375.13  96.2891
 30.1456  9277.72  96.0379
 30.1876  9248.13  95.8404
 30.2296  9191.4  95.4914
 30.2716  9341.54  95.9146
 30.3136  9220.36  95.8732
 30.3556  9285.82  96.4876
 30.3976  9254.88  97.8373
 30.4396  9432.04  96.1127
 30.4816  9379.67  95.4488
 30.5236  9252.09  94.8168
 30.5656  9203.98  95.2091
 30.6076  9280.39  95.0451
 30.6496  9180.57  94.9069
 30.6916  9232.31  95.2638
 30.7336  9267.19  95.596
 30.7756  9204.88  95.581
 30.8176  9115.32  94.8172
 30.8596  9343.66  95.7679
 30.9016  9111.78  94.9069
 30.9436  9252.05  95.3878
 30.9856  9179.07  95.1194
 31.0276  9140.61  94.5287
 31.0696  9020.65  94.3487
 31.1116  9064.21  94.6824
 31.1536  9275.35  95.6568
 31.1956  9155.15  95.126
 31.2376  9036.37  94.5162
 31.2796  8889.47  93.2914
 31.3216  9085.86  94.2657
 31.3636  9070.92  94.8677
 31.4056  9125.19  96.4551
 31.4476  9036.7  93.9091
 31.4896  9017.52  94.3059
 31.5316  9101.04  94.1921
 31.5736  9685.8  96.9447
 31.6156  9416.1  95.5954
 31.6576  9210.62  94.6501
 31.6996  9137.43  93.9474
 31.7416  9061.55  94.6078
 31.7836  8925  92.9224
 31.8256  8973.91  93.5225
 31.8676  9078.55  93.9881
 31.9096  8823.87  93.0092
 31.9516  8813.53  93.1106
 31.9936  8896.44  93.3723
 32.0356  8970.29  93.8289
 32.0776  8924.23  93.4721
 32.1196  8964.38  93.7714
 32.1616  8959.54  93.211
 32.2036  8800.55  92.8802
 32.2456  8796.31  93.2341
 32.2876  8889.22  93.0599
 32.3296  8831.18  92.8866
 32.3716  8855.23  93.1154
 32.4136  8849.11  93.2937
 32.4556  8969.05  93.3666
 32.4976  8874.21  92.7147
 32.5396  8793.17  92.3666
 32.5816  8715.36  91.9703
 32.6236  8723.96  92.1939
 32.6656  8828.7  93.2754
 32.7076  8704.03  92.275
 32.7496  8777.63  92.3375
 32.7916  8832.65  92.5857
 32.8336  8768.36  92.3432
 32.8756  8782.15  92.2314
 32.9176  8698.48  92.18
 32.9596  8692.09  92.2138
 33.0016  8820.99  92.6923
 33.0436  8873.08  93.1378
 33.0856  8607.81  91.8066
 33.1276  8663.16  91.8439
 33.1696  8692.92  91.8371
 33.2116  8813.74  92.6994
 33.2536  8759.48  92.4122
 33.2956  8690.25  92.1296
 33.3376  8612.75  91.4275
 33.3796  8850.67  92.925
 33.4216  8669.49  91.5767
 33.4636  8648.71  91.6013
 33.5056  8673.72  91.8112
 33.5476  8568.75  91.4114
 33.5896  8604.87  91.3428
 33.6316  8527.32  91.2797
 33.6736  8389.57  90.7665
 33.7156  8460.83  91.2039
 33.7576  8574.28  91.4488
 33.7996  8669.23  91.7172
 33.8416  8420.61  90.5696
 33.8836  8597.75  91.2997
 33.9256  8559.78  91.1621
 33.9676  8684.89  91.7198
 34.0096  8360.75  90.298
 34.0516  8506.07  90.7267
 34.0936  8477.78  90.8368
 34.1356  8580.67  91.1306
 34.1776  8439.06  90.3895
 34.2196  8232.3  89.4478
 34.2616  8465.3  90.8936
 34.3036  8357.53  90.5002
 34.3456  8400.39  90.4908
 34.3876  8414.27  90.533
 34.4296  8348.12  89.8657
 34.4716  8475.37  90.6887
 34.5136  8440.2  90.7088
 34.5556  8396.52  90.7314
 34.5976  8437.91  90.7507
 34.6396  8339.44  89.9441
 34.6816  8401.61  90.3874
 34.7236  8359.12  89.9463
 34.7656  8410.21  90.4091
 34.8076  8237.91  89.8021
 34.8496  8373.9  90.3969
 34.8916  8229.62  89.4899
 34.9336  8456.29  90.6795
 34.9756  8774.64  92.2449
 35.0176  8460.27  91.1436
 35.0596  8332.86  90.284
 35.1016  8252.52  89.6219
 35.1436  8457.49  90.4177
 35.1856  8250.8  89.4286
 35.2276  8402.51  90.4194
 35.2696  8228.51  89.6657
 35.3116  8291.02  90.0992
 35.3536  8338.8  90.0727
 35.3956  8301.63  89.5816
 35.4376  8219.61  89.6886
 35.4796  8367.41  90.5484
 35.5216  8193.01  89.4869
 35.5636  8160.53  90.1148
 35.6056  8299.32  89.9024
 35.6476  8357.9  90.1178
 35.6896  8293.25  89.9308
 35.7316  8106.08  88.8101
 35.7736  8239.61  89.7357
 35.8156  8142.29  89.1982
 35.8576  8154.1  89.5118
 35.8996  8337.85  90.4828
 35.9416  8372.31  90.169
 35.9836  8210.85  89.6449
 36.0256  8178.61  89.4907
 36.0676  8194.5  89.1226
 36.1096  8057.06  88.7198
 36.1516  8318.84  90.0389
 36.1936  8188.06  89.179
 36.2356  8158.09  89.6469
 36.2776  8069.98  88.6536
 36.3196  8098.92  88.4873
 36.3616  8172.79  89.0166
 36.4036  8190.96  89.1796
 36.4456  8127.15  89.0369
 36.4876  7989.89  88.2133
 36.5296  8037.78  88.5273
 36.5716  8201.26  90.1978
 36.6136  8336.96  89.708
 36.6556  8315.26  89.7933
 36.6976  8191.92  89.6223
 36.7396  8141.16  89.1697
 36.7816  8117.18  89.317
 36.8236  8132.02  89.3248
 36.8656  7978.26  88.5506
 36.9076  8150.34  89.4989
 36.9496  8006.82  88.7219
 36.9916  8091  88.6685
 37.0336  8216.92  89.6691
 37.0756  8243.23  89.6052
 37.1176  7948.53  88.3446
 37.1596  8071.13  88.9289
 37.2016  7885.02  88.0818
 37.2436  8149.94  88.9165
 37.2856  7957.83  88.1135
 37.3276  8025.88  87.8451
 37.3696  8073.06  88.9857
 37.4116  8070.72  88.8761
 37.4536  8049.54  88.6304
 37.4956  7956.54  88.1606
 37.5376  7875.64  89.2362
 37.5796  7935.62  89.5409
 37.6216  7816.94  87.1561
 37.6636  7839.79  87.1936
 37.7056  7936.16  87.9163
 37.7476  7862.2  87.0472
 37.7896  7892.95  87.7057
 37.8316  7704.62  86.8296
 37.8736  7890.9  87.3986
 37.9156  7855.19  87.2049
 37.9576  7873.66  87.3369
 37.9996  7790.88  86.4569
 38.0416  7849.96  87.5916
 38.0836  7984.06  88.2413
 38.1256  7969.55  88.1145
 38.1676  7833.43  87.4947
 38.2096  7850.3  87.2214
 38.2516  7973.62  88.0028
 38.2936  7892.03  87.4558
 38.3356  7947.49  87.6757
 38.3776  7753.51  86.8712
 38.4196  7915.43  87.6258
 38.4616  7670.95  86.4944
 38.5036  7947.69  87.8775
 38.5456  7691.18  87.2718
 38.5876  7850.24  88.2061
 38.6296  7815.93  87.0017
 38.6716  7763.34  86.5055
 38.7136  7655.66  85.846
 38.7556  7637.11  86.2366
 38.7976  7705.86  86.5602
 38.8396  7663.88  86.7718
 38.8816  7593.58  86.1527
 38.9236  7723.31  86.7027
 38.9656  7802.12  87.0594
 39.0076  7700.27  85.9058
 39.0496  7754.98  86.7466
 39.0916  7793.29  86.6018
 39.1336  7617.63  86.0324
 39.1756  7709.94  86.6183
 39.2176  7631.38  86.6978
 39.2596  7755.83  87.3221
 39.3016  7552.11  85.7472
 39.3436  7470.44  85.6983
 39.3856  7727.22  86.6162
 39.4276  7809.05  87.5625
 39.4696  7529.65  85.6156
 39.5116  7584.96  86.4336
 39.5536  7848.66  88.3471
 39.5956  7810.52  87.2368
 39.6376  7747.1  86.7254
 39.6796  7691.03  86.3191
 39.7216  7679.9  86.3481
 39.7636  7725.82  87.1755
 39.8056  7774.7  87.2322
 39.8476  7636.67  86.7028
 39.8896  7706.92  86.7263
 39.9316  7689.79  86.8864
 39.9736  7769.04  86.9034
 40.0156  7790.11  86.8492
 40.0576  7678.3  86.5769
 40.0996  7891.61  86.9632
 40.1416  7722.78  86.8091
 40.1836  7828.94  87.2871
 40.2256  7687.98  86.5472
 40.2676  7755.16  87.0295
 40.3096  7768.85  87.0276
 40.3516  7828.29  87.5494
 40.3936  7733.8  86.5097
 40.4356  7757.17  86.8362
 40.4776  7740.38  87.142
 40.5196  7816.4  87.6937
 40.5616  7835.29  87.4461
 40.6036  7713.01  87.0114
 40.6456  7778.57  86.985
 40.6876  7856.42  87.4124
 40.7296  7792.33  87.1933
 40.7716  7859.49  87.6988
 40.8136  7808.68  87.3568
 40.8556  7761.84  87.2273
 40.8976  7777.82  87.2393
 40.9396  7717.94  87.2435
 40.9816  7879.57  87.4411
 41.0236  7797.23  86.767
 41.0656  7774.96  87.177
 41.1076  7868.58  87.474
 41.1496  7684.66  86.3569
 41.1916  7715.98  86.8504
 41.2336  7724  86.883
 41.2756  7795.76  86.8961
 41.3176  7773.44  87.3799
 41.3596  7768.47  87.0865
 41.4016  7709.11  87.0031
 41.4436  7831.78  87.4878
 41.4856  7831.33  87.6399
 41.5276  7734.89  87.1208
 41.5696  7862.56  87.4532
 41.6116  7765.09  87.3169
 41.6536  7796.29  87.354
 41.6956  7746.88  87.1303
 41.7376  7763.22  87.2517
 41.7796  7741.5  87.0571
 41.8216  7741.96  87.2478
 41.8636  7829.83  87.6773
 41.9056  7641.51  86.4122
 41.9476  7732.37  87.1588
 41.9896  7712.58  86.7182
 42.0316  7755.88  87.0385
 42.0736  7682.12  86.7323
 42.1156  7646.71  86.3751
 42.1576  7707.17  86.8102
 42.1996  7775.47  87.3356
 42.2416  7749.97  86.7799
 42.2836  7608.39  86.094
 42.3256  7635.77  86.3642
 42.3676  7743.95  86.78
 42.4096  7580.69  85.8248
 42.4516  7692.72  86.542
 42.4936  7619.52  86.1971
 42.5356  7718.36  86.8826
 42.5776  7684.56  86.6292
 42.6196  7683.24  86.6016
 42.6616  7601.81  86.3913
 42.7036  7737.94  86.5476
 42.7456  7715.14  86.7747
 42.7876  7704.01  86.8106
 42.8296  7653.99  86.424
 42.8716  7535.73  85.8445
 42.9136  7565.56  85.8137
 42.9556  7560.03  85.9144
 42.9976  7608.65  86.1502
 43.0396  7632.3  86.0189
 43.0816  7565.33  85.9996
 43.1236  7533.5  85.8895
 43.1656  7497.43  85.5189
 43.2076  7575.43  86.0581
 43.2496  7489.5  85.3855
 43.2916  7506.11  85.8465
 43.3336  7606.54  86.2592
 43.3756  7559.82  85.7462
 43.4176  7442.03  85.1612
 43.4596  7509  85.3997
 43.5016  7497.29  85.7333
 43.5436  7527.49  85.8056
 43.5856  7486.86  85.5965
 43.6276  7523.2  85.7041
 43.6696  7506.26  85.7497
 43.7116  7503.72  85.3542
 43.7536  7560.25  86.1582
 43.7956  7362.52  86.1665
 43.8376  7429.07  85.1464
 43.8796  7441.61  85.295
 43.9216  7619.61  86.2279
 43.9636  7460.62  85.4273
 44.0056  7421.99  85.4249
 44.0476  7470.38  85.348
 44.0896  7370.35  85.1132
 44.1316  7400.4  84.9496
 44.1736  7457.7  85.2578
 44.2156  7437.49  85.0052
 44.2576  7350.89  84.8304
 44.2996  7385.65  85.0049
 44.3416  7455.8  85.1696
 44.3836  7279.03  84.4596
 44.4256  7177.99  83.5361
 44.4676  7217.46  83.9213
 44.5096  7228.39  84.1263
 44.5516  7252.05  84.2295
 44.5936  7208.01  83.9275
 44.6356  7333.9  84.3983
 44.6776  7369.3  84.9141
 44.7196  7371.11  85.1944
 44.7616  7330.33  86.3009
 44.8036  7205.75  84.0151
 44.8456  7226.61  84.3406
 44.8876  7306.96  84.6678
 44.9296  7256.71  83.8348
 44.9716  7309.71  84.5653
 45.0136  7165.16  83.6593
 45.0556  7288.13  84.349
 45.0976  7206.93  84.0431
 45.1396  7137.48  83.3947
 45.1816  7384.93  84.5979
 45.2236  7309.32  84.2381
 45.2656  7161.99  83.8713
 45.3076  7079.62  83.1807
 45.3496  7063.16  83.3783
 45.3916  7092.07  83.8104
 45.4336  7131.13  83.8848
 45.4756  7193.35  84.1102
 45.5176  7191.25  83.7254
 45.5596  7183.08  83.7897
 45.6016  7130.88  83.9003
 45.6436  7184.21  83.4101
 45.6856  7038.74  83.2017
 45.7276  7123.49  85.502
 45.7696  7179.71  84.9924
 45.8116  7185.15  84.4835
 45.8536  7084.96  83.7872
 45.8956  7193.52  83.7893
 45.9376  7172.24  83.1385
 45.9796  7039.01  83.0418
 46.0216  7106.53  83.7592
 46.0636  7273.02  83.8931
 46.1056  7080.38  82.7602
 46.1476  7041.78  83.1124
 46.1896  7097.72  83.5899
 46.2316  7123.01  83.61
 46.2736  7016.59  83.3399
 46.3156  7065.4  83.2234
 46.3576  7115.09  83.7183
 46.3996  7131.08  83.9594
 46.4416  7122.3  83.5029
 46.4836  7016.39  83.2221
 46.5256  7203.76  84.2683
 46.5676  7016.52  83.2752
 46.6096  7028.16  83.278
 46.6516  7086.22  82.687
 46.6936  7189.18  83.7657
 46.7356  7118.76  83.4609
 46.7776  7024.78  83.7347
 46.8196  7056.6  83.5273
 46.8616  6990.56  83.0797
 46.9036  6940.14  82.4424
 46.9456  6968.16  82.2569
 46.9876  7064.08  82.9098
 47.0296  6980.63  83.0877
 47.0716  6915.49  82.5292
 47.1136  6963.56  82.5058
 47.1556  6992  82.5407
 47.1976  7083.06  83.143
 47.2396  6956.54  82.7899
 47.2816  7050.6  83.058
 47.3236  6996.42  83.1056
 47.3656  6965.36  82.8522
 47.4076  6906.26  82.3024
 47.4496  6889.36  82.3
 47.4916  6843.75  82.2116
 47.5336  6999.98  82.9615
 47.5756  6877.48  82.301
 47.6176  6807.66  81.8229
 47.6596  6939.71  82.3408
 47.7016  7041.46  82.7559
 47.7436  6958.25  82.5932
 47.7856  6988.36  82.7993
 47.8276  6809  81.7882
 47.8696  6828.74  81.9837
 47.9116  6876.17  81.9894
 47.9536  6852.84  81.7918
 47.9956  6879.25  82.641
 48.0376  6772.86  81.7813
 48.0796  6980.82  83.1531
 48.1216  6913.77  82.5758
 48.1636  6968.82  82.4884
 48.2056  6935.71  82.5506
 48.2476  6895.33  82.616
 48.2896  6832.95  82.1489
 48.3316  6913.05  82.5663
 48.3736  6787.97  81.8472
 48.4156  6768.01  81.5815
 48.4576  6746.06  81.7324
 48.4996  6899.44  82.1197
 48.5416  6826.11  82.0009
 48.5836  6814.1  81.6081
 48.6256  6905.93  82.3662
 48.6676  6836.19  82.4556
 48.7096  6819.6  81.6285
 48.7516  6799.55  81.6632
 48.7936  6758.5  81.4739
 48.8356  6739.09  81.4063
 48.8776  6741.18  81.8989
 48.9196  6913.38  82.4008
 48.9616  6701.5  81.4933
 49.0036  6708.72  81.8742
 49.0456  6765.71  82.1942
 49.0876  6757.22  81.7913
 49.1296  6742.02  81.7634
 49.1716  6687.55  81.3055
 49.2136  6809.17  81.9727
 49.2556  6839.56  82.1836
 49.2976  6742.1  81.6624
 49.3396  6688.07  81.3951
 49.3816  6859.54  81.8655
 49.4236  6739.22  81.5527
 49.4656  6686.08  81.2572
 49.5076  6700.33  81.0961
 49.5496  6611.85  80.4995
 49.5916  6631.12  80.6556
 49.6336  6654.63  81.0028
 49.6756  6761.43  81.8822
 49.7176  6644.88  81.1066
 49.7596  6748.11  81.6864
 49.8016  6737.64  81.3743
 49.8436  6624.49  80.9722
 49.8856  6631.3  81.0192
 49.9276  6585.85  80.8369
 49.9696  6619.34  81.0298
 50.0116  6683.07  81.5439
 50.0536  6626.7  81.1481
 50.0956  6508  80.4818
 50.1376  6674.99  81.2111
 50.1796  6488.63  80.3338
 50.2216  6593.32  80.9758
 50.2636  6554.85  80.3679
 50.3056  6492.58  80.1552
 50.3476  6537.11  80.4498
 50.3896  6493.39  80.1472
 50.4316  6556.45  80.3809
 50.4736  6485.79  80.1618
 50.5156  6590.68  80.7921
 50.5576  6661.63  80.9932
 50.5996  6502.3  80.2937
 50.6416  6455.75  79.9334
 50.6836  6555.95  80.6063
 50.7256  6511.61  80.2557
 50.7676  6599.27  81.066
 50.8096  6621.8  80.7993
 50.8516  6518.73  80.572
 50.8936  6495.37  80.2172
 50.9356  6576.2  80.8091
 50.9776  6631.89  81.3058
 51.0196  6378.61  79.8648
 51.0616  6335.46  78.9397
 51.1036  6442.55  79.9509
 51.1456  6552.71  80.5489
 51.1876  6364.14  78.7457
 51.2296  6327.05  79.1263
 51.2716  6436.64  79.516
 51.3136  6352.57  79.4392
 51.3556  6379.44  79.2466
 51.3976  6403.54  79.5452
 51.4396  6326.54  79.3594
 51.4816  6351.75  79.3676
 51.5236  6374.43  79.6018
 51.5656  6330.84  78.9457
 51.6076  6462.22  79.8417
 51.6496  6311.22  79.0831
 51.6916  6356.37  79.7094
 51.7336  6411.16  80.1428
 51.7756  6410.83  79.8488
 51.8176  6448.47  80.1724
 51.8596  6262.6  79.0384
 51.9016  6547.68  80.4311
 51.9436  6264.51  80.0796
 51.9856  6287.45  80.6509
 52.0276  6419.61  80.0334
 52.0696  6466.62  80.3906
 52.1116  6332.98  79.6686
 52.1536  6282.31  79.2399
 52.1956  6437.42  79.6771
 52.2376  6528.4  80.412
 52.2796  6419.62  79.5464
 52.3216  6191.62  78.7989
 52.3636  6244.7  78.7294
 52.4056  6323.33  79.0845
 52.4476  6230.34  78.8563
 52.4896  6259.28  79.0855
 52.5316  6289.9  79.3261
 52.5736  6211.45  78.5638
 52.6156  6189.45  78.7876
 52.6576  6308.13  79.0022
 52.6996  6209.81  79.3196
 52.7416  6330.45  79.9503
 52.7836  6262.53  79.4041
 52.8256  6364.63  79.277
 52.8676  6148.24  78.4801
 52.9096  6370.88  79.9767
 52.9516  6207.98  79.3109
 52.9936  6236.42  79.8761
 53.0356  6184.95  78.575
 53.0776  6021.82  77.8077
 53.1196  6270.35  79.4963
 53.1616  6161.68  78.8506
 53.2036  6061.4  78.1641
 53.2456  6090.32  78.448
 53.2876  6082.31  78.1097
 53.3296  6122.9  78.687
 53.3716  6125.3  78.454
 53.4136  6106.42  78.4736
 53.4556  6105.14  78.5018
 53.4976  6016.28  77.7817
 53.5396  6118.5  78.8208
 53.5816  6048.23  78.0127
 53.6236  6118.96  78.7987
 53.6656  6109.89  78.3807
 53.7076  6134.44  78.5015
 53.7496  6125.91  78.5638
 53.7916  6190.29  79.1003
 53.8336  5974.99  77.614
 53.8756  5929.17  77.8422
 53.9176  6053.98  78.0234
 53.9596  6202.05  79.7236
 54.0016  5972.29  77.5855
 54.0436  6144.38  78.9064
 54.0856  6034.15  77.6428
 54.1276  6127.38  78.4345
 54.1696  6100.72  78.428
 54.2116  6121.01  78.3238
 54.2536  6039.25  77.6202
 54.2956  6183.85  78.5892
 54.3376  6113.6  78.6164
 54.3796  6050.97  78.1124
 54.4216  6257.34  79.4766
 54.4636  6081.86  78.3127
 54.5056  6096.87  78.2326
 54.5476  6061.47  78.3388
 54.5896  6051.24  78.1106
 54.6316  6079.7  78.1511
 54.6736  5932.41  77.226
 54.7156  6081.68  78.2565
 54.7576  6104.76  78.4046
 54.7996  6202.63  79.1607
 54.8416  6061.87  78.3146
 54.8836  6046.67  78.3241
 54.9256  5980.76  77.6526
 54.9676  6027.07  77.8083
 55.0096  6096.65  78.3287
 55.0516  6086.47  78.427
 55.0936  5989.11  77.5035
 55.1356  5945.29  77.2561
 55.1776  6015.59  77.976
 55.2196  6038.03  77.9074
 55.2616  6021.01  78.0078
 55.3036  5945.46  77.6662
 55.3456  5992.57  78.1244
 55.3876  6003.58  77.9432
 55.4296  6043.79  78.1822
 55.4716  5977.3  77.7789
 55.5136  6021.25  77.8288
 55.5556  5976.81  77.6149
 55.5976  5982.7  77.6992
 55.6396  5880.63  76.9925
 55.6816  5996.59  77.6282
 55.7236  5960.4  77.5315
 55.7656  6124.74  78.2547
 55.8076  6114.2  78.1719
 55.8496  6044.05  78.0356
 55.8916  5986.35  77.8266
 55.9336  6017.14  77.8826
 55.9756  6077.04  78.1586
 56.0176  6031.2  78.0113
 56.0596  6077.39  78.2966
 56.1016  6041.6  78.1056
 56.1436  5901.47  77.4205
 56.1856  5994.69  77.777
 56.2276  5923.41  77.37
 56.2696  5977.3  77.6935
 56.3116  5950.18  77.9085
 56.3536  5937.57  77.4912
 56.3956  5918.51  77.3599
 56.4376  6031.26  78.1231
 56.4796  6029.54  77.9171
 56.5216  6012.7  78.1732
 56.5636  6050.88  78.0224
 56.6056  5953.75  77.6191
 56.6476  5953.22  77.2538
 56.6896  5982.53  77.8839
 56.7316  5927.66  77.4367
 56.7736  6036.77  78.1429
 56.8156  6095.56  78.5155
 56.8576  6030.54  78.0352
 56.8996  5889.93  77.0657
 56.9416  5986.05  77.8551
 56.9836  5922.24  77.1022
 57.0256  5931.25  77.4688
 57.0676  5840.66  76.9858
 57.1096  6004.92  77.8601
 57.1516  6013.42  77.939
 57.1936  6011.15  77.7165
 57.2356  5982.6  77.8453
 57.2776  5980.55  77.7878
 57.3196  5957.03  78.0005
 57.3616  5929.43  77.3215
 57.4036  5947.31  77.4988
 57.4456  5918.16  77.2736
 57.4876  5940.92  77.2854
 57.5296  5873  77.0751
 57.5716  5838.99  76.9394
 57.6136  5921.12  77.2962
 57.6556  5921.31  77.4398
 57.6976  5944.55  77.416
 57.7396  5927.79  77.67
 57.7816  5792.09  77.1265
 57.8236  5877.92  77.4943
 57.8656  5956.35  77.6775
 57.9076  5923.33  77.4921
 57.9496  5938.63  77.9338
 57.9916  5945.5  77.4492
 58.0336  6043.26  78.4057
 58.0756  5915.14  77.2054
 58.1176  5965.94  77.5408
 58.1596  5912.54  77.7509
 58.2016  5901.39  76.9293
 58.2436  5953.16  77.6561
 58.2856  5856.86  76.9472
 58.3276  5831.4  77.1452
 58.3696  5948.45  77.6721
 58.4116  5853.13  76.9113
 58.4536  6005.08  77.7876
 58.4956  5882.64  77.1719
 58.5376  5986.92  77.4273
 58.5796  5974.22  77.763
 58.6216  5926.42  77.2652
 58.6636  6015.3  78.0598
 58.7056  5905.27  77.2006
 58.7476  5902.55  77.624
 58.7896  5945.91  77.5564
 58.8316  5925.28  77.4181
 58.8736  5972.42  77.7333
 58.9156  5876.1  77.1474
 58.9576  6036.51  78.3911
 58.9996  6041.6  77.7908
 59.0416  6158.29  78.906
 59.0836  5932.21  77.3692
 59.1256  6040.51  78.4492
 59.1676  5918.81  78.2765
 59.2096  5946.43  77.7738
 59.2516  6173.41  78.8207
 59.2936  5970.09  77.8381
 59.3356  5975.94  77.7545
 59.3776  6109.57  78.789
 59.4196  5873.78  77.1894
 59.4616  5984.27  77.7738
 59.5036  5961.48  77.6605
 59.5456  6018.07  77.7224
 59.5876  6012.43  77.8766
 59.6296  5916.7  77.3227
 59.6716  6145.99  78.8651
 59.7136  5854.37  76.9598
 59.7556  6084.09  78.5921
 59.7976  5907.29  77.1868
 59.8396  5920.34  77.1674
 59.8816  5981.36  78.107
 59.9236  5912.5  77.3033
 59.9656  5937.66  77.7224
 60.0076  6032.66  77.7031
 60.0496  5993.94  77.9553
 60.0916  5983.73  77.3097
 60.1336  5804.06  77.2256
 60.1756  5985.62  79.6031
 60.1996  0.0000000E+00  0.0000000E+00