File: docs/examples/opeando_xrd/IS17_D/Data/IS17_D/17_Da_f00019.xye
# /beamlines/bl04/projects/cycle2025-II/20250340211-lsimonelli/DATA/IS17_D/17_Da_f00019.xye : mythproc.py merge -s 0.006 -l 0.5 -f /beamlines/bl04/inhouse/ff/FlatField/ff_20Nov2024rod8mm60s_17keV.raw -b True -c true -o xye /beamlines/bl04/projects/cycle2025-II/20250340211-lsimonelli/DATA/IS17_D/17_Da_00019.dat
# IsMon = [6754232, 6750130, 6755487]  IsPos = [-1.5000, -2.4885, -3.4988]
# Wave = 0.4962  CalPath /beamlines/bl04/projects/cycle2025-II/20250340211-lsimonelli/DATA/Align/Si_Pos1_25keV_f00001.cal
# Date = 2025-09-23_22:52:00 Dt = 4.8000  Bin = 0.0060  <imon> = 6753283 +/- 2288 (Min/Max) 6750130 / 6755487
# icurr 249.7964  mocoIn 1.7036E-05  mocoOut 0.8001  i15 7.06606e+06  imon 6.75328e+06  i7 6.0000  iEMpd_timer 4.8000  iEMpd_1 3.6113E-08  iEMpd_2 7.7936E-08  iEMpd_3 1.9038E-08  iEMpd_4 4.7944E-08  iEMhp_timer 4.8000  iEMhp_1 4.8814E-06  iEMhp_2 -2.4851E-08  iEMhp_3 -2.3661E-08  iEMhp_4 -2.1321E-08
#      9776
 1.5856  37983.9  200.112
 1.6276  45218.8  214.593
 1.6696  51379.2  227.937
 1.7116  60210.2  247.232
 1.7536  69812.6  265.083
 1.7956  74778.8  275.036
 1.8376  70446.2  267.372
 1.8796  59381.6  243.68
 1.9216  47376.4  218.519
 1.9636  39993.1  200.454
 2.0056  35244  186.974
 2.0476  32701.9  182.079
 2.0896  31619  177.989
 2.1316  30560.2  174.142
 2.1736  28984.2  170.938
 2.2156  29370.4  170.692
 2.2576  28475.1  168.67
 2.2996  27375.8  165.992
 2.3416  27586  165.299
 2.3836  27587.2  165.403
 2.4256  26643.1  163.078
 2.4676  26163.4  161.374
 2.5096  26876  163.611
 2.5516  35505.2  192.388
 2.5936  148180  385.186
 2.6356  30680.4  176.012
 2.6776  25552  159.538
 2.7196  24738.4  157.483
 2.7616  24318.4  155.919
 2.8036  23909  154.773
 2.8456  23826.2  155.097
 2.8876  23568.8  154.113
 2.9296  23037.5  152.511
 2.9716  22920  151.632
 3.0136  22483.9  150.246
 3.0556  22621.1  151.086
 3.0976  22406.4  149.337
 3.1396  22358  149.869
 3.1816  22021.3  148.68
 3.2236  21900.6  148.266
 3.2656  22005.4  147.702
 3.3076  21789.1  148.362
 3.3496  21939.8  148.092
 3.3916  22351.5  149.07
 3.4336  22909.8  151.479
 3.4756  23316.3  152.741
 3.5176  24134.6  155.206
 3.5596  23838.6  157.123
 3.6016  24023.5  154.888
 3.6436  23271  153.517
 3.6856  22951.8  150.804
 3.7276  21999.8  148.7
 3.7696  21863.2  148.212
 3.8116  21437.5  146.857
 3.8536  21568  147.231
 3.8956  21437.2  146.624
 3.9376  22278  149.723
 3.9796  21274  145.834
 4.0216  21380.2  145.275
 4.0636  21409.8  146.8
 4.1056  21536.7  146.89
 4.1476  21553.1  147.237
 4.1896  21974.1  148.538
 4.2316  21908.3  148.139
 4.2736  22425.4  149.675
 4.3156  22693  150.786
 4.3576  23494.1  153.353
 4.3996  23696.5  154.274
 4.4416  24443.7  156.274
 4.4836  25913.5  161.065
 4.5256  25615.8  160.727
 4.5676  24969  158.935
 4.6096  25636  160.085
 4.6516  26426.9  161.892
 4.6936  26410.6  162.63
 4.7356  27294.8  165.171
 4.7776  26480.9  162.526
 4.8196  26027.6  161.753
 4.8616  25653.9  160.218
 4.9036  25428.9  159.133
 4.9456  25618.2  160.369
 4.9876  24960.7  158.196
 5.0296  24955.8  158.001
 5.0716  24975.4  158.691
 5.1136  24981.7  158.56
 5.1556  25541.3  159.806
 5.1976  34518.5  185.76
 5.2396  26102.4  161.246
 5.2816  25736.7  160.559
 5.3236  25829.5  160.563
 5.3656  25313.7  159.844
 5.4076  25013.5  159.044
 5.4496  25192.8  159.114
 5.4916  25285.4  159.167
 5.5336  25215.3  158.958
 5.5756  24834.2  157.77
 5.6176  25230.8  158.482
 5.6596  25364  159.697
 5.7016  25441.4  159.379
 5.7436  25510.5  159.854
 5.7856  25417.3  159.627
 5.8276  25902.9  160.874
 5.8696  25895.8  160.902
 5.9116  25841.2  161.433
 5.9536  26035.6  161.792
 5.9956  26429.3  162.398
 6.0376  26264.5  162.507
 6.0796  26833.4  164.094
 6.1216  26702.6  163.892
 6.1636  26953.3  163.749
 6.2056  26988  164.503
 6.2476  27219  164.898
 6.2896  27515.8  165.664
 6.3316  27259.5  165.052
 6.3736  27549.6  165.833
 6.4156  27322  165.101
 6.4576  27784  166.05
 6.4996  28000.2  167.167
 6.5416  27921.8  167.063
 6.5836  28441.9  168.84
 6.6256  28111.7  167.429
 6.6676  28397.5  167.858
 6.7096  28335  168.497
 6.7516  28791.3  169.516
 6.7936  29811.1  171.914
 6.8356  30642.7  174.386
 6.8776  29923.5  173.123
 6.9196  29181.7  171.348
 6.9616  29794.4  172.567
 7.0036  30023  172.918
 7.0456  30445.2  173.438
 7.0876  30276.1  174.523
 7.1296  30132.5  173.35
 7.1716  30220.3  173.142
 7.2136  29757.6  171.61
 7.2556  30079.5  172.692
 7.2976  30107.4  173.258
 7.3396  29916.4  172.926
 7.3816  29852.9  172.94
 7.4236  30433.3  173.916
 7.4656  30617.8  173.943
 7.5076  30753.6  174.459
 7.5496  30616.1  174.588
 7.5916  30688.1  174.826
 7.6336  31467.1  176.933
 7.6756  31180.1  175.979
 7.7176  31483.2  177.141
 7.7596  31420.5  178.174
 7.8016  37777.3  197.701
 7.8436  32545.9  180.235
 7.8856  32459.6  179.616
 7.9276  33236.9  182.13
 7.9696  33555.5  183.316
 8.0116  34101.5  183.367
 8.0536  34636.3  185.059
 8.0956  37403.1  193.511
 8.1376  35027.4  186.739
 8.1796  35302.7  188.017
 8.2216  36278.3  189.338
 8.2636  37177.1  191.919
 8.3056  36288.7  190.362
 8.3476  38430.4  195.234
 8.3896  37145.4  192.022
 8.4316  36522.6  190.566
 8.4736  36405.8  189.739
 8.5156  36468.6  190.173
 8.5576  35940.9  189.76
 8.5996  35904.1  188.543
 8.6416  35605.9  189.008
 8.6836  35770.4  189.254
 8.7256  36608.3  190.931
 8.7676  38743.1  199.363
 8.8096  38821.5  196.788
 8.8516  36000  189.167
 8.8936  37367.7  192.54
 8.9356  35306.4  187.527
 8.9776  35569.7  188.312
 9.0196  34924.4  186.27
 9.0616  35295.1  186.725
 9.1036  37586.2  193.925
 9.1456  34865.8  186.134
 9.1876  34394.7  184.822
 9.2296  34640.9  184.897
 9.2716  33830.3  182.78
 9.3136  33533.1  181.964
 9.3556  34217.3  183.794
 9.3976  32348.2  179.222
 9.4396  33210.3  181.481
 9.4816  32460.3  179.292
 9.5236  32712.2  179.893
 9.5656  32397.4  179.336
 9.6076  32068.5  178.936
 9.6496  31792.7  178.1
 9.6916  31964.6  178.554
 9.7336  32164.7  178.896
 9.7756  32053.8  179.787
 9.8176  31126.6  176.739
 9.8596  31095  175.146
 9.9016  30804.3  174.318
 9.9436  30904  174.364
 9.9856  31080.4  175.231
 10.0276  29909.9  172.972
 10.0696  30115.9  172.638
 10.1116  30043.3  172.685
 10.1536  29264.4  170.105
 10.1956  28694.3  168.54
 10.2376  28446  167.321
 10.2796  28620.4  167.961
 10.3216  28394.1  167.431
 10.3636  28295.5  167.3
 10.4056  31930  178.14
 10.4476  32562.2  179.492
 10.4896  36409.6  189.195
 10.5316  33173.5  180.973
 10.5736  28507.5  168.513
 10.6156  28065.1  166.96
 10.6576  34242.8  182.871
 10.6996  27992.7  166.001
 10.7416  27053.4  163.426
 10.7836  28491.3  168.406
 10.8256  26294.1  162.189
 10.8676  26536.8  162.489
 10.9096  26266.5  161.682
 10.9516  26022.2  159.891
 10.9936  26909.5  162.779
 11.0356  26443.8  162.007
 11.0776  28218.6  166.653
 11.1196  27507.5  165.296
 11.1616  25943.1  160.231
 11.2036  27092.4  163.582
 11.2456  28458.1  168.401
 11.2876  25216.3  158.238
 11.3296  25565.2  159.238
 11.3716  25859.4  159.874
 11.4136  24969  157.936
 11.4556  25322.5  158.725
 11.4976  26815.6  162.305
 11.5396  27233  163.744
 11.5816  25241.2  158.066
 11.6236  24714.7  156.847
 11.6656  24651.5  155.614
 11.7076  24096  154.666
 11.7496  24338.7  159.287
 11.7916  24800.7  156.182
 11.8336  23774.6  153.811
 11.8756  24173.5  154.606
 11.9176  23795.6  153.06
 11.9596  23404.7  151.974
 12.0016  23143.7  151.898
 12.0436  23460.2  152.369
 12.0856  22797.7  150.711
 12.1276  23151.5  151.793
 12.1696  23221.2  151.18
 12.2116  23772  152.959
 12.2536  25990.3  160.761
 12.2956  23717.5  152.941
 12.3376  23279.5  151.726
 12.3796  23279  152.171
 12.4216  23301.2  151.48
 12.4636  24479.7  156.186
 12.5056  23012.8  150.731
 12.5476  22966.8  150.118
 12.5896  22840.6  150.323
 12.6316  22580.8  149.61
 12.6736  22712.2  150.521
 12.7156  23019.5  151.394
 12.7576  22839.4  151.042
 12.7996  23061.7  150.453
 12.8416  23285.1  152.218
 12.8836  24221.1  155.079
 12.9256  23590.8  152.069
 12.9676  23554.3  152.377
 13.0096  23252.7  152.463
 13.0516  23249.7  151.52
 13.0936  23285.5  151.753
 13.1356  23766.3  152.59
 13.1776  23724.7  153.425
 13.2196  23296.1  151.703
 13.2616  23294.8  152.005
 13.3036  23085.7  151.444
 13.3456  23099.9  151.481
 13.3876  23463.9  152.175
 13.4296  23257.7  151.654
 13.4716  23681.2  152.639
 13.5136  23545.8  152.355
 13.5556  23593.9  153.124
 13.5976  23402.2  152.641
 13.6396  24048  154.101
 13.6816  23129.1  151.484
 13.7236  24199.4  154.696
 13.7656  23702.3  153.65
 13.8076  24703.1  155.644
 13.8496  23631.5  153.005
 13.8916  23298.7  152.726
 13.9336  23136.3  151.439
 13.9756  23032.9  150.463
 14.0176  23037.2  151.152
 14.0596  24283.4  155.141
 14.1016  22774.5  150.631
 14.1436  22367.9  148.436
 14.1856  22440.4  148.963
 14.2276  22354.6  149.155
 14.2696  22600.9  149.819
 14.3116  22075.2  147.974
 14.3536  21538.8  146.337
 14.3956  21476.6  145.869
 14.4376  21845.4  146.891
 14.4796  21543.7  145.857
 14.5216  21365.6  146.032
 14.5636  21773.7  147
 14.6056  21274  144.877
 14.6476  20905.6  142.883
 14.6896  20695.8  142.684
 14.7316  20351.8  142.498
 14.7736  20253.2  141.324
 14.8156  20012.9  140.515
 14.8576  20172.3  140.93
 14.8996  19923.9  141.239
 14.9416  19434.6  139.497
 14.9836  19554.8  139.88
 15.0256  19483.6  138.587
 15.0676  19316.9  138.301
 15.1096  19133.9  137.389
 15.1516  18777  136.649
 15.1936  18856  136.371
 15.2356  18810.4  136.48
 15.2776  18651.2  135.491
 15.3196  18375.7  135.472
 15.3616  18351.1  135.129
 15.4036  18298.9  134.809
 15.4456  18545.6  135.372
 15.4876  18156.7  133.63
 15.5296  18031  133.456
 15.5716  17673.3  131.729
 15.6136  17497.1  131.394
 15.6556  19995.6  139.657
 15.6976  18150.9  133.145
 15.7396  17947.9  132.985
 15.7816  17758.9  131.802
 15.8236  17130.8  130.134
 15.8656  17069.5  129.703
 15.9076  17130  129.765
 15.9496  17630.4  134.422
 15.9916  16741.9  131.421
 16.0336  16454.2  127.252
 16.0756  16672  128.396
 16.1176  16449.7  127.453
 16.1596  16234.5  127.916
 16.2016  16323.9  127.04
 16.2436  16213.3  126.988
 16.2856  16188.3  126.446
 16.3276  15761.3  125.173
 16.3696  15968.8  125.817
 16.4116  15668  125.077
 16.4536  15905.3  125.797
 16.4956  16553.5  128.087
 16.5376  16138.7  126.642
 16.5796  15813.8  124.746
 16.6216  15762.6  124.838
 16.6636  15900.5  125.538
 16.7056  15918  125.473
 16.7476  15531  123.484
 16.7896  15734.1  125.021
 16.8316  15698.8  124.841
 16.8736  16011.3  126.337
 16.9156  15980.4  126.548
 16.9576  15497.7  125.423
 16.9996  15633.4  126.449
 17.0416  15574.3  124.613
 17.0836  15044.5  122.232
 17.1256  15212.9  122.926
 17.1676  15784.9  125.208
 17.2096  15639.8  124.511
 17.2516  15377.7  123.533
 17.2936  14985.1  121.99
 17.3356  14702.4  120.823
 17.3776  14578.3  120.503
 17.4196  15000.3  121.937
 17.4616  14968.1  121.722
 17.5036  15430.4  123.962
 17.5456  14398.1  120.362
 17.5876  14340.7  119.192
 17.6296  14465.4  119.509
 17.6716  14675.6  120.963
 17.7136  15134.8  122.976
 17.7556  14402.5  120.252
 17.7976  14661.9  120.954
 17.8396  14693.5  120.714
 17.8816  14190.7  119.169
 17.9236  13896.4  117.737
 17.9656  14401  120.537
 18.0076  14986.3  122.369
 18.0496  15465.5  123.43
 18.0916  20356.4  142.226
 18.1336  18139.5  134.384
 18.1756  15602.9  124.142
 18.2176  16415  127.566
 18.2596  14377.5  119.146
 18.3016  15166.7  122.621
 18.3436  15526.7  124.32
 18.3856  14503.5  120.044
 18.4276  14243.2  118.647
 18.4696  14362.6  119.234
 18.5116  14498.1  120.079
 18.5536  14142.3  118.957
 18.5956  14210  118.798
 18.6376  14265.7  119.437
 18.6796  13876.3  117.126
 18.7216  14339.4  119.627
 18.7636  13842.2  117.45
 18.8056  13561.4  116.197
 18.8476  13503.3  116.551
 18.8896  13514.1  115.955
 18.9316  13801.3  117.005
 18.9736  13562.8  115.852
 19.0156  14008.8  118.151
 19.0576  13833.7  116.281
 19.0996  13679.9  116.332
 19.1416  13521.1  116.036
 19.1836  13518.5  115.637
 19.2256  13092  114.005
 19.2676  13388.5  115.383
 19.3096  13335.1  115.39
 19.3516  13219.3  114.668
 19.3936  13537.3  116.129
 19.4356  13342.6  115.145
 19.4776  13563.9  116.206
 19.5196  13404.2  115.373
 19.5616  13421  115.697
 19.6036  13427.6  115.224
 19.6456  13545.3  115.849
 19.6876  13965.1  117.285
 19.7296  13361  115.156
 19.7716  13275.4  114.804
 19.8136  13503.3  116.136
 19.8556  13896.3  117.297
 19.8976  13937.8  117.54
 19.9396  13804.2  116.553
 19.9816  14057.9  117.864
 20.0236  14586.4  120.277
 20.0656  13888.3  117.364
 20.1076  13332.9  115.434
 20.1496  13241.8  115.051
 20.1916  13361.8  115.055
 20.2336  13377.6  115.101
 20.2756  12968.6  113.742
 20.3176  12957.5  113.447
 20.3596  12963.9  113.455
 20.4016  13032.4  113.56
 20.4436  13070.1  114.278
 20.4856  12697  112.419
 20.5276  12932.5  113.909
 20.5696  12762.1  112.738
 20.6116  12896  113.496
 20.6536  12612.4  111.82
 20.6956  12692.2  112.237
 20.7376  12801.7  112.949
 20.7796  12609.8  111.79
 20.8216  12900.7  112.786
 20.8636  13091.3  113.971
 20.9056  14240.4  118.828
 20.9476  12916.6  113.007
 20.9896  13785.3  116.615
 21.0316  12935.4  112.862
 21.0736  13066.3  113.936
 21.1156  13337.4  115.287
 21.1576  12922.9  113.523
 21.1996  12561.3  111.903
 21.2416  12546.4  111.674
 21.2836  12930.1  113.334
 21.3256  12479.1  111.418
 21.3676  12656.1  111.765
 21.4096  12924.3  113.311
 21.4516  12621.4  111.797
 21.4936  12281.5  110.534
 21.5356  12500.2  111.452
 21.5776  12740.7  112.354
 21.6196  12662.8  112.048
 21.6616  12661.6  112.126
 21.7036  12501.1  111.193
 21.7456  12203.7  109.934
 21.7876  12197.9  109.667
 21.8296  12212.8  109.593
 21.8716  12180.3  109.682
 21.9136  12389.6  110.813
 21.9556  12666.2  111.718
 21.9976  12329.1  110.235
 22.0396  12341.9  110.537
 22.0816  12278.9  110.792
 22.1236  12670.9  112.006
 22.1656  12361.6  110.804
 22.2076  12478.9  110.758
 22.2496  12194.5  109.524
 22.2916  12362  110.143
 22.3336  12484.6  111.397
 22.3756  12292.1  110.278
 22.4176  12285.5  110.107
 22.4596  11986  109.324
 22.5016  12475.9  111.032
 22.5436  12443.6  110.77
 22.5856  12410.6  110.875
 22.6276  12021.1  109.261
 22.6696  11861.6  108.862
 22.7116  12029.9  109.167
 22.7536  12141.1  109.642
 22.7956  12327.8  109.827
 22.8376  12036  109.017
 22.8796  12065.7  108.962
 22.9216  12133.3  109.798
 22.9636  12044.7  108.573
 23.0056  12241.9  109.591
 23.0476  12469.6  111.169
 23.0896  12622.3  111.231
 23.1316  12411.7  110.728
 23.1736  12169.4  112.545
 23.2156  12271.8  110.406
 23.2576  12133  109.905
 23.2996  12245.4  110.207
 23.3416  12027.3  109.72
 23.3836  12144.8  109.507
 23.4256  12015.1  109.031
 23.4676  12198.7  109.571
 23.5096  12151.7  110.021
 23.5516  12066.5  108.932
 23.5936  12243.3  110.621
 23.6356  12364.1  110.83
 23.6776  12044  109.582
 23.7196  11970.9  109.061
 23.7616  12207.3  109.84
 23.8036  12004.3  108.952
 23.8456  12033.4  108.671
 23.8876  11818.3  108.043
 23.9296  11917.9  108.976
 23.9716  11911.7  108.157
 24.0136  11987.4  109.378
 24.0556  11863.3  108.556
 24.0976  11778.8  107.974
 24.1396  11537.4  109.459
 24.1816  11761.1  109.288
 24.2236  11755.5  108.557
 24.2656  11747.3  108.001
 24.3076  11596.1  107.554
 24.3496  11979.7  109.214
 24.3916  11764  108.267
 24.4336  11618.3  107.802
 24.4756  11610  107.637
 24.5176  11200.7  105.379
 24.5596  11263  105.977
 24.6016  11322.5  106.353
 24.6436  11392.5  106.178
 24.6856  11305.3  105.542
 24.7276  11477.4  106.66
 24.7696  11265.3  105.776
 24.8116  11305.2  106.151
 24.8536  11271.3  105.974
 24.8956  11117.3  104.994
 24.9376  11121.1  105.184
 24.9796  11155.7  105.466
 25.0216  11028.3  104.966
 25.0636  11331.5  106.057
 25.1056  10994.7  104.895
 25.1476  10893.5  106.294
 25.1896  11061.5  105.62
 25.2316  11128.8  105.206
 25.2736  11074.3  104.615
 25.3156  10853.7  103.632
 25.3576  10819  103.882
 25.3996  10841.9  103.977
 25.4416  10935.8  104.413
 25.4836  10748  104.031
 25.5256  10766.7  103.491
 25.5676  10949.1  104.103
 25.6096  10685.1  103.394
 25.6516  10870  103.796
 25.6936  10725.2  103.402
 25.7356  10627.1  103.065
 25.7776  10852.1  103.834
 25.8196  10531.7  102.451
 25.8616  10665.5  103.011
 25.9036  10959.1  103.9
 25.9456  10644.7  102.992
 25.9876  10510.5  102.259
 26.0296  10732.1  103.075
 26.0716  10623.2  102.878
 26.1136  10895.5  104.135
 26.1556  10999.8  104.007
 26.1976  10585.8  102.946
 26.2396  10609.3  102.475
 26.2816  10606.5  102.814
 26.3236  10766.2  103.753
 26.3656  10584.6  102.592
 26.4076  10775.5  103.713
 26.4496  11052.4  104.537
 26.4916  10656.2  102.645
 26.5336  10710.6  103.234
 26.5756  10877.9  103.898
 26.6176  10751.8  103.347
 26.6596  10436.5  102.115
 26.7016  10429.9  101.85
 26.7436  10209.9  100.895
 26.7856  10186  100.761
 26.8276  10261.8  101.095
 26.8696  10227.4  100.8
 26.9116  10321.3  101.202
 26.9536  10313.9  101.217
 26.9956  10247.1  100.922
 27.0376  10003.4  99.9134
 27.0796  10212.5  100.772
 27.1216  10294.2  101.17
 27.1636  9876.95  99.2642
 27.2056  10236.6  100.937
 27.2476  10092.4  100.225
 27.2896  10009.3  99.9218
 27.3316  10018.6  99.6863
 27.3736  10020.2  99.9553
 27.4156  9946.33  99.4262
 27.4576  10178.1  100.811
 27.4996  10125.8  100.145
 27.5416  10053.1  100.104
 27.5836  10047.8  99.8974
 27.6256  10231.8  100.957
 27.6676  10196.2  100.818
 27.7096  9972.38  99.5719
 27.7516  10665.1  103.129
 27.7936  10525.5  102.617
 27.8356  10391.4  101.578
 27.8776  10146.7  100.421
 27.9196  9949.3  99.2972
 27.9616  10328.7  101.357
 28.0036  10127.1  100.338
 28.0456  9864.97  99.1657
 28.0876  9889.8  99.3775
 28.1296  9888.26  99.2137
 28.1716  9851.05  99.0311
 28.2136  9873.44  99.1102
 28.2556  9711.61  98.4067
 28.2976  9784.18  98.7696
 28.3396  9930.92  99.3054
 28.3816  9804.39  98.6544
 28.4236  10069.9  100.137
 28.4656  9630.07  97.9579
 28.5076  9624.35  97.5669
 28.5496  9549.95  97.4503
 28.5916  9675.19  97.8983
 28.6336  9569.11  97.6917
 28.6756  9773.73  97.9438
 28.7176  9637.19  97.796
 28.7596  9422.4  96.6021
 28.8016  9545.97  97.2694
 28.8436  9446.31  96.9961
 28.8856  9560.23  97.4307
 28.9276  9629.01  98.0218
 28.9696  9399.8  96.5149
 29.0116  9430.88  96.85
 29.0536  9323.93  96.4999
 29.0956  9482.56  97.0433
 29.1376  9573.06  97.4667
 29.1796  9287.97  96.0464
 29.2216  9296.89  95.9397
 29.2636  9439.44  96.6619
 29.3056  9351.65  96.0911
 29.3476  9390.77  96.8063
 29.3896  9670.24  98.325
 29.4316  9469.63  96.6605
 29.4736  9425.42  96.4905
 29.5156  9243.08  95.4812
 29.5576  9360.84  96.8209
 29.5996  9320.83  95.8801
 29.6416  9352.32  96.1605
 29.6836  9406.68  96.368
 29.7256  9332.83  96.5407
 29.7676  9415.38  96.6251
 29.8096  9264.03  95.7981
 29.8516  9161.81  95.5857
 29.8936  9429.49  97.0737
 29.9356  9337.38  96.3573
 29.9776  9436.4  97.0182
 30.0196  9456.68  96.5175
 30.0616  9389.78  96.5441
 30.1036  9197.78  95.3856
 30.1456  9196.05  95.5951
 30.1876  9195.61  95.5825
 30.2296  9233.43  95.7099
 30.2716  9203.63  95.2087
 30.3136  9287.48  96.4909
 30.3556  9200.7  96.0449
 30.3976  9167.24  97.356
 30.4396  9360.72  95.7401
 30.4816  9321.79  95.1414
 30.5236  9264.09  94.8635
 30.5656  9042.77  94.3598
 30.6076  9272.23  95.332
 30.6496  9229.02  95.1455
 30.6916  9052.98  94.3239
 30.7336  9197.04  95.2195
 30.7756  9222.53  95.4463
 30.8176  9212.44  95.3093
 30.8596  8995.9  93.9504
 30.9016  8991.51  93.8108
 30.9436  9070.91  94.4418
 30.9856  9100.29  94.6962
 31.0276  9208.87  94.876
 31.0696  9008.64  94.4039
 31.1116  8851.39  93.5535
 31.1536  9237.57  95.4577
 31.1956  9177.38  95.2304
 31.2376  8855.55  93.5536
 31.2796  8966.31  93.6816
 31.3216  9016.08  93.8925
 31.3636  8999.41  94.4948
 31.4056  9004.98  95.8243
 31.4476  8928.85  93.3461
 31.4896  8869.23  93.5299
 31.5316  9164.88  94.5248
 31.5736  9812.94  97.5813
 31.6156  9617.23  96.6183
 31.6576  9161.37  94.4002
 31.6996  9246.7  94.5156
 31.7416  9036.6  94.3402
 31.7836  8975.38  93.1903
 31.8256  8938.71  93.3423
 31.8676  9202.31  94.6239
 31.9096  8859.97  93.0689
 31.9516  8747.19  92.7636
 31.9936  8795.25  92.8462
 32.0356  8952.75  93.7392
 32.0776  8941.67  93.5665
 32.1196  8775.67  92.6913
 32.1616  8856.57  92.6785
 32.2036  8683  92.2559
 32.2456  8717.6  92.8179
 32.2876  8776.78  92.48
 32.3296  8728.64  92.3509
 32.3716  8775.79  92.7054
 32.4136  8883.53  93.4713
 32.4556  8983.22  93.4398
 32.4976  8816.33  92.4516
 32.5396  8676.55  91.7536
 32.5816  8655.43  91.7518
 32.6236  8790.62  92.5456
 32.6656  8883.46  93.5631
 32.7076  8624.16  91.8476
 32.7496  8593.45  91.3685
 32.7916  8753.28  92.1726
 32.8336  8705.77  92.0184
 32.8756  8725.27  91.8324
 32.9176  8744.62  92.4166
 32.9596  8708.85  92.3021
 33.0016  8797.93  92.5719
 33.0436  8814.62  92.8296
 33.0856  8612.33  91.8268
 33.1276  8613.44  91.5808
 33.1696  8556.55  91.1157
 33.2116  8600.06  91.5751
 33.2536  8636.74  91.7619
 33.2956  8602.87  91.6643
 33.3376  8487.82  90.872
 33.3796  8670.53  91.9721
 33.4216  8623.66  91.3295
 33.4636  8674.47  91.7397
 33.5056  8464.18  90.8603
 33.5476  8459.67  90.8229
 33.5896  8497.62  90.7711
 33.6316  8426.53  90.7363
 33.6736  8476.14  91.2458
 33.7156  8507.98  91.452
 33.7576  8514.47  91.1169
 33.7996  8588.27  91.2861
 33.8416  8367.72  90.2797
 33.8836  8578.84  91.1968
 33.9256  8432.5  90.4756
 33.9676  8613.62  91.3349
 34.0096  8304.69  89.9952
 34.0516  8381.25  90.0602
 34.0936  8336.3  90.0722
 34.1356  8450.59  90.434
 34.1776  8350.61  89.9122
 34.2196  8281.78  89.7145
 34.2616  8272.66  89.8017
 34.3036  8241.09  89.8665
 34.3456  8384.85  90.4063
 34.3876  8351.95  90.2784
 34.4296  8295.12  89.5701
 34.4716  8494.75  90.8058
 34.5136  8358.01  90.2633
 34.5556  8319.71  90.3101
 34.5976  8470.39  90.9611
 34.6396  8431.42  90.4369
 34.6816  8327.42  89.9882
 34.7236  8326.89  89.7724
 34.7656  8458.75  90.6769
 34.8076  8312.1  90.2089
 34.8496  8245.78  89.7055
 34.8916  8292.65  89.8331
 34.9336  8371.71  90.2256
 34.9756  8587.78  91.2928
 35.0176  8304.04  90.2984
 35.0596  8181.14  89.4585
 35.1016  8312.29  89.9446
 35.1436  8338.36  89.7718
 35.1856  8205.76  89.1868
 35.2276  8196.47  89.3095
 35.2696  8285.02  89.9734
 35.3116  8300.44  90.1523
 35.3536  8183.42  89.2594
 35.3956  8244.71  89.2774
 35.4376  8205.43  89.6091
 35.4796  8288.93  90.1253
 35.5216  8164.15  89.3944
 35.5636  8131.25  89.9542
 35.6056  8206.19  89.4029
 35.6476  8247.59  89.5193
 35.6896  8270.26  89.8067
 35.7316  8165.95  89.1367
 35.7736  8201.12  89.5265
 35.8156  8037.89  88.6276
 35.8576  8092.5  89.1705
 35.8996  8288.19  90.2034
 35.9416  8251.24  89.5171
 35.9836  8090.52  89.0902
 36.0256  8198.05  89.5963
 36.0676  8120.19  88.7168
 36.1096  7975.32  88.2703
 36.1516  8252.77  89.6832
 36.1936  8113.76  88.7725
 36.2356  8041.67  89.0062
 36.2776  8116.45  88.8949
 36.3196  8093.14  88.4579
 36.3616  8062.78  88.4148
 36.4036  8040.14  88.3508
 36.4456  8055.04  88.6392
 36.4876  7960.01  88.0565
 36.5296  8042.19  88.5458
 36.5716  8109  89.6877
 36.6136  8326.16  89.6591
 36.6556  8282.92  89.6232
 36.6976  8147.13  89.384
 36.7396  8039.84  88.5349
 36.7816  8014.95  88.76
 36.8236  7995.03  88.5803
 36.8656  8037.28  88.8818
 36.9076  8007.76  88.7209
 36.9496  8060.74  88.8655
 36.9916  7909.71  87.6744
 37.0336  8189.17  89.5207
 37.0756  8057.31  88.5951
 37.1176  7956.32  88.3037
 37.1596  8008.66  88.5969
 37.2016  7916.01  88.2648
 37.2436  8049.18  88.3728
 37.2856  7940.15  88.0266
 37.3276  8100.21  88.2548
 37.3696  7888.72  87.9734
 37.4116  8042.58  88.7187
 37.4536  7897.29  87.7945
 37.4956  7911.35  87.9093
 37.5376  7869.97  89.1974
 37.5796  7929.34  89.5036
 37.6216  7797.49  87.0444
 37.6636  7747.59  86.6641
 37.7056  7874.46  87.5611
 37.7476  7838.11  86.9033
 37.7896  7841.55  87.4091
 37.8316  7670.96  86.6221
 37.8736  7965.31  87.8014
 37.9156  7784.78  86.8034
 37.9576  7866.64  87.1498
 37.9996  7668.04  85.7588
 38.0416  7792.4  87.2487
 38.0836  7882.58  87.663
 38.1256  7782.91  87.044
 38.1676  7656.38  86.4935
 38.2096  7916.09  87.5739
 38.2516  7958.52  88.0055
 38.2936  7813.84  87.0012
 38.3356  7895.62  87.3823
 38.3776  7890.41  87.6249
 38.4196  7815.96  87.0664
 38.4616  7839.56  87.4345
 38.5036  7923.38  87.7432
 38.5456  7865.66  88.2611
 38.5876  7775.7  87.7955
 38.6296  7677.49  86.2289
 38.6716  7736.58  86.3577
 38.7136  7697.5  86.0829
 38.7556  7583.52  85.9376
 38.7976  7743.04  86.7752
 38.8396  7548.91  86.1215
 38.8816  7612.14  86.2543
 38.9236  7582.45  85.9119
 38.9656  7658.53  86.2577
 39.0076  7725.93  86.0515
 39.0496  7701.45  86.4394
 39.0916  7716.67  86.1766
 39.1336  7560.83  85.7133
 39.1756  7696.07  86.5443
 39.2176  7629.1  86.6928
 39.2596  7504.64  85.9005
 39.3016  7691.54  86.5443
 39.3436  7552.17  86.1706
 39.3856  7670.64  86.3014
 39.4276  7703.93  86.9633
 39.4696  7717.75  86.6841
 39.5116  7602.66  86.528
 39.5536  7703.61  87.5289
 39.5956  7748.43  86.8963
 39.6376  7663.46  86.4153
 39.6796  7677.25  86.2428
 39.7216  7728.74  86.6182
 39.7636  7773.37  87.4412
 39.8056  7744  87.0474
 39.8476  7606.2  86.529
 39.8896  7607.62  86.1657
 39.9316  7660.9  86.7221
 39.9736  7708.18  86.5708
 40.0156  7696.03  86.3262
 40.0576  7682.18  86.6066
 40.0996  7829.63  86.6072
 40.1416  7746.19  86.9317
 40.1836  7730.15  86.7334
 40.2256  7799.1  87.1734
 40.2676  7680.98  86.6727
 40.3096  7750.94  86.9284
 40.3516  7782.28  87.222
 40.3936  7779.92  86.7667
 40.4356  7620.57  86.0692
 40.4776  7766.11  87.1235
 40.5196  7777.36  87.4768
 40.5616  7784.22  87.1607
 40.6036  7713.01  87.0142
 40.6456  7724.62  86.6881
 40.6876  7815.62  87.1907
 40.7296  7808.41  87.2893
 40.7716  7713.61  86.8847
 40.8136  7671.3  86.5924
 40.8556  7734.06  87.0663
 40.8976  7714.73  86.8844
 40.9396  7671.94  86.9837
 40.9816  7808.47  87.0492
 41.0236  7721.22  86.3427
 41.0656  7768.94  87.1385
 41.1076  7850.72  87.3763
 41.1496  7763.3  86.7947
 41.1916  7770.55  87.1564
 41.2336  7627.67  86.3389
 41.2756  7717.74  86.4607
 41.3176  7617.86  86.4986
 41.3596  7773.41  87.1163
 41.4016  7688.71  86.893
 41.4436  7708.81  86.7955
 41.4856  7794.07  87.4406
 41.5276  7741.61  87.1608
 41.5696  7697.53  86.5313
 41.6116  7732.34  87.1307
 41.6536  7619.18  86.3565
 41.6956  7823.44  87.4871
 41.7376  7768.58  87.2792
 41.7796  7675.2  86.6882
 41.8216  7650.69  86.7321
 41.8636  7733.19  87.1394
 41.9056  7689.18  86.6813
 41.9476  7682.81  86.8737
 41.9896  7716.63  86.7342
 42.0316  7648.93  86.4366
 42.0736  7793.53  87.3912
 42.1156  7510.05  85.5986
 42.1576  7579.08  86.089
 42.1996  7691.36  86.861
 42.2416  7678.8  86.3822
 42.2836  7572  85.8817
 42.3256  7553.07  85.8951
 42.3676  7696.54  86.5066
 42.4096  7632.84  86.1042
 42.4516  7689.72  86.5217
 42.4936  7546.1  85.7809
 42.5356  7744.55  87.0379
 42.5776  7716.22  86.813
 42.6196  7664.76  86.5843
 42.6616  7470.49  85.6341
 42.7036  7680.18  86.2255
 42.7456  7565.28  85.922
 42.7876  7539.83  85.8869
 42.8296  7626  86.2006
 42.8716  7512.07  85.7125
 42.9136  7549.69  85.6817
 42.9556  7628.06  86.2993
 42.9976  7544.16  85.7921
 43.0396  7479.48  85.1501
 43.0816  7435.08  85.2611
 43.1236  7500.89  85.7048
 43.1656  7504.5  85.5561
 43.2076  7502.07  85.6405
 43.2496  7423.35  85.0118
 43.2916  7483.84  85.7197
 43.3336  7511.44  85.7179
 43.3756  7509.9  85.4676
 43.4176  7341.28  84.5829
 43.4596  7429.57  84.9454
 43.5016  7566.53  86.1295
 43.5436  7445.59  85.3401
 43.5856  7391.93  85.056
 43.6276  7353.28  84.7325
 43.6696  7472.59  85.5578
 43.7116  7529.81  85.4977
 43.7536  7523.11  85.9458
 43.7956  7361.7  86.1774
 43.8376  7465.65  85.3619
 43.8796  7416.94  85.1595
 43.9216  7506.64  85.5941
 43.9636  7502.11  85.6675
 44.0056  7342.44  84.9805
 44.0476  7328.01  84.5293
 44.0896  7291.68  84.6627
 44.1316  7363.69  84.7598
 44.1736  7465.7  85.3224
 44.2156  7411.33  84.8641
 44.2576  7333.09  84.7344
 44.2996  7389.22  85.0328
 44.3416  7427.82  85.0067
 44.3836  7310.8  84.6612
 44.4256  7258.68  84.0091
 44.4676  7212.73  83.901
 44.5096  7249.32  84.2551
 44.5516  7304.82  84.5361
 44.5936  7275.78  84.3263
 44.6356  7282.7  84.1092
 44.6776  7253.38  84.2566
 44.7196  7210.4  84.2938
 44.7616  7265.64  85.9215
 44.8036  7130.55  83.7743
 44.8456  7307.2  84.7968
 44.8876  7236.38  84.2481
 44.9296  7320.06  84.1915
 44.9716  7144.51  83.6008
 45.0136  7228.8  84.0262
 45.0556  7184.23  83.8478
 45.0976  7162.57  83.7726
 45.1396  7111.96  83.2413
 45.1816  7032.23  82.7059
 45.2236  7163.29  83.3802
 45.2656  7175.14  83.9405
 45.3076  7067.76  83.1021
 45.3496  7139.18  83.8149
 45.3916  7066.11  83.6483
 45.4336  7105.38  83.7269
 45.4756  7165.28  83.9318
 45.5176  7122.32  83.3127
 45.5596  7159.88  83.6497
 45.6016  7078.24  83.5814
 45.6436  7108.75  82.9614
 45.6856  7129.98  83.7203
 45.7276  7055.23  84.5819
 45.7696  7130.46  84.7059
 45.8116  7197.18  84.5588
 45.8536  7006.78  83.3286
 45.8956  7148.38  83.5277
 45.9376  7090.79  82.6677
 45.9796  7137.46  83.6166
 46.0216  7156.27  84.0612
 46.0636  7136.96  83.0985
 46.1056  7154.64  83.1957
 46.1476  7042.86  83.1218
 46.1896  7116.5  83.7034
 46.2316  7067.33  83.287
 46.2736  6984.22  82.993
 46.3156  7080.93  83.3202
 46.3576  6988.15  82.9693
 46.3996  7011.08  83.2582
 46.4416  7056.6  83.0984
 46.4836  6977.06  82.9955
 46.5256  7095.99  83.639
 46.5676  7082.01  83.6676
 46.6096  7084.72  83.6279
 46.6516  7073.75  82.617
 46.6936  7153.07  83.5628
 46.7356  7133.54  83.5428
 46.7776  6956.44  83.3253
 46.8196  7016.49  83.4336
 46.8616  6815.28  82.0298
 46.9036  6917.44  82.321
 46.9456  6909.67  81.9113
 46.9876  7019.9  82.6484
 47.0296  6923.65  82.7512
 47.0716  6861.5  82.2063
 47.1136  6850.69  81.8233
 47.1556  6994.45  82.5543
 47.1976  6942.42  82.3977
 47.2396  6907.12  82.4975
 47.2816  6946.89  82.4494
 47.3236  6811.96  81.9929
 47.3656  6994.3  83.0274
 47.4076  6969.19  82.6053
 47.4496  6783.57  81.6589
 47.4916  6791.18  81.8957
 47.5336  6899.83  82.3555
 47.5756  6897.71  82.4634
 47.6176  6820.05  81.903
 47.6596  6828.61  81.6808
 47.7016  6991.25  82.4613
 47.7436  6863.04  82.0407
 47.7856  6860.29  82.0406
 47.8276  6848.83  82.0225
 47.8696  6821.77  81.9245
 47.9116  6900.71  82.1334
 47.9536  6771.92  81.3039
 47.9956  6747.28  81.8472
 48.0376  6733.76  81.5502
 48.0796  6853.76  82.3897
 48.1216  6909.57  82.5588
 48.1636  6955.25  82.4026
 48.2056  6798.08  81.7262
 48.2476  6895.69  82.6145
 48.2896  6818.96  82.0653
 48.3316  6812.54  81.9678
 48.3736  6794.23  81.8825
 48.4156  6720.96  81.2955
 48.4576  6765.52  81.8464
 48.4996  6899.02  82.1256
 48.5416  6907.76  82.489
 48.5836  6735.87  81.1428
 48.6256  6795.84  81.7144
 48.6676  6826.13  82.3879
 48.7096  6791.61  81.4678
 48.7516  6807.07  81.7045
 48.7936  6642.74  80.7755
 48.8356  6705.99  81.2075
 48.8776  6789.04  82.1867
 48.9196  6754.82  81.444
 48.9616  6715.43  81.5768
 49.0036  6793.3  82.3904
 49.0456  6604.82  81.217
 49.0876  6733.61  81.6561
 49.1296  6691.37  81.4552
 49.1716  6573.48  80.6183
 49.2136  6823.53  82.0741
 49.2556  6727.99  81.509
 49.2976  6708.29  81.4623
 49.3396  6665.35  81.2538
 49.3816  6827.13  81.6752
 49.4236  6685.64  81.2319
 49.4656  6581.15  80.6212
 49.5076  6723.14  81.2365
 49.5496  6613.84  80.6429
 49.5916  6637.69  80.7069
 49.6336  6612.63  80.7457
 49.6756  6676.31  81.3534
 49.7176  6721.93  81.5744
 49.7596  6637.51  80.8385
 49.8016  6666.3  80.9311
 49.8436  6638.32  81.0574
 49.8856  6608.28  80.8792
 49.9276  6622.13  81.0641
 49.9696  6527.98  80.4573
 50.0116  6634.79  81.2567
 50.0536  6572.36  80.8181
 50.0956  6579.11  80.9213
 50.1376  6562.68  80.5222
 50.1796  6436.24  80.013
 50.2216  6506.33  80.4401
 50.2636  6505.04  80.0648
 50.3056  6452.77  79.9138
 50.3476  6548.92  80.5246
 50.3896  6485.65  80.1068
 50.4316  6624.79  80.8
 50.4736  6503.29  80.2698
 50.5156  6565.07  80.6367
 50.5576  6590.2  80.5499
 50.5996  6523.74  80.4238
 50.6416  6480.84  80.0894
 50.6836  6517.22  80.3761
 50.7256  6524.61  80.3442
 50.7676  6511.95  80.5296
 50.8096  6522.39  80.188
 50.8516  6463.98  80.2347
 50.8936  6416.96  79.73
 50.9356  6516.6  80.4492
 50.9776  6420  79.9976
 51.0196  6324.94  79.5352
 51.0616  6422.59  79.4954
 51.1036  6438.51  79.931
 51.1456  6418.01  79.7261
 51.1876  6445.8  79.2548
 51.2296  6455.75  79.9362
 51.2716  6334.34  78.8875
 51.3136  6344.85  79.4004
 51.3556  6385.77  79.2884
 51.3976  6297.63  78.8858
 51.4396  6303.25  79.2248
 51.4816  6223.84  78.5768
 51.5236  6353.82  79.4805
 51.5656  6370.41  79.1981
 51.6076  6365.69  79.2522
 51.6496  6333.44  79.2245
 51.6916  6252.32  79.0697
 51.7336  6355.36  79.7964
 51.7756  6299.66  79.1633
 51.8176  6295.34  79.2392
 51.8596  6280.87  79.162
 51.9016  6423.68  79.6714
 51.9436  6301  80.3047
 51.9856  6276.02  80.579
 52.0276  6407.64  79.9501
 52.0696  6353.02  79.6656
 52.1116  6299.89  79.4486
 52.1536  6242.01  78.9298
 52.1956  6308.5  78.875
 52.2376  6388.14  79.5357
 52.2796  6429.23  79.6109
 52.3216  6173.59  78.6771
 52.3636  6280.26  78.9432
 52.4056  6331.07  79.1145
 52.4476  6133.1  78.2299
 52.4896  6126.29  78.233
 52.5316  6290.64  79.3191
 52.5736  6331.48  79.3132
 52.6156  6169.17  78.6469
 52.6576  6372.02  79.391
 52.6996  6165.75  79.038
 52.7416  6329.95  79.9351
 52.7836  6274.6  79.4595
 52.8256  6342.03  79.126
 52.8676  6191.67  78.7495
 52.9096  6267.15  79.3102
 52.9516  6187.94  79.1853
 52.9936  6207.29  79.6875
 53.0356  6163.93  78.4436
 53.0776  6121.64  78.4404
 53.1196  6089.4  78.3426
 53.1616  6100  78.4566
 53.2036  6047.41  78.0768
 53.2456  6066  78.2834
 53.2876  6021.5  77.7218
 53.3296  6137.69  78.7851
 53.3716  6077.02  78.1448
 53.4136  6091.99  78.3859
 53.4556  6085.28  78.3766
 53.4976  6099.36  78.3159
 53.5396  6021.55  78.2029
 53.5816  6143.26  78.6281
 53.6236  5975.56  77.872
 53.6656  6063.21  78.0864
 53.7076  6078.78  78.1473
 53.7496  6101.41  78.4029
 53.7916  5982.16  77.7632
 53.8336  5981.83  77.6504
 53.8756  6045.97  78.6088
 53.9176  6109.91  78.3912
 53.9596  6132.85  79.2746
 54.0016  6093.49  78.3758
 54.0436  6009.57  78.0345
 54.0856  6077.83  77.9205
 54.1276  6123.37  78.4041
 54.1696  6050.53  78.106
 54.2116  6062.09  77.9426
 54.2536  6110.76  78.0776
 54.2956  6001.77  77.427
 54.3376  6128.54  78.7111
 54.3796  6058.57  78.1642
 54.4216  6101.55  78.4834
 54.4636  6077.45  78.2909
 54.5056  6077.27  78.1104
 54.5476  6064.9  78.3586
 54.5896  6093.22  78.3727
 54.6316  6101.42  78.2932
 54.6736  6026.16  77.8377
 54.7156  6065.02  78.1499
 54.7576  5936.98  77.3257
 54.7996  6009  77.9303
 54.8416  6094.56  78.5241
 54.8836  5943.33  77.6485
 54.9256  5949.01  77.4465
 54.9676  6114.62  78.3692
 55.0096  6035.29  77.9236
 55.0516  6046.1  78.1669
 55.0936  5975.5  77.411
 55.1356  5932.89  77.185
 55.1776  5945.22  77.5153
 55.2196  6014.46  77.7555
 55.2616  5976.77  77.7121
 55.3036  6009.74  78.0857
 55.3456  6002.11  78.1794
 55.3876  5931.42  77.477
 55.4296  6067.2  78.3336
 55.4716  5988.69  77.8588
 55.5136  6033.54  77.9145
 55.5556  5997.73  77.7462
 55.5976  5929.67  77.3568
 55.6396  6040.9  77.9569
 55.6816  5937.9  77.2464
 55.7236  5964.82  77.4617
 55.7656  5963.75  77.2165
 55.8076  6063.43  77.8497
 55.8496  5902.75  77.2221
 55.8916  5996.62  77.8958
 55.9336  5963.88  77.5316
 55.9756  6002.88  77.6818
 56.0176  5996.08  77.7878
 56.0596  5941.54  77.4185
 56.1016  6018.75  77.9522
 56.1436  5859.49  77.1467
 56.1856  5993.94  77.772
 56.2276  5933.68  77.4323
 56.2696  5973.93  77.6677
 56.3116  5931.28  77.7802
 56.3536  5947.74  77.5584
 56.3956  5937.06  77.4807
 56.4376  5930.37  77.4665
 56.4796  5991.64  77.6738
 56.5216  5902.69  77.4577
 56.5636  6006.03  77.7349
 56.6056  5952.26  77.6066
 56.6476  5987.52  77.4766
 56.6896  5975.35  77.8326
 56.7316  5996.96  77.8757
 56.7736  5952.28  77.5948
 56.8156  5999.72  77.9042
 56.8576  5912.43  77.2752
 56.8996  5913.88  77.2259
 56.9416  5932.32  77.6444
 56.9836  5909.85  77.0129
 57.0256  5837.97  76.8548
 57.0676  5893.24  77.3398
 57.1096  5974.23  77.6609
 57.1516  5990.68  77.7995
 57.1936  5895.26  76.9624
 57.2356  5999.8  77.9601
 57.2776  5964.75  77.6879
 57.3196  5924.94  77.7911
 57.3616  5950.97  77.4623
 57.4036  5973.75  77.6708
 57.4456  5920.54  77.2869
 57.4876  5947.03  77.321
 57.5296  5840.23  76.8569
 57.5716  5962.98  77.7518
 57.6136  6017.42  77.9249
 57.6556  5931.42  77.4927
 57.6976  5910.59  77.1861
 57.7396  5808.27  76.8894
 57.7816  5794.38  77.1422
 57.8236  5853.8  77.34
 57.8656  5852.9  76.994
 57.9076  5908.65  77.3932
 57.9496  5926.86  77.8539
 57.9916  5853.52  76.8975
 58.0336  5892.41  77.4203
 58.0756  5867.04  76.8514
 58.1176  5981.24  77.6356
 58.1596  5871.67  77.4781
 58.2016  6016.68  77.6595
 58.2436  5879.76  77.1844
 58.2856  5887.69  77.1509
 58.3276  5917.63  77.7191
 58.3696  5896.24  77.333
 58.4116  5904.96  77.2576
 58.4536  5900.63  77.1202
 58.4956  5948.42  77.6043
 58.5376  5927.91  77.0508
 58.5796  5841.34  76.8898
 58.6216  5897.56  77.093
 58.6636  6022.73  78.1118
 58.7056  5997.77  77.8077
 58.7476  5798.01  76.9351
 58.7896  5886.93  77.1769
 58.8316  5938.07  77.5111
 58.8736  5937.03  77.5028
 58.9156  5902.07  77.3253
 58.9576  6111.4  78.9924
 58.9996  5990.44  77.4643
 59.0416  6034.46  78.114
 59.0836  5904.72  77.1981
 59.1256  5915.7  77.9606
 59.1676  5790.31  77.4229
 59.2096  6017.32  78.2305
 59.2516  6117.91  78.4601
 59.2936  6047.05  78.3326
 59.3356  6012.63  77.9874
 59.3776  6103.78  78.7461
 59.4196  5847.75  77.0137
 59.4616  5727.32  76.0804
 59.5036  5885.64  77.1596
 59.5456  6028.17  77.7821
 59.5876  6094.81  78.4027
 59.6296  5901.03  77.2147
 59.6716  6015.74  78.0194
 59.7136  5956.29  77.6213
 59.7556  5820.36  76.8644
 59.7976  5872.76  76.9554
 59.8396  5904.6  77.0592
 59.8816  5947.8  77.8812
 59.9236  5989.78  77.8013
 59.9656  5911.69  77.5504
 60.0076  5945.92  77.137
 60.0496  5937.47  77.5817
 60.0916  6003.9  77.4344
 60.1336  5896.62  77.8334
 60.1756  5864.87  78.7905
 60.1996  0.0000000E+00  0.0000000E+00