File: docs/examples/opeando_xrd/IS17_D/Data/IS17_D/17_Da_f00130.xye
# /beamlines/bl04/projects/cycle2025-II/20250340211-lsimonelli/DATA/IS17_D/17_Da_f00130.xye : mythproc.py merge -s 0.006 -l 0.5 -f /beamlines/bl04/inhouse/ff/FlatField/ff_20Nov2024rod8mm60s_17keV.raw -b True -c true -o xye /beamlines/bl04/projects/cycle2025-II/20250340211-lsimonelli/DATA/IS17_D/17_Da_00130.dat
# IsMon = [6765453, 6764982, 6764808]  IsPos = [-1.4999, -2.4884, -3.4989]
# Wave = 0.4962  CalPath /beamlines/bl04/projects/cycle2025-II/20250340211-lsimonelli/DATA/Align/Si_Pos1_25keV_f00001.cal
# Date = 2025-09-25_05:47:57 Dt = 4.8000  Bin = 0.0060  <imon> = 6765081 +/- 272 (Min/Max) 6764808 / 6765453
# icurr 250.7265  mocoIn 1.7099E-05  mocoOut 0.8020  i15 7.08483e+06  imon 6.76508e+06  i7 6.0000  iEMpd_timer 4.8000  iEMpd_1 3.3741E-08  iEMpd_2 7.9415E-08  iEMpd_3 1.7438E-08  iEMpd_4 4.8108E-08  iEMhp_timer 4.8000  iEMhp_1 4.8969E-06  iEMhp_2 -2.6378E-08  iEMhp_3 -2.4588E-08  iEMhp_4 -2.2269E-08
#      9776
 1.5856  40616  206.938
 1.6276  47841  220.737
 1.6696  54189.6  234.098
 1.7116  62438.2  251.776
 1.7536  72607.7  270.35
 1.7956  77146  279.367
 1.8376  72954.7  272.103
 1.8796  61308  247.605
 1.9216  49314.8  222.954
 1.9636  41700.5  204.18
 2.0056  37730.6  193.465
 2.0476  34859.5  187.998
 2.0896  33715.3  183.802
 2.1316  32947.6  180.824
 2.1736  31002.9  176.798
 2.2156  31378.6  176.439
 2.2576  30509.6  174.603
 2.2996  29015.2  170.897
 2.3416  29321.8  170.428
 2.3836  28781.2  168.952
 2.4256  27958.5  167.063
 2.4676  27524.7  165.526
 2.5096  27385.2  165.161
 2.5516  26954.5  167.667
 2.5936  31557.8  177.739
 2.6356  26503.6  163.578
 2.6776  26150.4  161.383
 2.7196  25599  160.184
 2.7616  25707.8  160.301
 2.8036  25273.2  159.112
 2.8456  25195.8  159.477
 2.8876  24853.8  158.269
 2.9296  24086.1  155.929
 2.9716  24527  156.841
 3.0136  23819.7  154.63
 3.0556  24032.2  155.714
 3.0976  24054.3  154.718
 3.1396  23837.4  154.731
 3.1816  23518.5  153.627
 3.2236  23366.2  153.135
 3.2656  23223.4  151.716
 3.3076  23276.8  153.332
 3.3496  23680.9  153.598
 3.3916  24115.5  154.825
 3.4336  24247.6  155.825
 3.4756  24622.9  156.952
 3.5176  25463.7  159.405
 3.5596  25233.5  161.098
 3.6016  25602.4  159.897
 3.6436  24831.9  158.571
 3.6856  24470  155.712
 3.7276  23516  153.733
 3.7696  23211  152.931
 3.8116  22857.3  151.644
 3.8536  23094.4  152.358
 3.8956  22878.2  151.472
 3.9376  22681.6  151.064
 3.9796  22755  150.827
 4.0216  22935.3  150.459
 4.0636  22689.4  151.11
 4.1056  22932.3  151.565
 4.1476  22866.2  151.655
 4.1896  23144.5  152.441
 4.2316  23281.6  152.715
 4.2736  23881.6  154.458
 4.3156  23954.8  154.923
 4.3576  24820  157.63
 4.3996  24970.1  158.361
 4.4416  25385.1  159.253
 4.4836  26036.5  161.439
 4.5256  26478.1  163.41
 4.5676  26398.1  163.421
 4.6096  26930.7  163.713
 4.6516  27371.5  164.759
 4.6936  27551.6  166.116
 4.7356  27504.2  165.803
 4.7776  27545.7  165.762
 4.8196  27225.4  165.438
 4.8616  26721.1  163.387
 4.9036  26429.7  162.233
 4.9456  26479.9  163.04
 4.9876  25826.4  160.918
 5.0296  26129.2  161.679
 5.0716  26221.6  162.74
 5.1136  26348.9  162.84
 5.1556  26546.8  162.917
 5.1976  27206.8  164.921
 5.2396  27050.1  164.146
 5.2816  27055.6  164.62
 5.3236  27058.6  164.34
 5.3656  26635.4  163.969
 5.4076  26611.7  164.045
 5.4496  26666.1  163.701
 5.4916  26771.5  163.778
 5.5336  26826.5  164.034
 5.5756  26510.8  163.008
 5.6176  26663.1  162.916
 5.6596  26778.1  164.242
 5.7016  27148.2  164.637
 5.7436  27437.3  165.406
 5.7856  27219.2  165.185
 5.8276  27700.4  166.361
 5.8696  27768.2  166.736
 5.9116  27709.9  167.166
 5.9536  27883.4  167.435
 5.9956  28236.1  167.851
 6.0376  28069.2  167.998
 6.0796  28499.9  169.111
 6.1216  28534.4  169.422
 6.1636  28854.4  169.42
 6.2056  28723.4  169.709
 6.2476  29007.6  170.416
 6.2896  29230  170.748
 6.3316  28950.2  170.099
 6.3736  29170.5  170.638
 6.4156  29275.6  170.839
 6.4576  29478.7  171.039
 6.4996  29541.8  171.706
 6.5416  29385.3  171.385
 6.5836  29875.9  172.892
 6.6256  29602.2  171.812
 6.6676  30332.8  173.483
 6.7096  29989.5  173.348
 6.7516  30612.9  174.797
 6.7936  30666.7  174.372
 6.8356  30707.1  174.57
 6.8776  31243.2  176.898
 6.9196  31052.4  176.757
 6.9616  31628.9  177.831
 7.0036  31922  178.299
 7.0456  32015.1  177.853
 7.0876  31807.7  178.97
 7.1296  31877.5  178.3
 7.1716  31871.9  177.819
 7.2136  31868.5  177.592
 7.2556  31874.8  177.773
 7.2976  32032.6  178.711
 7.3396  31755.7  178.151
 7.3816  31710.3  178.238
 7.4236  32173  178.821
 7.4656  32354.1  178.804
 7.5076  32291.3  178.768
 7.5496  32488.1  179.855
 7.5916  32534.9  180.012
 7.6336  32831.3  180.806
 7.6756  33031.2  181.128
 7.7176  33478  182.651
 7.7596  33364.9  183.609
 7.8016  34012.7  187.566
 7.8436  34452.3  185.589
 7.8856  34579.5  185.383
 7.9276  35081.4  187.123
 7.9696  35325.2  188.086
 8.0116  36234  189.011
 8.0536  36549.6  190.096
 8.0956  36700  191.672
 8.1376  37084.2  192.141
 8.1796  37148.6  192.857
 8.2216  38387.9  194.478
 8.2636  38114.7  194.32
 8.3056  37781.8  194.249
 8.3476  38703.3  195.919
 8.3896  38248.9  194.846
 8.4316  38603.2  195.915
 8.4736  38700.5  195.618
 8.5156  38725.4  195.967
 8.5576  38132  195.444
 8.5996  38194.3  194.461
 8.6416  37851.7  194.859
 8.6836  37715.1  194.336
 8.7256  38304.9  195.285
 8.7676  37909.1  197.211
 8.8096  37640.4  193.784
 8.8516  37462.6  192.94
 8.8936  37463.1  192.837
 8.9356  37124.4  192.3
 8.9776  37108.1  192.368
 9.0196  36964.8  191.659
 9.0616  37101.5  191.556
 9.1036  36855.9  192.042
 9.1456  36817.8  191.301
 9.1876  36952.9  191.597
 9.2296  36886.3  190.824
 9.2716  36459.2  189.78
 9.3136  36405.2  189.614
 9.3556  36474.6  189.783
 9.3976  35258  187.122
 9.4396  35533  187.744
 9.4816  35018.3  186.238
 9.5236  35239  186.738
 9.5656  34986.3  186.396
 9.6076  34848.3  186.564
 9.6496  34201.5  184.746
 9.6916  34674.5  185.991
 9.7336  34381  184.978
 9.7756  34749.1  187.247
 9.8176  33790.7  184.131
 9.8596  33896.6  182.848
 9.9016  33145  180.803
 9.9436  33185.5  180.825
 9.9856  32890.8  180.249
 10.0276  32314.1  179.776
 10.0696  32787.8  180.117
 10.1116  31671.9  177.288
 10.1536  31387.6  176.658
 10.1956  31280  175.952
 10.2376  30801.2  174.101
 10.2796  30975.6  174.721
 10.3216  30764.6  174.392
 10.3636  30936.2  174.913
 10.4056  30449.6  173.938
 10.4476  30236.9  172.948
 10.4896  30811.5  174.027
 10.5316  30073.3  172.645
 10.5736  29542  171.532
 10.6156  28875.5  169.345
 10.6576  29728.9  170.377
 10.6996  28906.5  168.671
 10.7416  28896.6  168.884
 10.7836  28706  169.028
 10.8256  28569.3  169.064
 10.8676  28673.7  168.897
 10.9096  28249.8  167.685
 10.9516  28009  165.886
 10.9936  27974  165.982
 11.0356  28002  166.712
 11.0776  27918.4  165.763
 11.1196  27307.4  164.692
 11.1616  27154.1  163.915
 11.2036  27541.6  164.934
 11.2456  27339.6  165.044
 11.2876  27116.7  164.095
 11.3296  26758.9  162.908
 11.3716  27476.9  164.763
 11.4136  27645.4  166.195
 11.4556  27871.8  166.529
 11.4976  28417.2  167.085
 11.5396  27627.1  164.919
 11.5816  26905.2  163.21
 11.6236  26571.9  162.423
 11.6656  26482.5  161.289
 11.7076  26013.8  160.705
 11.7496  25806.7  163.207
 11.7916  25877.7  159.538
 11.8336  25593.4  159.554
 11.8756  25332.1  158.273
 11.9176  25432.3  158.237
 11.9596  25271  157.911
 12.0016  25148.9  158.343
 12.0436  24962.2  157.165
 12.0856  24711.1  156.906
 12.1276  24944.6  157.449
 12.1696  24661.1  155.795
 12.2116  25009.7  156.889
 12.2536  24766.6  156.964
 12.2956  24639  155.766
 12.3376  24341.4  155.149
 12.3796  24588.5  156.403
 12.4216  24594.8  155.633
 12.4636  24292.9  155.59
 12.5056  24687.3  156.191
 12.5476  24626.6  155.447
 12.5896  24567.8  155.904
 12.6316  24152.2  154.732
 12.6736  24155.3  155.236
 12.7156  24046.8  154.74
 12.7576  24419.5  156.182
 12.7996  24529.7  155.168
 12.8416  24567.9  156.355
 12.8836  24924  157.31
 12.9256  24925.5  156.316
 12.9676  25134.4  157.404
 13.0096  24902  157.78
 13.0516  25028.8  157.211
 13.0936  24951.6  157.369
 13.1356  25246.8  157.272
 13.1776  24931.7  157.281
 13.2196  24830.5  156.621
 13.2616  24832.8  156.941
 13.3036  25000.8  157.439
 13.3456  24862.8  157.549
 13.3876  24817.8  156.505
 13.4296  24966.9  157.127
 13.4716  25213.1  157.499
 13.5136  24806.8  156.38
 13.5556  25122.7  157.702
 13.5976  24965.2  157.646
 13.6396  25246.4  157.898
 13.6816  24749.1  156.825
 13.7236  25530.9  158.925
 13.7656  24714.7  156.899
 13.8076  24888.4  156.227
 13.8496  24656.4  156.099
 13.8916  24493.4  156.595
 13.9336  24669.8  156.373
 13.9756  24585  155.455
 14.0176  24192.6  154.793
 14.0596  24385.4  155.469
 14.1016  24158.5  155.14
 14.1436  23934.3  153.545
 14.1856  23644.3  152.912
 14.2276  23437.4  152.676
 14.2696  23817.1  153.801
 14.3116  23399  152.344
 14.3536  22783.1  150.498
 14.3956  22908.7  150.645
 14.4376  23045.7  150.874
 14.4796  22886.5  150.343
 14.5216  22655.1  150.379
 14.5636  22578.5  149.688
 14.6056  22667.7  149.559
 14.6476  22541.1  148.367
 14.6896  22138.6  147.58
 14.7316  21867.6  147.707
 14.7736  21732.3  146.389
 14.8156  21561.1  145.852
 14.8576  21559.9  145.693
 14.8996  21129.3  145.446
 14.9416  20712.8  144.006
 14.9836  20888.4  144.569
 15.0256  20731.8  142.949
 15.0676  20514.2  142.426
 15.1096  20565.1  142.431
 15.1516  20192  141.69
 15.1936  20219.8  141.214
 15.2356  19807.6  140.048
 15.2776  19796.4  140.019
 15.3196  19414.8  139.246
 15.3616  19557.7  139.511
 15.4036  19194.9  138.055
 15.4456  19524  138.891
 15.4876  19148.9  137.23
 15.5296  19007.2  137.008
 15.5716  18906  136.243
 15.6136  18725.2  135.914
 15.6556  18788.2  135.755
 15.6976  18571.9  134.892
 15.7396  18578.5  135.307
 15.7816  18616.8  134.95
 15.8236  18202  134.091
 15.8656  18065.8  133.433
 15.9076  17700.4  131.903
 15.9496  17885.3  135.387
 15.9916  17857.6  135.728
 16.0336  17454.2  131.076
 16.0756  17623.6  132.024
 16.1176  17564.6  131.875
 16.1596  17040.6  131.068
 16.2016  17303.7  130.817
 16.2436  17084.6  130.37
 16.2856  17268.1  130.606
 16.3276  16803.8  129.257
 16.3696  17145.3  130.379
 16.4116  16997.4  130.281
 16.4536  16997.9  130.068
 16.4956  16845.3  129.221
 16.5376  16636.5  128.6
 16.5796  16853.6  128.794
 16.6216  16744.3  128.684
 16.6636  16733.4  128.798
 16.7056  16796.9  128.905
 16.7476  17033.9  129.329
 16.7896  16773.1  129.098
 16.8316  16773.9  129.066
 16.8736  16716.8  129.098
 16.9156  16718.8  129.454
 16.9576  16518.6  129.485
 16.9996  16636.6  130.44
 17.0416  16600  128.632
 17.0836  16424.1  127.7
 17.1256  16220  126.92
 17.1676  16201.7  126.839
 17.2096  16267.7  126.974
 17.2516  15943.4  125.485
 17.2936  16096.6  126.418
 17.3356  15700.4  124.847
 17.3776  15604.4  124.657
 17.4196  15916  125.586
 17.4616  15670.9  124.538
 17.5036  15465.6  124.085
 17.5456  15292.2  124.031
 17.5876  15392.5  123.477
 17.6296  15508.3  123.752
 17.6716  15196.6  123.073
 17.7136  15141.5  123
 17.7556  15235.9  123.679
 17.7976  15278.6  123.591
 17.8396  15125.8  122.463
 17.8816  15050  122.709
 17.9236  15086.5  122.664
 17.9656  15221  123.757
 18.0076  15042.5  122.602
 18.0496  15185.4  122.309
 18.0916  15407.6  123.662
 18.1336  15418.4  123.895
 18.1756  15392.7  123.307
 18.2176  15040.2  122.12
 18.2596  15056.4  121.917
 18.3016  15095.5  122.329
 18.3436  15194.9  122.74
 18.3856  15055.6  122.51
 18.4276  14798.6  120.933
 18.4696  14909  121.483
 18.5116  14975.9  122.051
 18.5536  14944.6  122.29
 18.5956  14822.9  121.333
 18.6376  14622.4  120.917
 18.6796  14804.8  120.982
 18.7216  14830.9  121.584
 18.7636  14559.1  120.451
 18.8056  14691.9  120.943
 18.8476  14427.1  120.481
 18.8896  14515  120.173
 18.9316  14707.8  120.956
 18.9736  14464.6  119.642
 19.0156  14591.8  120.579
 19.0576  14448.5  118.836
 19.0996  14469  119.639
 19.1416  14329.5  119.453
 19.1836  14206.6  118.539
 19.2256  14379.6  119.578
 19.2676  14439.3  119.825
 19.3096  14415.5  119.974
 19.3516  14241.3  119.206
 19.3936  14293.5  119.322
 19.4356  14354.2  119.438
 19.4776  14310.2  119.357
 19.5196  14460.5  119.83
 19.5616  14207.6  119.036
 19.6036  14257.7  118.739
 19.6456  14267.5  118.901
 19.6876  14462.6  119.357
 19.7296  14276.3  119.04
 19.7716  14300.8  119.311
 19.8136  14603.2  120.774
 19.8556  14831.2  121.175
 19.8976  14916  121.594
 19.9396  15063.1  121.755
 19.9816  15000.4  121.755
 20.0236  14775.2  121.053
 20.0656  14598.6  120.323
 20.1076  14183.8  119.063
 20.1496  14222.4  119.235
 20.1916  14003.8  117.827
 20.2336  14187.8  118.534
 20.2756  13928.5  117.875
 20.3176  13815.9  117.146
 20.3596  13786.2  116.996
 20.4016  13768.3  116.722
 20.4436  13819.7  117.399
 20.4856  13525.4  116.032
 20.5276  13606.4  116.847
 20.5696  13621.5  116.359
 20.6116  13581.7  116.476
 20.6536  13721.6  116.54
 20.6956  13491.6  115.72
 20.7376  13581.6  116.332
 20.7796  13457.6  115.486
 20.8216  13661.8  116.062
 20.8636  13494.7  115.716
 20.9056  13509.2  115.734
 20.9476  13289.1  114.626
 20.9896  13570  115.695
 21.0316  13579.2  115.63
 21.0736  13267.5  114.819
 21.1156  13414.6  115.62
 21.1576  13401.9  115.613
 21.1996  13321.7  115.242
 21.2416  13258.4  114.8
 21.2836  13351.3  115.165
 21.3256  13170.5  114.515
 21.3676  13359.1  114.824
 21.4096  13154.5  114.253
 21.4516  13237.2  114.493
 21.4936  12955.3  113.514
 21.5356  13099.4  114.095
 21.5776  13208  114.398
 21.6196  13066.6  113.824
 21.6616  13132.4  114.192
 21.7036  13024.3  113.502
 21.7456  13203.9  114.358
 21.7876  12916.1  112.854
 21.8296  13038.5  113.242
 21.8716  12909  112.907
 21.9136  13136.3  114.105
 21.9556  12873.9  112.626
 21.9976  12829.6  112.445
 22.0396  12852.7  112.803
 22.0816  12894.5  113.535
 22.1236  13037.9  113.611
 22.1656  12875.9  113.391
 22.2076  12960.6  112.877
 22.2496  12891  112.598
 22.2916  12843.4  112.272
 22.3336  13005.5  113.713
 22.3756  12848.7  112.743
 22.4176  12620.1  111.595
 22.4596  12660.8  112.364
 22.5016  12950.9  113.125
 22.5436  12967.5  113.197
 22.5856  12829  112.727
 22.6276  12788.8  112.686
 22.6696  12817.9  113.166
 22.7116  12880.8  112.954
 22.7536  12886.9  112.957
 22.7956  12949.9  112.554
 22.8376  12825.3  112.542
 22.8796  12788.2  112.176
 22.9216  13014.7  113.718
 22.9636  12954.7  112.597
 23.0056  12751.4  111.847
 23.0476  13030.7  113.642
 23.0896  13276.1  114.071
 23.1316  13039.2  113.494
 23.1736  12795.2  115.399
 23.2156  13001.4  113.657
 23.2576  12738.3  112.63
 23.2996  12784.4  112.623
 23.3416  12739.8  112.945
 23.3836  12753.2  112.231
 23.4256  12839.5  112.727
 23.4676  12722  111.91
 23.5096  12629  112.175
 23.5516  12902.2  112.655
 23.5936  12928.4  113.674
 23.6356  12940  113.403
 23.6776  12836.3  113.154
 23.7196  12704.9  112.148
 23.7616  12952.5  113.154
 23.8036  12825.8  112.642
 23.8456  12814.4  111.996
 23.8876  12376.4  110.572
 23.9296  12431.2  111.312
 23.9716  12470.8  110.684
 24.0136  12489  111.664
 24.0556  12463  111.277
 24.0976  12344.8  110.555
 24.1396  12255.7  112.823
 24.1816  12256.9  111.232
 24.2236  12383  111.411
 24.2656  12216.6  110.129
 24.3076  12190.9  110.263
 24.3496  12085.5  109.682
 24.3916  12169.6  110.109
 24.4336  12155.1  110.254
 24.4756  12213.8  110.394
 24.5176  11932  108.753
 24.5596  11737.8  107.991
 24.6016  11835.5  108.729
 24.6436  11814.6  108.123
 24.6856  11690.1  107.312
 24.7276  11773  108.011
 24.7696  11887.8  108.65
 24.8116  11732  108.124
 24.8536  11738.7  108.141
 24.8956  11648.4  107.464
 24.9376  11517.1  106.796
 24.9796  11530.3  107.213
 25.0216  11356.2  106.507
 25.0636  11612.8  107.354
 25.1056  11327.6  106.737
 25.1476  11535.5  109.405
 25.1896  11481.8  107.606
 25.2316  11486.5  106.893
 25.2736  11471.9  106.474
 25.3156  11337.7  105.923
 25.3576  11443  106.844
 25.3996  11204.2  105.697
 25.4416  11449.3  106.839
 25.4836  11259.6  106.477
 25.5256  11276.7  105.916
 25.5676  11247.8  105.508
 25.6096  11041.6  105.11
 25.6516  11208.2  105.395
 25.6936  11161.3  105.488
 25.7356  11266.4  106.119
 25.7776  11194.4  105.385
 25.8196  11121.5  105.278
 25.8616  11163.6  105.398
 25.9036  11239.1  105.218
 25.9456  11247.1  105.862
 25.9876  11042.9  104.956
 26.0296  11274.9  105.555
 26.0716  10957.1  104.485
 26.1136  11240.5  105.767
 26.1556  11198.4  104.946
 26.1976  11085.3  105.348
 26.2396  11109.3  104.611
 26.2816  11128.8  105.317
 26.3236  11083.2  105.261
 26.3656  11054.2  104.844
 26.4076  11068.7  105.126
 26.4496  11556.5  106.896
 26.4916  11166.8  105.078
 26.5336  11062.2  104.998
 26.5756  11565  107.071
 26.6176  11048  104.762
 26.6596  10830.8  104.035
 26.7016  10824.9  103.761
 26.7436  10839.2  103.962
 26.7856  10859.2  104.041
 26.8276  10770.5  103.57
 26.8696  10787.3  103.526
 26.9116  10908.8  104.048
 26.9536  10750.3  103.336
 26.9956  10746.3  103.348
 27.0376  10592.9  102.818
 27.0796  10846.6  103.778
 27.1216  10563.7  102.486
 27.1636  10628.3  102.969
 27.2056  10673.3  103.068
 27.2476  10611.9  102.771
 27.2896  10606.6  102.859
 27.3316  10662.3  102.827
 27.3736  10547  102.551
 27.4156  10429.7  101.815
 27.4576  10470.1  102.246
 27.4996  10391.3  101.453
 27.5416  10560.7  102.6
 27.5836  10507.4  102.152
 27.6256  10649.6  103.002
 27.6676  10731.2  103.43
 27.7096  10452.9  101.942
 27.7516  10416.6  101.823
 27.7936  10319.2  101.609
 27.8356  10440.1  101.821
 27.8776  10333.2  101.341
 27.9196  10272.5  100.892
 27.9616  10328  101.362
 28.0036  10273.8  101.063
 28.0456  10306.6  101.358
 28.0876  10174.4  100.799
 28.1296  10222.8  100.876
 28.1716  10108.4  100.313
 28.2136  10269.1  101.074
 28.2556  10104.2  100.38
 28.2976  10152.2  100.611
 28.3396  10264.5  100.924
 28.3816  10237.4  100.809
 28.4236  10188.8  100.726
 28.4656  10129.1  100.464
 28.5076  10083.4  99.8655
 28.5496  10119.9  100.315
 28.5916  10145.1  100.245
 28.6336  9968.86  99.7152
 28.6756  10230.9  100.207
 28.7176  10006.3  99.6532
 28.7596  10027.2  99.6539
 28.8016  10066.5  99.8817
 28.8436  9892.14  99.2545
 28.8856  9972.75  99.5107
 28.9276  9996.05  99.8745
 28.9696  9840.44  98.7523
 29.0116  9883.63  99.1563
 29.0536  9821.77  99.0403
 29.0956  9860.37  98.9536
 29.1376  9882.67  99.0279
 29.1796  9749.81  98.4023
 29.2216  9727.07  98.1344
 29.2636  9851.28  98.8294
 29.3056  9747.58  98.1021
 29.3476  9803.69  98.9097
 29.3896  9921.6  99.5991
 29.4316  10012.5  99.3905
 29.4736  9797.3  98.3809
 29.5156  10013.8  99.3804
 29.5576  9956.13  99.8456
 29.5996  9821.93  98.4219
 29.6416  9761.39  98.2292
 29.6836  10000.3  99.3573
 29.7256  9891.57  99.3896
 29.7676  9764.75  98.4113
 29.8096  9817.54  98.6184
 29.8516  9619.31  97.9499
 29.8936  9864.63  99.2852
 29.9356  9938.57  99.409
 29.9776  9650.87  98.1121
 30.0196  9719.27  97.8418
 30.0616  9810.02  98.6776
 30.1036  9756.25  98.2252
 30.1456  9705.43  98.2113
 30.1876  9561.86  97.4586
 30.2296  9605.37  97.6309
 30.2716  9880.43  98.6475
 30.3136  9811.35  99.1734
 30.3556  9792.65  99.0866
 30.3976  9478.76  99.0115
 30.4396  9787.95  97.9083
 30.4816  9797.01  97.5481
 30.5236  9694.95  97.0516
 30.5656  9693.7  97.71
 30.6076  9678.17  97.0568
 30.6496  9651.88  97.3101
 30.6916  9603.69  97.1655
 30.7336  9663.6  97.6197
 30.7756  9648.82  97.6389
 30.8176  9595.63  97.2835
 30.8596  9599.12  97.0566
 30.9016  9512.24  96.9719
 30.9436  9552.37  96.9245
 30.9856  9599.71  97.2696
 31.0276  9450.25  96.123
 31.0696  9474.75  96.8268
 31.1116  9383.37  96.3336
 31.1536  9551.04  97.0756
 31.1956  9378.06  96.2766
 31.2376  9280.13  95.7873
 31.2796  9427.72  96.0772
 31.3216  9336.35  95.5553
 31.3636  9398.61  96.5652
 31.4056  9408.31  97.9418
 31.4476  9366.89  95.6029
 31.4896  9282.22  95.6746
 31.5316  9443.26  95.8923
 31.5736  9535.34  96.1828
 31.6156  9341.63  95.2184
 31.6576  9432.7  95.7763
 31.6996  9536.22  95.972
 31.7416  9269.3  95.6747
 31.7836  9487.58  95.8025
 31.8256  9371.48  95.4865
 31.8676  9438.13  95.8234
 31.9096  9252.16  95.2303
 31.9516  9174.87  94.994
 31.9936  9181.05  94.8535
 32.0356  9325.95  95.6644
 32.0776  9286.83  95.3474
 32.1196  9375.15  95.8834
 32.1616  9417.51  95.5595
 32.2036  9171.2  94.8105
 32.2456  9283.49  95.7743
 32.2876  9221.44  94.9422
 32.3296  9296.25  95.2975
 32.3716  9137.31  94.5846
 32.4136  9261.69  95.4477
 32.4556  9246.02  94.7367
 32.4976  9231.15  94.5664
 32.5396  9214.07  94.5531
 32.5816  9092.11  94.0407
 32.6236  9228.51  94.8198
 32.6656  9291  95.6807
 32.7076  9188.9  94.8049
 32.7496  9152.95  94.295
 32.7916  9257.04  94.7832
 32.8336  9122.63  94.1872
 32.8756  9250.48  94.5619
 32.9176  9033.07  93.925
 32.9596  9151.5  94.6161
 33.0016  9097.46  94.1324
 33.0436  9169.39  94.4073
 33.0856  9093.25  94.3522
 33.1276  8993.04  93.5708
 33.1696  9178.76  94.3741
 33.2116  9113.75  94.2595
 33.2536  9085.23  94.1137
 33.2956  9111.45  94.3377
 33.3376  9002.95  93.5117
 33.3796  9048.62  93.9584
 33.4216  9053.18  93.583
 33.4636  8967.63  93.2839
 33.5056  8865.71  92.9882
 33.5476  8914.07  93.2315
 33.5896  9029.43  93.6055
 33.6316  8917.81  93.3359
 33.6736  8849.56  93.2247
 33.7156  8869.34  93.1034
 33.7576  9066.45  94.0229
 33.7996  9009.06  93.4967
 33.8416  8761.54  92.3882
 33.8836  8846.58  92.7531
 33.9256  8909.32  93.0046
 33.9676  8967.19  93.1968
 34.0096  8862.11  92.9679
 34.0516  8870.94  92.6507
 34.0936  8869.03  92.8131
 34.1356  8890.76  92.7574
 34.1776  8836.02  92.4899
 34.2196  8758.46  92.2608
 34.2616  8822.04  92.7309
 34.3036  8783.81  92.7786
 34.3456  8730.78  92.255
 34.3876  8790.39  92.5297
 34.4296  8763.76  92.0747
 34.4716  8834.57  92.5567
 34.5136  8764.62  92.4425
 34.5556  8776.7  92.7586
 34.5976  8848  92.9353
 34.6396  8750.98  92.1348
 34.6816  8786.94  92.4371
 34.7236  8765.4  92.1067
 34.7656  8659.95  91.7455
 34.8076  8648.33  92.0003
 34.8496  8665.28  91.9519
 34.8916  8722.64  92.1331
 34.9336  8801.69  92.5175
 34.9756  8755.13  92.1856
 35.0176  8780.68  92.8531
 35.0596  8589.12  91.6591
 35.1016  8627.23  91.6317
 35.1436  8722.77  91.8251
 35.1856  8615.39  91.3828
 35.2276  8652.84  91.7612
 35.2696  8519.44  91.2373
 35.3116  8665.57  92.1016
 35.3536  8618.03  91.5685
 35.3956  8701.48  91.7187
 35.4376  8491.47  91.1522
 35.4796  8589.72  91.7429
 35.5216  8554.29  91.5113
 35.5636  8334.68  91.0726
 35.6056  8643.14  91.7511
 35.6476  8641.68  91.6386
 35.6896  8713.94  92.1098
 35.7316  8584.05  91.3874
 35.7736  8468.34  90.9733
 35.8156  8458.11  90.9134
 35.8576  8535.52  91.5854
 35.8996  8564.85  91.7073
 35.9416  8419.12  90.4329
 35.9836  8491  91.1638
 36.0256  8648.27  92.0233
 36.0676  8610.14  91.5801
 36.1096  8356.53  90.357
 36.1516  8635.93  91.7439
 36.1936  8442.17  90.5459
 36.2356  8486.77  91.4381
 36.2776  8445.36  90.6945
 36.3196  8428.12  90.2672
 36.3616  8376.85  90.0741
 36.4036  8412.55  90.3718
 36.4456  8442.27  90.7436
 36.4876  8408.92  90.5037
 36.5296  8444.26  90.7335
 36.5716  8440.48  91.2689
 36.6136  8583.83  91.0331
 36.6556  8571.57  91.1744
 36.6976  8390.03  90.7049
 36.7396  8408.02  90.524
 36.7816  8498.06  91.3942
 36.8236  8429.53  90.9465
 36.8656  8499.3  91.4019
 36.9076  8302.5  90.2076
 36.9496  8305.87  90.2144
 36.9916  8369.26  90.1854
 37.0336  8528.67  91.356
 37.0756  8485.71  90.917
 37.1176  8187.1  89.5735
 37.1596  8356.71  90.4946
 37.2016  8413.47  91.0382
 37.2436  8512.1  90.8758
 37.2856  8397.05  90.5183
 37.3276  8333.14  89.6885
 37.3696  8256.39  89.9941
 37.4116  8337.55  90.3365
 37.4536  8177.01  89.3344
 37.4956  8128.9  89.3216
 37.5376  8298.34  91.6188
 37.5796  8279.01  91.4557
 37.6216  8088.8  88.6672
 37.6636  8142.69  88.8583
 37.7056  8203.2  89.3799
 37.7476  8351.05  89.711
 37.7896  8113.28  88.9281
 37.8316  8112.21  89.0935
 37.8736  8269.52  89.4766
 37.9156  8170.05  88.9348
 37.9576  8200.36  88.9852
 37.9996  8156.24  88.4606
 38.0416  8019.45  88.5303
 38.0836  8251.08  89.7032
 38.1256  8109.79  88.8559
 38.1676  7813.17  87.3851
 38.2096  8172.97  88.9888
 38.2516  8107.22  88.8445
 38.2936  8196.98  89.1275
 38.3356  8257.36  89.381
 38.3776  8061.41  88.5774
 38.4196  8199.48  89.1887
 38.4616  8189.77  89.3672
 38.5036  8251.06  89.546
 38.5456  8024.72  89.1463
 38.5876  8054.91  89.3465
 38.6296  7911.77  87.528
 38.6716  8126.37  88.4986
 38.7136  7912.86  87.2712
 38.7556  8038.45  88.4675
 38.7976  8044.19  88.4373
 38.8396  7975.19  88.5104
 38.8816  7925.89  88.0112
 38.9236  8119.56  88.8954
 38.9656  8084.5  88.6143
 39.0076  8092.4  88.0596
 39.0496  8072.31  88.4937
 39.0916  8044.02  87.9811
 39.1336  8017.93  88.2568
 39.1756  8033.77  88.4146
 39.2176  8028.54  88.921
 39.2596  8190.8  89.7324
 39.3016  7899.43  87.6922
 39.3436  7883.37  88.0316
 39.3856  8141.54  88.9026
 39.4276  7999.5  88.6223
 39.4696  7933.53  87.8769
 39.5116  7969.48  88.5947
 39.5536  8066.74  89.5678
 39.5956  8115.22  88.9235
 39.6376  8020.1  88.4089
 39.6796  8041.97  88.2641
 39.7216  8094.22  88.6469
 39.7636  8072.52  89.1126
 39.8056  8011.19  88.5485
 39.8476  7997.61  88.7269
 39.8896  8008.33  88.4063
 39.9316  7933.15  88.2513
 39.9736  8125.09  88.8776
 40.0156  8054.49  88.3108
 40.0576  8116.18  89.0119
 40.0996  8149.98  88.3727
 40.1416  8113.14  88.9718
 40.1836  8061.75  88.5779
 40.2256  8071.61  88.6831
 40.2676  7954.21  88.1412
 40.3096  8073.09  88.7189
 40.3516  8094.76  88.9453
 40.3936  8214.65  89.1586
 40.4356  8068  88.5531
 40.4776  8209.31  89.7486
 40.5196  8077.14  89.1495
 40.5616  8099.44  88.9083
 40.6036  7981.41  88.5169
 40.6456  8119.59  88.8849
 40.6876  8194.53  89.2721
 40.7296  8050  88.6247
 40.7716  8137.27  89.2354
 40.8136  8043.04  88.6606
 40.8556  8090.4  89.0511
 40.8976  8055.92  88.7801
 40.9396  7984.9  88.7401
 40.9816  8164.71  89.0116
 41.0236  8190.28  88.9294
 41.0656  8115.31  89.0683
 41.1076  8191.11  89.2484
 41.1496  8162.58  89.0024
 41.1916  8073.72  88.8421
 41.2336  8017.63  88.5156
 41.2756  8057.29  88.3428
 41.3176  8030.78  88.8133
 41.3596  8155.35  89.2288
 41.4016  8073.45  89.0323
 41.4436  8142.57  89.2038
 41.4856  8109.84  89.19
 41.5276  8069.61  88.9865
 41.5696  8079.16  88.6706
 41.6116  8069.95  89.0154
 41.6536  8008.89  88.537
 41.6956  8021.76  88.6598
 41.7376  7985.96  88.4961
 41.7796  7977.49  88.3297
 41.8216  8085.97  89.1634
 41.8636  8052.62  88.9198
 41.9056  7838.33  87.5189
 41.9476  8114.9  89.2815
 41.9896  8056.84  88.6276
 42.0316  8160.85  89.2873
 42.0736  7984.11  88.4196
 42.1156  7929.42  87.9571
 42.1576  8002.96  88.4644
 42.1996  8026.03  88.7355
 42.2416  8079.95  88.518
 42.2836  7918.56  87.8316
 42.3256  7847.79  87.554
 42.3676  8009.15  88.2466
 42.4096  8010.02  88.2186
 42.4516  7899.65  87.7574
 42.4936  7933.42  87.9544
 42.5356  8008.19  88.5046
 42.5776  7923.71  87.9741
 42.6196  8006.23  88.4887
 42.6616  7816.37  87.6028
 42.7036  7906.78  87.487
 42.7456  7975.36  88.2221
 42.7876  7910.7  87.9681
 42.8296  7921.46  87.8569
 42.8716  7810.48  87.4023
 42.9136  7895.73  87.664
 42.9556  7974.58  88.2282
 42.9976  8058.85  88.6643
 43.0396  7799.46  86.9568
 43.0816  7817.33  87.4342
 43.1236  7909.28  88.0062
 43.1656  7878.45  87.663
 43.2076  7782.37  87.2257
 43.2496  7867.2  87.5167
 43.2916  7808.12  87.5575
 43.3336  7861.38  87.6875
 43.3756  7878.14  87.5356
 43.4176  7792.63  87.1425
 43.4596  7795.76  87.017
 43.5016  7772.49  87.294
 43.5436  7829.14  87.5128
 43.5856  7783.74  87.279
 43.6276  7797.69  87.2515
 43.6696  7833.79  87.6666
 43.7116  7798.73  87.0132
 43.7536  7816.76  87.6073
 43.7956  7655.96  87.878
 43.8376  7789.08  87.1865
 43.8796  7700.34  86.7693
 43.9216  7734.53  86.8784
 43.9636  7759.41  87.1279
 44.0056  7685.66  86.946
 44.0476  7716.98  86.8698
 44.0896  7692.19  86.9559
 44.1316  7818.78  87.1861
 44.1736  7738.49  86.8535
 44.2156  7685.67  86.4205
 44.2576  7705.46  86.8586
 44.2996  7639.91  86.4565
 44.3416  7821.05  87.2363
 44.3836  7437.88  85.3995
 44.4256  7599.54  85.9631
 44.4676  7590.38  86.0678
 44.5096  7678.8  86.709
 44.5516  7632.48  86.4084
 44.5936  7510.39  85.6711
 44.6356  7720.88  86.5991
 44.6776  7677.04  86.6761
 44.7196  7593.57  86.5118
 44.7616  7552.31  87.601
 44.8036  7547.06  85.9905
 44.8456  7708.88  87.1162
 44.8876  7612.03  86.5149
 44.9296  7669.03  86.1869
 44.9716  7519.32  85.7637
 45.0136  7499.24  85.5942
 45.0556  7643.23  86.3807
 45.0976  7490.21  85.6838
 45.1396  7514.17  85.5633
 45.1816  7525.75  85.5727
 45.2236  7450.38  85.0398
 45.2656  7422.39  85.3882
 45.3076  7409.72  85.0945
 45.3496  7504.23  85.944
 45.3916  7541.64  86.4249
 45.4336  7481.29  85.921
 45.4756  7525.23  86.035
 45.5176  7448.18  85.2036
 45.5596  7538.96  85.8445
 45.6016  7381.5  85.3628
 45.6436  7554.5  85.5336
 45.6856  7340.68  84.9672
 45.7276  7336.99  86.2498
 45.7696  7360.52  86.0619
 45.8116  7367.49  85.5399
 45.8536  7342.72  85.2916
 45.8956  7454.96  85.2937
 45.9376  7486.96  84.9394
 45.9796  7356.15  84.873
 46.0216  7443.26  85.7184
 46.0636  7495.5  85.1604
 46.1056  7402.18  84.6146
 46.1476  7390.53  85.1401
 46.1896  7477.21  85.788
 46.2316  7307.78  84.68
 46.2736  7441.38  85.8219
 46.3156  7395.12  85.14
 46.3576  7382.71  85.2712
 46.3996  7292.48  84.9083
 46.4416  7425.73  85.2568
 46.4836  7296.04  84.8624
 46.5256  7457.13  85.7304
 46.5676  7279.04  84.8156
 46.6096  7320.18  84.9953
 46.6516  7471.65  84.8988
 46.6936  7398.54  84.9747
 46.7356  7417.15  85.1861
 46.7776  7174.25  84.6849
 46.8196  7314.02  85.0313
 46.8616  7162.74  84.0966
 46.9036  7180.1  83.8614
 46.9456  7201.21  83.6247
 46.9876  7294.2  84.2493
 47.0296  7257.51  84.6329
 47.0716  7216.55  84.3059
 47.1136  7263.69  84.2514
 47.1556  7256.88  84.0913
 47.1976  7288.81  84.357
 47.2396  7213.91  84.3087
 47.2816  7149.97  83.6441
 47.3236  7171.19  84.1315
 47.3656  7249.07  84.5172
 47.4076  7120.88  83.5755
 47.4496  7177.16  84.0009
 47.4916  7184.06  84.2286
 47.5336  7242.22  84.3865
 47.5756  7243.69  84.5117
 47.6176  7166.96  83.9662
 47.6596  7182.21  83.7628
 47.7016  7296.85  84.2498
 47.7436  7268.47  84.4192
 47.7856  7210.06  84.1058
 47.8276  7146.23  83.7765
 47.8696  7098.79  83.5858
 47.9116  7220.9  84.0205
 47.9536  7202.32  83.8521
 47.9956  6990.67  83.3091
 48.0376  7189.39  84.256
 48.0796  7087.26  83.7871
 48.1216  7323.54  84.9875
 48.1636  7249.16  84.1286
 48.2056  7213.27  84.1845
 48.2476  7162.5  84.1816
 48.2896  7188.02  84.2537
 48.3316  7109.77  83.7384
 48.3736  7039.86  83.3519
 48.4156  7085.89  83.5823
 48.4576  7058.08  83.6
 48.4996  7179.77  83.7741
 48.5416  7125.12  83.7753
 48.5836  7027.57  82.8796
 48.6256  7097.72  83.4955
 48.6676  7086.59  83.9454
 48.7096  7109.92  83.3584
 48.7516  7009  82.9088
 48.7936  7012.39  83.0906
 48.8356  6950.8  82.6764
 48.8776  6974.56  83.383
 48.9196  7227.5  84.2435
 48.9616  7008.73  83.3384
 49.0036  7116.29  84.3211
 49.0456  6964.72  83.4007
 49.0876  6975.41  83.0102
 49.1296  6941.01  82.9616
 49.1716  6829.25  82.3837
 49.2136  7056.71  83.4511
 49.2556  7011.95  83.222
 49.2976  6957.08  82.9538
 49.3396  6820.06  82.197
 49.3816  6991.7  82.8017
 49.4236  7060.35  83.4849
 49.4656  6868.7  82.3614
 49.5076  6965.9  82.6922
 49.5496  7014.47  83.0473
 49.5916  7003.74  82.8892
 49.6336  7068.16  83.475
 49.6756  6961.94  83.0796
 49.7176  6839.67  82.2922
 49.7596  6979.87  82.8985
 49.8016  7049.18  83.2204
 49.8436  6954.38  82.9622
 49.8856  6870.46  82.4681
 49.9276  6842.44  82.392
 49.9696  6995.44  83.2991
 50.0116  6951.44  83.1638
 50.0536  6893.33  82.7645
 50.0956  6852.33  82.587
 50.1376  6839.62  82.2146
 50.1796  6798.42  82.2324
 50.2216  6833.16  82.4315
 50.2636  6847.11  82.1446
 50.3056  6761.52  81.7981
 50.3476  6817.32  82.1581
 50.3896  6769.23  81.832
 50.4316  6839.81  82.1012
 50.4736  6859.77  82.4389
 50.5156  6847.16  82.3537
 50.5576  6884.25  82.3368
 50.5996  6774.36  81.9528
 50.6416  6644.32  81.0946
 50.6836  6739.41  81.7259
 50.7256  6864.67  82.4127
 50.7676  6820.95  82.4572
 50.8096  6806.6  81.9172
 50.8516  6805.24  82.3263
 50.8936  6692.71  81.4275
 50.9356  6892.63  82.74
 50.9776  6835.44  82.5439
 51.0196  6709.02  81.9068
 51.0616  6743.28  81.4479
 51.1036  6812.07  82.2174
 51.1456  6731.31  81.6416
 51.1876  6681.65  80.6885
 51.2296  6838.31  82.27
 51.2716  6676.16  80.9932
 51.3136  6659.6  81.3451
 51.3556  6695.26  81.1895
 51.3976  6608.47  80.8134
 51.4396  6521.73  80.5779
 51.4816  6605.73  80.949
 51.5236  6658.81  81.3534
 51.5656  6716.04  81.316
 51.6076  6779.1  81.7793
 51.6496  6738.09  81.7211
 51.6916  6710.67  81.912
 51.7336  6658.95  81.6868
 51.7756  6752.78  81.9589
 51.8176  6610.41  81.196
 51.8596  6695.7  81.729
 51.9016  6820.64  82.0955
 51.9436  6635.24  82.4125
 51.9856  6567.01  82.4308
 52.0276  6606.03  81.1865
 52.0696  6554.85  80.9304
 52.1116  6658.87  81.6965
 52.1536  6694.58  81.7931
 52.1956  6659.38  81.0537
 52.2376  6730.21  81.6313
 52.2796  6736.19  81.5007
 52.3216  6519.34  80.8604
 52.3636  6534.41  80.535
 52.4056  6564.67  80.5678
 52.4476  6567.14  80.9558
 52.4896  6560.8  80.9716
 52.5316  6565.84  81.0454
 52.5736  6582.7  80.8812
 52.6156  6503.29  80.755
 52.6576  6622.6  80.9449
 52.6996  6350.66  80.2116
 52.7416  6565.33  81.4883
 52.7836  6559.92  81.258
 52.8256  6599.59  80.741
 52.8676  6420.99  80.2147
 52.9096  6553.65  81.116
 52.9516  6577.73  81.6402
 52.9936  6453.93  81.2505
 53.0356  6430.85  80.1164
 53.0776  6414.08  80.2707
 53.1196  6463.42  80.7058
 53.1616  6268.07  79.5242
 53.2036  6335.64  79.9029
 53.2456  6422.42  80.5465
 53.2876  6360.31  79.8711
 53.3296  6350.37  80.1319
 53.3716  6422.01  80.3303
 53.4136  6314.15  79.8008
 53.4556  6291.46  79.682
 53.4976  6332.2  79.7925
 53.5396  6375.96  80.46
 53.5816  6319.84  79.7404
 53.6236  6299.58  79.9532
 53.6656  6342.45  79.8537
 53.7076  6382.41  80.0612
 53.7496  6392.46  80.2485
 53.7916  6544.68  81.3277
 53.8336  6318.88  79.8097
 53.8756  6231.81  79.8034
 53.9176  6303.21  79.6104
 53.9596  6458.58  81.3538
 54.0016  6363.16  80.0876
 54.0436  6349.93  80.2137
 54.0856  6458.04  80.3231
 54.1276  6331.99  79.7285
 54.1696  6320.99  79.8322
 54.2116  6223.34  78.9725
 54.2536  6314.98  79.3688
 54.2956  6383.31  79.8426
 54.3376  6245.86  79.4567
 54.3796  6412.59  80.4116
 54.4216  6508.43  80.8894
 54.4636  6379.02  80.2098
 54.5056  6343.79  79.8094
 54.5476  6202.66  79.2454
 54.5896  6358.37  80.0679
 54.6316  6311.92  79.6324
 54.6736  6362.86  80.0283
 54.7156  6341.71  79.9148
 54.7576  6195.75  78.9884
 54.7996  6366.12  80.2004
 54.8416  6341.13  80.0923
 54.8836  6284.13  79.8402
 54.9256  6309.09  79.7536
 54.9676  6375.69  80.03
 55.0096  6321.85  79.7611
 55.0516  6357.9  80.2238
 55.0936  6326.25  79.6438
 55.1356  6270.18  79.3425
 55.1776  6325.07  79.9528
 55.2196  6301.36  79.5869
 55.2616  6236.82  79.3897
 55.3036  6284.35  79.8546
 55.3456  6305.31  80.1352
 55.3876  6257.75  79.5762
 55.4296  6317.07  79.9305
 55.4716  6278.34  79.7199
 55.5136  6301.88  79.6257
 55.5556  6309.25  79.7422
 55.5976  6276.96  79.5916
 55.6396  6196.84  79.0289
 55.6816  6166.47  78.7199
 55.7236  6345.29  79.8921
 55.7656  6346.65  79.6596
 55.8076  6352.78  79.6822
 55.8496  6301.18  79.6778
 55.8916  6182.47  79.1274
 55.9336  6284.64  79.583
 55.9756  6236.3  79.1768
 56.0176  6255.65  79.4528
 56.0596  6223.85  79.2374
 56.1016  6349.23  80.0421
 56.1436  6338.2  80.2371
 56.1856  6197.73  79.084
 56.2276  6268.86  79.5936
 56.2696  6214.51  79.2195
 56.3116  6196.14  79.4985
 56.3536  6215.32  79.2862
 56.3956  6174.29  79.0145
 56.4376  6221.57  79.3487
 56.4796  6199.66  79.0103
 56.5216  6239.72  79.6332
 56.5636  6264.01  79.3853
 56.6056  6174.64  79.0446
 56.6476  6232.88  79.045
 56.6896  6266.63  79.707
 56.7316  6199.92  79.1877
 56.7736  6276.55  79.6531
 56.8156  6246.87  79.4888
 56.8576  6189.25  79.0662
 56.8996  6222.73  79.217
 56.9416  6219.09  79.4946
 56.9836  6138.9  78.4905
 57.0256  6168.93  79.0064
 57.0676  6218.05  79.4341
 57.1096  6270.1  79.5648
 57.1516  6192.67  79.1327
 57.1936  6256  79.2826
 57.2356  6206.58  79.2866
 57.2776  6225.92  79.3677
 57.3196  6126.09  79.1017
 57.3616  6183.56  78.9617
 57.4036  6246.07  79.419
 57.4456  6189.38  79.0256
 57.4876  6234.82  79.1745
 57.5296  6159.75  79.0363
 57.5716  6187.08  79.2033
 57.6136  6188.1  79.0225
 57.6556  6218.59  79.3577
 57.6976  6315.28  79.7869
 57.7396  6138.47  79.0368
 57.7816  6205.17  79.8351
 57.8236  6184.61  79.5383
 57.8656  6169.54  79.0524
 57.9076  6245.79  79.5661
 57.9496  6220.05  79.7522
 57.9916  6159.43  78.8813
 58.0336  6150.61  79.0994
 58.0756  6175.37  78.8975
 58.1176  6148.04  78.7164
 58.1596  6141.05  79.243
 58.2016  6301.86  79.4854
 58.2436  6173.37  79.0844
 58.2856  6185.96  79.0864
 58.3276  6220.65  79.6835
 58.3696  6137.22  78.8901
 58.4116  6120.47  78.6511
 58.4536  6157.33  78.7662
 58.4956  6159.22  78.9691
 58.5376  6350.14  79.7401
 58.5796  6266.68  79.651
 58.6216  6186.53  78.9502
 58.6636  6241.62  79.5184
 58.7056  6146.46  78.7676
 58.7476  6095.05  78.8843
 58.7896  6123.46  78.7104
 58.8316  6121.62  78.693
 58.8736  6204.77  79.2328
 58.9156  6148.3  78.9153
 58.9576  6260.73  79.9594
 58.9996  6311.86  79.512
 59.0416  6358.82  80.1851
 59.0836  6295.18  79.7085
 59.1256  6064.87  78.9353
 59.1676  6181.23  80.0012
 59.2096  6272.14  79.8844
 59.2516  6284.09  79.5331
 59.2936  6158.63  79.0665
 59.3356  6189.77  79.1423
 59.3776  6207.38  79.4261
 59.4196  6182.2  79.1978
 59.4616  6237.86  79.4135
 59.5036  6204.1  79.2332
 59.5456  6383  80.0532
 59.5876  6204.1  79.117
 59.6296  6213.88  79.2496
 59.6716  6136.51  78.8131
 59.7136  6248.05  79.5142
 59.7556  6297.2  79.9657
 59.7976  6241.72  79.3505
 59.8396  6277.55  79.4702
 59.8816  6301.83  80.1811
 59.9236  6343.17  80.0782
 59.9656  6098.1  78.7782
 60.0076  6384.67  79.947
 60.0496  6117.02  78.2783
 60.0916  6240.34  78.9589
 60.1336  6189.73  79.7591
 60.1756  6124.86  80.5327
 60.1996  6304.68  83.9915