File: docs/examples/opeando_xrd/IS17_D/Data/IS17_D/17_Db_f00105.xye
# /beamlines/bl04/projects/cycle2025-II/20250340211-lsimonelli/DATA/IS17_D/17_Db_f00105.xye : mythproc.py merge -s 0.006 -l 0.5 -f /beamlines/bl04/inhouse/ff/FlatField/ff_20Nov2024rod8mm60s_17keV.raw -b True -c true -o xye /beamlines/bl04/projects/cycle2025-II/20250340211-lsimonelli/DATA/IS17_D/17_Db_00105.dat
# IsMon = [6762642, 6787092, 6787123]  IsPos = [-1.4999, -2.4884, -3.4988]
# Wave = 0.4962  CalPath /beamlines/bl04/projects/cycle2025-II/20250340211-lsimonelli/DATA/Align/Si_Pos1_25keV_f00001.cal
# Date = 2025-09-24_22:57:05 Dt = 4.8000  Bin = 0.0060  <imon> = 6778952 +/- 11533 (Min/Max) 6762642 / 6787123
# icurr 252.0890  mocoIn 1.7198E-05  mocoOut 0.8065  i15 7.10544e+06  imon 6.77895e+06  i7 5.0000  iEMpd_timer 4.8000  iEMpd_1 3.4043E-08  iEMpd_2 7.6612E-08  iEMpd_3 1.6956E-08  iEMpd_4 4.5680E-08  iEMhp_timer 4.8000  iEMhp_1 4.9335E-06  iEMhp_2 -2.5213E-08  iEMhp_3 -2.4959E-08  iEMhp_4 -2.1159E-08
#      9776
 1.5856  44691.1  217.339
 1.6276  51645.7  229.629
 1.6696  57542.5  241.529
 1.7116  64367.4  255.951
 1.7536  73124.4  271.644
 1.7956  77056.2  279.549
 1.8376  73791.5  273.996
 1.8796  63519.3  252.339
 1.9216  52360  230.018
 1.9636  45563.7  213.692
 2.0056  41643.2  203.499
 2.0476  38831.9  198.665
 2.0896  38093.9  195.614
 2.1316  36822.6  191.398
 2.1736  34919  187.863
 2.2156  36044  189.334
 2.2576  34444  185.747
 2.2996  33380.7  183.529
 2.3416  33583.5  182.617
 2.3836  33249.6  181.818
 2.4256  32138.3  179.336
 2.4676  31667.7  177.766
 2.5096  31354.2  176.942
 2.5516  30219.1  177.534
 2.5936  30039  173.458
 2.6356  29895.4  173.773
 2.6776  29694.7  172.039
 2.7196  29334.9  171.513
 2.7616  29106.7  170.625
 2.8036  28773.7  169.813
 2.8456  28764.6  170.455
 2.8876  28116  168.325
 2.9296  27759.6  167.442
 2.9716  27170.2  165.129
 3.0136  27199.2  165.286
 3.0556  27406.6  166.322
 3.0976  27232.2  164.704
 3.1396  26669.5  163.696
 3.1816  26519.5  163.175
 3.2236  26160.2  162.064
 3.2656  25729.6  159.695
 3.3076  25727.9  161.246
 3.3496  25826.8  160.404
 3.3916  26378.3  161.974
 3.4336  26396.2  162.631
 3.4756  26725.1  163.621
 3.5176  27496.2  165.681
 3.5596  27240.8  167.419
 3.6016  27137.7  164.619
 3.6436  26256.3  163.027
 3.6856  25876  160.136
 3.7276  24934.6  158.268
 3.7696  24600.1  157.399
 3.8116  24387.7  156.64
 3.8536  24441.8  156.759
 3.8956  24375.5  156.341
 3.9376  24215.1  156.099
 3.9796  24151.3  155.377
 4.0216  24047.6  154.037
 4.0636  24051.7  155.57
 4.1056  24092.6  155.325
 4.1476  24281.2  156.316
 4.1896  24320.2  156.253
 4.2316  24575.3  156.909
 4.2736  24883.1  157.668
 4.3156  25038.6  158.372
 4.3576  25960  161.18
 4.3996  26085.3  161.829
 4.4416  26430.1  162.495
 4.4836  26927.5  164.157
 4.5256  27548.2  166.73
 4.5676  27403.9  166.502
 4.6096  27919.2  166.738
 4.6516  28528.4  168.203
 4.6936  28475.8  168.859
 4.7356  28715.8  169.417
 4.7776  28448.2  168.41
 4.8196  28688.3  169.87
 4.8616  27748.8  166.475
 4.9036  27531.4  165.624
 4.9456  27443.2  165.979
 4.9876  26629.9  163.399
 5.0296  27205.3  164.987
 5.0716  26973.4  165.026
 5.1136  27048.3  164.993
 5.1556  27214.4  164.913
 5.1976  27879.1  166.997
 5.2396  27818.3  166.456
 5.2816  27828  167.009
 5.3236  27950.1  167.019
 5.3656  27388.6  166.273
 5.4076  27150.8  165.683
 5.4496  27041.9  164.811
 5.4916  27135.6  164.887
 5.5336  27185.4  165.007
 5.5756  27270.2  165.366
 5.6176  27280.9  164.786
 5.6596  27600.4  166.794
 5.7016  27675.2  166.225
 5.7436  27714.1  166.623
 5.7856  27503.1  166.055
 5.8276  27636.4  166.129
 5.8696  27978.2  167.366
 5.9116  28123.6  168.406
 5.9536  28073  168.052
 5.9956  28535.6  168.76
 6.0376  28448.2  169.126
 6.0796  28698.9  169.7
 6.1216  28539.5  169.391
 6.1636  28948.1  169.684
 6.2056  28700.1  169.6
 6.2476  29057.2  170.561
 6.2896  29423.5  171.304
 6.3316  29337.3  171.281
 6.3736  29284.8  170.969
 6.4156  29401  171.242
 6.4576  29345  170.648
 6.4996  29592.5  171.804
 6.5416  29831.5  172.665
 6.5836  29602.1  172.205
 6.6256  29799.6  172.371
 6.6676  30353  173.529
 6.7096  30471  174.786
 6.7516  30814.9  175.373
 6.7936  30753.6  174.616
 6.8356  31014.6  175.433
 6.8776  31102.8  176.451
 6.9196  31331.2  177.542
 6.9616  31611.4  177.747
 7.0036  32136.1  178.888
 7.0456  32089.7  178.06
 7.0876  31872.2  179.147
 7.1296  32055.3  178.788
 7.1716  31919.5  177.971
 7.2136  31894.1  177.651
 7.2556  31947.4  177.959
 7.2976  31858.9  178.211
 7.3396  31729.2  178.043
 7.3816  31808.7  178.508
 7.4236  31945  178.183
 7.4656  32285.9  178.596
 7.5076  32615.6  179.654
 7.5496  32180.4  178.959
 7.5916  32229.3  179.169
 7.6336  32889.9  180.882
 7.6756  32944.1  180.874
 7.7176  33544.2  182.868
 7.7596  33068.2  182.778
 7.8016  33756  186.967
 7.8436  33419.6  182.519
 7.8856  33599.5  182.614
 7.9276  34204  184.653
 7.9696  34481.3  185.709
 8.0116  35425.1  186.779
 8.0536  35531  187.305
 8.0956  35466.4  188.313
 8.1376  35817.9  188.717
 8.1796  35994.1  189.716
 8.2216  37069.2  191.269
 8.2636  36745.1  190.68
 8.3056  36872.1  191.776
 8.3476  37453  192.607
 8.3896  37361.3  192.451
 8.4316  37246.5  192.323
 8.4736  37349.6  192.06
 8.5156  37017  191.477
 8.5576  36800  191.881
 8.5996  36794.9  190.747
 8.6416  36556.8  191.381
 8.6836  36324.7  190.606
 8.7256  37123.9  192.136
 8.7676  36890.8  194.539
 8.8096  37108.2  192.495
 8.8516  37047.2  191.912
 8.8936  36472.6  190.36
 8.9356  36820.2  191.659
 8.9776  36601  191.113
 9.0196  36657.7  190.987
 9.0616  36486.1  189.983
 9.1036  35983.9  189.836
 9.1456  35890.3  188.87
 9.1876  35858.8  188.78
 9.2296  35757.5  187.898
 9.2716  35389.5  187.022
 9.3136  35623.7  187.637
 9.3556  35581.7  187.51
 9.3976  34459.7  185.097
 9.4396  34801.6  185.86
 9.4816  34597.3  185.222
 9.5236  34195.7  183.988
 9.5656  34036.4  183.913
 9.6076  33231.6  182.198
 9.6496  33572.2  183.051
 9.6916  33376.6  182.435
 9.7336  33689.2  183.132
 9.7756  33269.8  183.154
 9.8176  33262.6  182.724
 9.8596  33153  180.875
 9.9016  32352.1  178.658
 9.9436  32232.4  178.243
 9.9856  32074.7  178.08
 10.0276  31643.2  177.951
 10.0696  31791.9  177.409
 10.1116  31299.1  176.293
 10.1536  31003.8  175.61
 10.1956  30525.5  173.868
 10.2376  30513.1  173.395
 10.2796  30246.3  172.685
 10.3216  30076.1  172.491
 10.3636  29715.8  171.475
 10.4056  29003.6  169.762
 10.4476  28995.4  169.398
 10.4896  29205  169.464
 10.5316  28806.7  169.03
 10.5736  28512.2  168.569
 10.6156  28562.9  168.526
 10.6576  28425.1  166.641
 10.6996  27773.7  165.419
 10.7416  27534.6  164.915
 10.7836  27160.1  164.378
 10.8256  26801.8  163.739
 10.8676  26996  163.852
 10.9096  26734.8  163.134
 10.9516  26494.6  161.327
 10.9936  26578.3  161.816
 11.0356  26353.2  161.711
 11.0776  26338.5  161.008
 11.1196  25929  160.506
 11.1616  25571.4  159.048
 11.2036  25828.2  159.721
 11.2456  25522.1  159.447
 11.2876  25895.1  160.404
 11.3296  25254.2  158.274
 11.3716  25492  158.728
 11.4136  25429.4  159.389
 11.4556  25211.7  158.338
 11.4976  25655.7  158.762
 11.5396  25847.9  159.498
 11.5816  26665.9  162.469
 11.6236  26941.4  163.519
 11.6656  27172  163.424
 11.7076  26133.9  161.067
 11.7496  25523.4  163.205
 11.7916  25347.9  157.874
 11.8336  24774.8  156.951
 11.8756  24574.7  155.89
 11.9176  24574.1  155.537
 11.9596  24757.6  156.362
 12.0016  24243.3  155.443
 12.0436  24481.3  155.703
 12.0856  24139.2  155.067
 12.1276  23962.2  154.448
 12.1696  24063.7  153.883
 12.2116  24080.2  153.91
 12.2536  23848.8  154.018
 12.2956  23752.1  153.013
 12.3376  23943.5  153.923
 12.3796  23977.9  154.464
 12.4216  23710.9  152.802
 12.4636  23628.8  153.467
 12.5056  23652.8  152.818
 12.5476  23874.9  153.046
 12.5896  23631.9  152.87
 12.6316  23998.9  154.286
 12.6736  23587.3  153.402
 12.7156  23750.3  153.81
 12.7576  23622.8  153.616
 12.7996  23791.7  152.798
 12.8416  23526.4  152.996
 12.8836  23771.3  153.583
 12.9256  24288.9  154.312
 12.9676  24100.7  154.082
 13.0096  24185.9  155.552
 13.0516  24189.8  154.539
 13.0936  24588.7  156.277
 13.1356  24832.5  155.96
 13.1776  24453  155.782
 13.2196  24606.1  155.906
 13.2616  24436.8  155.651
 13.3036  24737.4  156.603
 13.3456  24398.7  155.841
 13.3876  24692.7  156.135
 13.4296  24555.1  155.823
 13.4716  24586.3  155.543
 13.5136  24432.2  155.196
 13.5556  24433.1  155.793
 13.5976  24613.5  156.561
 13.6396  24494.5  155.503
 13.6816  24526.3  156.104
 13.7236  25072.5  157.435
 13.7656  26393.4  162.018
 13.8076  27064.5  162.673
 13.8496  26761.5  162.499
 13.8916  24603.9  156.876
 13.9336  24289.3  155.103
 13.9756  24248.8  154.387
 14.0176  23929.1  154.01
 14.0596  23937.6  154.007
 14.1016  23780.9  153.922
 14.1436  23840  153.286
 14.1856  23205.1  151.485
 14.2276  23285.5  152.27
 14.2696  23470.9  152.682
 14.3116  22695.3  150.009
 14.3536  22709.4  150.256
 14.3956  22377.8  148.861
 14.4376  22685.7  149.691
 14.4796  22611.2  149.442
 14.5216  22314.5  149.247
 14.5636  22151.4  148.274
 14.6056  22211  148.045
 14.6476  22194.7  147.218
 14.6896  21731.1  146.214
 14.7316  21328.2  145.891
 14.7736  21202.3  144.577
 14.8156  21139.9  144.4
 14.8576  21104.1  144.142
 14.8996  20695.5  143.927
 14.9416  20513.6  143.314
 14.9836  20348.6  142.703
 15.0256  19599.5  138.91
 15.0676  19789.8  139.893
 15.1096  19635.8  139.088
 15.1516  19276.4  138.354
 15.1936  19343.1  138.033
 15.2356  18954.1  136.913
 15.2776  19012.4  136.715
 15.3196  18662.4  136.434
 15.3616  18510.8  135.639
 15.4036  18584.9  135.78
 15.4456  18540.2  135.262
 15.4876  18468  134.686
 15.5296  18361.2  134.581
 15.5716  18034.9  132.984
 15.6136  17953  133.01
 15.6556  17976.1  132.34
 15.6976  17938.2  132.491
 15.7396  17567.3  131.496
 15.7816  17572.8  131.037
 15.8236  17314  130.751
 15.8656  17453  131.072
 15.9076  17227.3  130.046
 15.9496  17868.6  135.38
 15.9916  17670.6  134.989
 16.0336  17828.7  132.535
 16.0756  17703.3  132.338
 16.1176  17484.3  131.606
 16.1596  17017.4  131.011
 16.2016  16909.8  129.321
 16.2436  16938.5  129.844
 16.2856  16989.8  129.571
 16.3276  16534.5  128.251
 16.3696  16906  129.502
 16.4116  16705.8  129.163
 16.4536  16822.5  129.441
 16.4956  16924.8  129.594
 16.5376  16555.9  128.335
 16.5796  16339.8  126.86
 16.6216  16468.5  127.616
 16.6636  16120.2  126.424
 16.7056  16358.9  127.25
 16.7476  16499.7  127.325
 16.7896  16327.3  127.405
 16.8316  16409.2  127.7
 16.8736  16532.3  128.472
 16.9156  16362.2  128.1
 16.9576  16110  127.867
 16.9996  16100  128.285
 17.0416  16442.6  128.023
 17.0836  16474.1  127.943
 17.1256  16309.4  127.308
 17.1676  16306.3  127.262
 17.2096  16312  127.176
 17.2516  16167.5  126.4
 17.2936  15948.3  125.889
 17.3356  15950.5  125.92
 17.3776  15782.2  125.404
 17.4196  15617.9  124.414
 17.4616  15702.3  124.696
 17.5036  15217.5  123.075
 17.5456  15158.2  123.507
 17.5876  15260.6  122.975
 17.6296  15233.4  122.692
 17.6716  15037  122.474
 17.7136  15023.8  122.585
 17.7556  15003.2  122.764
 17.7976  15017.9  122.559
 17.8396  14718  120.83
 17.8816  14744.1  121.466
 17.9236  14799.2  121.521
 17.9656  14575.2  121.07
 18.0076  14534.2  120.52
 18.0496  14530.3  119.626
 18.0916  14498.7  120.059
 18.1336  14439.1  119.895
 18.1756  14438.3  119.441
 18.2176  14231.5  118.796
 18.2596  14250.5  118.59
 18.3016  14404.5  119.505
 18.3436  14316.1  119.121
 18.3856  14223.7  118.919
 18.4276  14140.9  118.232
 18.4696  14229.9  118.695
 18.5116  14178  118.745
 18.5536  14196.9  119.161
 18.5956  14074.1  118.228
 18.6376  13867.3  117.733
 18.6796  14046.6  117.828
 18.7216  13966.6  117.963
 18.7636  13912.9  117.794
 18.8056  13744.2  116.97
 18.8476  13651.5  117.172
 18.8896  13909.6  117.63
 18.9316  13953.2  117.786
 18.9736  13896.3  117.266
 19.0156  13848.4  117.455
 19.0576  13986  116.942
 19.0996  13891.9  117.221
 19.1416  13923.8  117.783
 19.1836  13754.8  116.642
 19.2256  13587.4  116.149
 19.2676  13859  117.384
 19.3096  13692.6  116.901
 19.3516  13754.1  117.148
 19.3936  13675.8  116.688
 19.4356  14000.2  118.001
 19.4776  13655.8  116.594
 19.5196  13785.5  117.004
 19.5616  13696.2  116.877
 19.6036  13672.5  116.262
 19.6456  13713.2  116.564
 19.6876  13648.4  115.903
 19.7296  13941.6  117.666
 19.7716  13584.3  116.269
 19.8136  13815.1  117.497
 19.8556  14038  117.891
 19.8976  13919.2  117.447
 19.9396  13857.7  116.788
 19.9816  13846.6  116.958
 20.0236  14088.6  118.192
 20.0656  14269.1  118.922
 20.1076  14753.1  121.471
 20.1496  14779  121.531
 20.1916  15117.9  122.46
 20.2336  14982.2  121.795
 20.2756  14455.9  120.076
 20.3176  14204.1  118.768
 20.3596  13924.2  117.555
 20.4016  13768.2  116.718
 20.4436  13615.2  116.601
 20.4856  13605.3  116.414
 20.5276  13499.3  116.392
 20.5696  13658.2  116.544
 20.6116  13401.2  115.691
 20.6536  13337.3  114.931
 20.6956  13267.2  114.757
 20.7376  13113.1  114.278
 20.7796  13256.5  114.615
 20.8216  13347.1  114.719
 20.8636  13202.1  114.502
 20.9056  13125.4  114.073
 20.9476  13167  114.134
 20.9896  13271.5  114.41
 21.0316  13078.2  113.453
 21.0736  13091.6  114.059
 21.1156  12903.9  113.367
 21.1576  13137  114.451
 21.1996  13064.4  114.126
 21.2416  13059.9  113.949
 21.2836  13002.8  113.651
 21.3256  12967.2  113.61
 21.3676  13014.7  113.32
 21.4096  12901.8  113.148
 21.4516  12665.7  111.976
 21.4936  12579.8  111.843
 21.5356  12808.8  112.823
 21.5776  12764.2  112.461
 21.6196  12607.5  111.801
 21.6616  12690.1  112.255
 21.7036  12842  112.705
 21.7456  12786.1  112.527
 21.7876  12685.5  111.848
 21.8296  12757.3  112.011
 21.8716  12808.1  112.475
 21.9136  12919.7  113.152
 21.9556  12676.3  111.755
 21.9976  12669.3  111.754
 22.0396  12544.2  111.451
 22.0816  12579.7  112.121
 22.1236  12668.5  111.996
 22.1656  12704.4  112.274
 22.2076  12408.9  110.379
 22.2496  12358.3  110.179
 22.2916  12363.1  110.085
 22.3336  12278.8  110.423
 22.3756  12275.8  110.135
 22.4176  12329.5  110.227
 22.4596  12055  109.574
 22.5016  12243  109.931
 22.5436  12559.1  111.221
 22.5856  12463.4  111.04
 22.6276  12682.4  112.144
 22.6696  12328.5  110.925
 22.7116  12518  111.281
 22.7536  12503.3  111.19
 22.7956  12458.1  110.329
 22.8376  12293.9  110.117
 22.8796  12362.7  110.225
 22.9216  12278.7  110.39
 22.9636  12124.9  108.86
 23.0056  12222.5  109.428
 23.0476  12252.4  110.131
 23.0896  12579.2  110.97
 23.1316  12399.1  110.605
 23.1736  12476.4  113.929
 23.2156  12473.8  111.323
 23.2576  12720.7  112.625
 23.2996  12724.8  112.35
 23.3416  12933.1  113.869
 23.3836  12825.6  112.587
 23.4256  12927.1  113.188
 23.4676  12746.2  112.049
 23.5096  12636  112.217
 23.5516  12601.9  111.371
 23.5936  12606  112.3
 23.6356  12777.5  112.722
 23.6776  12515.1  111.742
 23.7196  12385.5  110.771
 23.7616  12571  111.483
 23.8036  12691.1  112.131
 23.8456  12390.2  110.284
 23.8876  12517.3  111.274
 23.9296  12349.3  110.978
 23.9716  12400  110.409
 24.0136  12615.3  112.276
 24.0556  12254.6  110.366
 24.0976  12181.2  109.855
 24.1396  12197.2  112.542
 24.1816  12265.9  111.29
 24.2236  12422.3  111.601
 24.2656  12169.7  109.944
 24.3076  12122.3  110
 24.3496  11963.2  109.124
 24.3916  12140.7  110.016
 24.4336  11939.3  109.302
 24.4756  11955.2  109.257
 24.5176  11900.8  108.639
 24.5596  11785.4  108.23
 24.6016  11813.7  108.656
 24.6436  11843.3  108.329
 24.6856  11786.6  107.774
 24.7276  11706.6  107.711
 24.7696  11748.2  108.043
 24.8116  11594.4  107.471
 24.8536  11602.9  107.553
 24.8956  11534.9  106.968
 24.9376  11650.1  107.433
 24.9796  11174.3  105.575
 25.0216  11391.5  106.738
 25.0636  11431.2  106.548
 25.1056  11160.9  105.977
 25.1476  11284.1  108.166
 25.1896  11212.6  106.311
 25.2316  11127  105.186
 25.2736  11253.6  105.434
 25.3156  11218.8  105.37
 25.3576  11105.5  105.26
 25.3996  11080  105.139
 25.4416  11085.2  105.127
 25.4836  10862.6  104.571
 25.5256  11033.4  104.762
 25.5676  10974.5  104.199
 25.6096  10730.5  103.608
 25.6516  10909  103.96
 25.6936  11039.6  104.948
 25.7356  11023.4  104.972
 25.7776  10978.1  104.369
 25.8196  10809.4  103.784
 25.8616  10860.5  103.953
 25.9036  10840.7  103.331
 25.9456  10824.5  103.834
 25.9876  10758.9  103.6
 26.0296  10879.1  103.678
 26.0716  10839.5  103.958
 26.1136  10854  103.928
 26.1556  10963.4  103.824
 26.1976  10710.9  103.556
 26.2396  10655.2  102.431
 26.2816  10761.3  103.556
 26.3236  10722.7  103.502
 26.3656  10950.1  104.378
 26.4076  10851.8  104.079
 26.4496  11055.9  104.671
 26.4916  11001.5  104.285
 26.5336  11346.1  106.247
 26.5756  11566.6  107.155
 26.6176  11021.6  104.595
 26.6596  10893.7  104.311
 26.7016  10783.5  103.535
 26.7436  10821.9  103.894
 26.7856  10658.8  103.072
 26.8276  10646.9  102.977
 26.8696  10688.9  103.045
 26.9116  10560  102.355
 26.9536  10537.3  102.306
 26.9956  10403.7  101.664
 27.0376  10503.8  102.428
 27.0796  10464.6  101.921
 27.1216  10505.4  102.214
 27.1636  10283.4  101.275
 27.2056  10334.3  101.41
 27.2476  10364.1  101.542
 27.2896  10302.5  101.341
 27.3316  10399  101.553
 27.3736  10202  100.833
 27.4156  10328.2  101.339
 27.4576  10269.3  101.247
 27.4996  10354  101.297
 27.5416  10161.4  100.621
 27.5836  10138.4  100.353
 27.6256  10306.5  101.362
 27.6676  10207.1  100.831
 27.7096  10203.2  100.722
 27.7516  10171.1  100.686
 27.7936  10566.7  102.825
 27.8356  10240.5  100.808
 27.8776  10310.6  101.255
 27.9196  10097.3  100.03
 27.9616  10120.9  100.343
 28.0036  10013.2  99.7678
 28.0456  9881.47  99.2279
 28.0876  9942.07  99.6315
 28.1296  10027.7  99.8985
 28.1716  10052.1  100.073
 28.2136  10053.5  100.014
 28.2556  10044.3  100.112
 28.2976  9920.02  99.4553
 28.3396  9925.21  99.2261
 28.3816  9929.72  99.2694
 28.4236  9767  98.5855
 28.4656  9829.1  98.9635
 28.5076  9897.34  98.9356
 28.5496  9795.96  98.686
 28.5916  9802.77  98.5389
 28.6336  9850.36  99.1486
 28.6756  9862.91  98.3843
 28.7176  9759.69  98.4133
 28.7596  9759.27  98.3096
 28.8016  9725.09  98.1613
 28.8436  9675.8  98.1646
 28.8856  9633.42  97.8008
 28.9276  9742.19  98.5981
 28.9696  9782.27  98.4594
 29.0116  9577.53  97.5872
 29.0536  9554.32  97.6924
 29.0956  9632.51  97.7974
 29.1376  9648.85  97.8497
 29.1796  9635.64  97.8381
 29.2216  9538.87  97.177
 29.2636  9725.2  98.2034
 29.3056  9568.18  97.1838
 29.3476  9672.9  98.2439
 29.3896  9555.92  97.7463
 29.4316  9534.09  96.9272
 29.4736  9403.24  96.3222
 29.5156  9467.45  96.5706
 29.5576  9448.47  97.2062
 29.5996  9380.44  96.1262
 29.6416  9346.96  96.0704
 29.6836  9307.46  95.7959
 29.7256  9256.55  96.0892
 29.7676  9468.19  96.8422
 29.8096  9482.91  96.8635
 29.8516  9174.1  95.5996
 29.8936  9359.33  96.6514
 29.9356  9389.59  96.565
 29.9776  9284.18  96.1695
 30.0196  9380.69  96.0651
 30.0616  9142.89  95.2054
 30.1036  9374.44  96.2296
 30.1456  9185.53  95.4852
 30.1876  9284.27  95.9766
 30.2296  9178.34  95.3756
 30.2716  9327.86  95.789
 30.3136  9289.2  96.4359
 30.3556  9415.75  97.1467
 30.3976  9327.41  98.187
 30.4396  9675.75  97.395
 30.4816  9521.32  96.1929
 30.5236  9492.99  96.0663
 30.5656  9446.66  96.4787
 30.6076  9364.09  95.4797
 30.6496  9384.75  95.9796
 30.6916  9257.99  95.3844
 30.7336  9310.88  95.8254
 30.7756  9241.26  95.5559
 30.8176  9292.93  95.7527
 30.8596  9434.59  96.209
 30.9016  9276.14  95.7714
 30.9436  9461.55  96.4795
 30.9856  9558.48  97.107
 31.0276  9388.4  95.8431
 31.0696  9451.01  96.7311
 31.1116  9399.07  96.4292
 31.1536  9372.13  96.1467
 31.1956  9174.02  95.2266
 31.2376  9100.45  94.8476
 31.2796  9325.03  95.575
 31.3216  9478.46  96.2811
 31.3636  9293.67  96.0249
 31.4056  9324.93  97.4776
 31.4476  9366.1  95.6287
 31.4896  9168.2  95.1076
 31.5316  9318.24  95.2634
 31.5736  9415.58  95.617
 31.6156  9290.91  94.9892
 31.6576  9285.26  95.0409
 31.6996  9398.75  95.2854
 31.7416  9202.8  95.3661
 31.7836  9307.26  94.9014
 31.8256  9312.2  95.232
 31.8676  9294.36  95.1101
 31.9096  9112.3  94.5312
 31.9516  9113.21  94.7042
 31.9936  9091.78  94.3849
 32.0356  9217.21  95.1063
 32.0776  9269.93  95.2746
 32.1196  9262.03  95.3469
 32.1616  9263.28  94.8
 32.2036  9180.51  94.9163
 32.2456  9139.26  95.0484
 32.2876  9213.98  94.9377
 32.3296  9101.04  94.307
 32.3716  8921.92  93.4518
 32.4136  8971.32  93.9183
 32.4556  8998.63  93.4446
 32.4976  8980.79  93.2593
 32.5396  8952.17  93.1933
 32.5816  8942.74  93.2967
 32.6236  8963.23  93.4352
 32.6656  9017.2  94.2651
 32.7076  8883.31  93.2195
 32.7496  8940.78  93.1773
 32.7916  8979.56  93.3557
 32.8336  9005.45  93.5717
 32.8756  9099.94  93.8036
 32.9176  8730.99  92.3512
 32.9596  8851.31  93.0677
 33.0016  8855.65  92.8549
 33.0436  8882.25  93.147
 33.0856  8761.86  92.6256
 33.1276  8752.82  92.2992
 33.1696  8862.33  92.7176
 33.2116  8901.62  93.1425
 33.2536  9044.51  93.9224
 33.2956  8808.97  92.7545
 33.3376  8843.62  92.6817
 33.3796  8963.73  93.5154
 33.4216  8864.65  92.5654
 33.4636  8892.19  92.89
 33.5056  8705.05  92.1337
 33.5476  8946.15  93.4128
 33.5896  8908.64  92.9756
 33.6316  8864.77  93.0974
 33.6736  8677.02  92.3226
 33.7156  8720.22  92.5865
 33.7576  8873.05  93.0317
 33.7996  8778.06  92.2821
 33.8416  8664.76  91.885
 33.8836  8727.36  91.9713
 33.9256  8838.7  92.6552
 33.9676  8766.58  92.1526
 34.0096  8622.51  91.7316
 34.0516  8639.78  91.4328
 34.0936  8566.89  91.3173
 34.1356  8731.75  91.9304
 34.1776  8496.52  90.6591
 34.2196  8681.39  91.8497
 34.2616  8559.88  91.3234
 34.3036  8667.18  92.1797
 34.3456  8530.36  91.1805
 34.3876  8581.54  91.4561
 34.4296  8628.79  91.3621
 34.4716  8721.64  92.0114
 34.5136  8660.83  91.8696
 34.5556  8470.06  91.1033
 34.5976  8599.89  91.6222
 34.6396  8523.68  90.9269
 34.6816  8578.74  91.3549
 34.7236  8489.06  90.6281
 34.7656  8544.74  91.1407
 34.8076  8503.11  91.2455
 34.8496  8474.36  90.9164
 34.8916  8458.4  90.7191
 34.9336  8578.5  91.3201
 34.9756  8552.82  91.1267
 35.0176  8477.65  91.2498
 35.0596  8643.34  91.9864
 35.1016  8533.22  91.1266
 35.1436  8779.59  92.1208
 35.1856  8578.99  91.1818
 35.2276  8533.46  91.0963
 35.2696  8462.87  90.9339
 35.3116  8455.76  90.9694
 35.3536  8375.66  90.2682
 35.3956  8564.79  90.9949
 35.4376  8573.05  91.6288
 35.4796  8575.91  91.6545
 35.5216  8496.28  91.2068
 35.5636  8253.85  90.6173
 35.6056  8448.09  90.672
 35.6476  8445.73  90.5893
 35.6896  8508.08  91.003
 35.7316  8349.21  90.1371
 35.7736  8375.6  90.4641
 35.8156  8469.82  91.0036
 35.8576  8503.53  91.4002
 35.8996  8434.68  91.0155
 35.9416  8317.23  89.8721
 35.9836  8423.85  90.787
 36.0256  8551.63  91.4911
 36.0676  8530.21  91.1074
 36.1096  8340.25  90.2585
 36.1516  8489.54  90.9534
 36.1936  8486.1  90.7688
 36.2356  8432.86  91.1478
 36.2776  8297.32  89.8773
 36.3196  8415.22  90.195
 36.3616  8390.68  90.1956
 36.4036  8271.2  89.6093
 36.4456  8352.82  90.264
 36.4876  8166.08  89.191
 36.5296  8263.45  89.7512
 36.5716  8310.57  90.7906
 36.6136  8287.99  89.399
 36.6556  8148.06  88.8384
 36.6976  8186.96  89.5434
 36.7396  8094.03  88.7671
 36.7816  8091.53  89.1267
 36.8236  8023.78  88.6793
 36.8656  7930.82  88.2281
 36.9076  7947.45  88.2037
 36.9496  7915.28  88.0129
 36.9916  7963.76  87.9125
 37.0336  7969.18  88.2583
 37.0756  8080.2  88.665
 37.1176  7859.57  87.7096
 37.1596  7879.97  87.8309
 37.2016  7892.3  88.1201
 37.2436  8073.52  88.4395
 37.2856  7872.99  87.5885
 37.3276  8004.24  87.6805
 37.3696  7874.83  87.837
 37.4116  8037.75  88.6475
 37.4536  7917.85  87.8531
 37.4956  7863.45  87.5955
 37.5376  8077.33  90.4068
 37.5796  7983.17  89.8102
 37.6216  7956.05  87.9595
 37.6636  8064.12  88.4771
 37.7056  8016.69  88.38
 37.7476  8237.15  89.1504
 37.7896  7939.07  87.976
 37.8316  8052.9  88.8142
 37.8736  7975.21  87.8629
 37.9156  8032.31  88.1969
 37.9576  8065.97  88.2936
 37.9996  7893.52  87.0605
 38.0416  7943.57  88.1388
 38.0836  8039.7  88.5746
 38.1256  8081.96  88.778
 38.1676  7920.67  88.0105
 38.2096  8125.02  88.7727
 38.2516  7993.83  88.2201
 38.2936  8084.35  88.5653
 38.3356  7985.44  87.9035
 38.3776  7993.56  88.2228
 38.4196  7959.71  87.8625
 38.4616  8040  88.5831
 38.5036  8182.5  89.2054
 38.5456  7895.23  88.4243
 38.5876  7917.66  88.5552
 38.6296  7834.86  87.1215
 38.6716  7972.42  87.6784
 38.7136  7964.26  87.5733
 38.7556  7890.29  87.677
 38.7976  7949.64  87.937
 38.8396  7975.98  88.5404
 38.8816  7891.53  87.8486
 38.9236  7846.89  87.414
 38.9656  7913.7  87.6859
 39.0076  7946.53  87.2642
 39.0496  8091.34  88.6547
 39.0916  8002.28  87.7864
 39.1336  7895.35  87.5995
 39.1756  7783.39  87.0389
 39.2176  7936.26  88.401
 39.2596  7956.16  88.4647
 39.3016  7863.54  87.5346
 39.3436  7885.22  88.0623
 39.3856  7945.65  87.8411
 39.4276  8027.37  88.834
 39.4696  7888.52  87.6555
 39.5116  7997.67  88.7969
 39.5536  7974.74  89.0384
 39.5956  7909.89  87.7754
 39.6376  7946.82  87.9848
 39.6796  7818.26  87.0159
 39.7216  7860.5  87.35
 39.7636  7996.79  88.6809
 39.8056  7921.38  88.0614
 39.8476  7812.15  87.6917
 39.8896  8028  88.5474
 39.9316  7774.29  87.3549
 39.9736  7887.73  87.5582
 40.0156  7891.29  87.4199
 40.0576  7869.18  87.6323
 40.0996  8050.45  87.8358
 40.1416  7910.78  87.8615
 40.1836  7961.92  88.0433
 40.2256  7971.22  88.1172
 40.2676  7892.13  87.797
 40.3096  7937.06  87.966
 40.3516  8066.81  88.7826
 40.3936  7984.61  87.8912
 40.4356  7866.21  87.4274
 40.4776  8006.25  88.6265
 40.5196  7946.07  88.419
 40.5616  8046.02  88.6348
 40.6036  7868.41  87.889
 40.6456  7911.12  87.7188
 40.6876  8066.19  88.581
 40.7296  7977.02  88.2022
 40.7716  7965.09  88.2797
 40.8136  7936.24  88.0431
 40.8556  8044.52  88.8169
 40.8976  7959.03  88.2417
 40.9396  7987.95  88.7753
 40.9816  7980.57  88.0016
 41.0236  7923.28  87.4552
 41.0656  8083.98  88.8924
 41.1076  8081.78  88.6304
 41.1496  7963.2  87.9071
 41.1916  7915.55  87.9411
 41.2336  8076.49  88.8667
 41.2756  7923.5  87.6049
 41.3176  7987.55  88.5856
 41.3596  7964.17  88.1784
 41.4016  7939.95  88.2857
 41.4436  8014.89  88.4969
 41.4856  7961.9  88.3552
 41.5276  7929.08  88.2101
 41.5696  7842.18  87.3436
 41.6116  8012.99  88.7155
 41.6536  7929.11  88.0905
 41.6956  7976.72  88.4386
 41.7376  7839.2  87.6668
 41.7796  7753.21  87.0575
 41.8216  7875.97  87.992
 41.8636  7898.88  88.0409
 41.9056  7802.26  87.3196
 41.9476  7838.62  87.7523
 41.9896  8014.11  88.4213
 42.0316  7936.55  88.0479
 42.0736  8015.58  88.614
 42.1156  7885.73  87.7019
 42.1576  7832.43  87.4975
 42.1996  7991.24  88.5157
 42.2416  7893.28  87.5543
 42.2836  7847.67  87.4381
 42.3256  7831.99  87.4618
 42.3676  7964.47  88.0168
 42.4096  7835.34  87.2547
 42.4516  7915.38  87.793
 42.4936  7753.8  86.9464
 42.5356  7835.33  87.5228
 42.5776  7928.96  87.9909
 42.6196  7850.46  87.6096
 42.6616  7702.57  86.9614
 42.7036  7925.88  87.5901
 42.7456  7920.43  87.9364
 42.7876  7812.94  87.4024
 42.8296  7873.08  87.5969
 42.8716  7788.03  87.2757
 42.9136  7816.66  87.2246
 42.9556  7913.39  87.8958
 42.9976  7890.96  87.7191
 43.0396  7906.08  87.5466
 43.0816  7829  87.5046
 43.1236  7868.48  87.7751
 43.1656  7797.19  87.1987
 43.2076  7808.18  87.3846
 43.2496  7756.89  86.9061
 43.2916  7730.34  87.1162
 43.3336  7786.97  87.2716
 43.3756  7858.07  87.427
 43.4176  7783.11  87.0834
 43.4596  7637.64  86.1257
 43.5016  7720.13  86.9807
 43.5436  7812.01  87.4132
 43.5856  7682.37  86.703
 43.6276  7643.59  86.3822
 43.6696  7609.07  86.4286
 43.7116  7789.73  86.9623
 43.7536  7825.46  87.6677
 43.7956  7609.81  87.6445
 43.8376  7570.6  85.9015
 43.8796  7516.43  85.6747
 43.9216  7635.86  86.2703
 43.9636  7605.39  86.209
 44.0056  7730.94  87.1491
 44.0476  7593.76  86.0025
 44.0896  7578.65  86.2575
 44.1316  7692  86.4233
 44.1736  7538.59  85.6842
 44.2156  7521.38  85.4396
 44.2576  7502.56  85.65
 44.2996  7590.19  86.1268
 44.3416  7574.07  85.7945
 44.3836  7456.25  85.4434
 44.4256  7569.08  85.7373
 44.4676  7593.5  86.0301
 44.5096  7514.49  85.7279
 44.5516  7433.81  85.2332
 44.5936  7404.93  85.018
 44.6356  7426.31  84.88
 44.6776  7594.87  86.1585
 44.7196  7536.99  86.1283
 44.7616  7635.28  88.0659
 44.8036  7572.03  86.1379
 44.8456  7711.46  87.1613
 44.8876  7684.65  86.8529
 44.9296  7761.47  86.7272
 44.9716  7577.25  86.1397
 45.0136  7724.39  86.8943
 45.0556  7758.97  87.0853
 45.0976  7590.32  86.2594
 45.1396  7594.27  86.0361
 45.1816  7637.46  86.2034
 45.2236  7607.27  85.9643
 45.2656  7539.92  86.0492
 45.3076  7499.47  85.6104
 45.3496  7583.7  86.3988
 45.3916  7533.89  86.4097
 45.4336  7592.28  86.6115
 45.4756  7490.17  85.8465
 45.5176  7698.14  86.674
 45.5596  7526.44  85.7992
 45.6016  7545.15  86.3264
 45.6436  7552.69  85.5425
 45.6856  7608.43  86.5192
 45.7276  7541.06  87.4271
 45.7696  7463.51  86.665
 45.8116  7540.1  86.5394
 45.8536  7460.48  85.9964
 45.8956  7559.82  85.9116
 45.9376  7554.97  85.3436
 45.9796  7584.08  86.207
 46.0216  7706.22  87.2452
 46.0636  7758.28  86.6541
 46.1056  7473.96  85.0514
 46.1476  7556.54  86.1158
 46.1896  7516.72  86.0382
 46.2316  7561.34  86.1554
 46.2736  7416.98  85.7083
 46.3156  7503.04  85.7839
 46.3576  7595.66  86.5155
 46.3996  7397.24  85.535
 46.4416  7543.09  85.9452
 46.4836  7396.06  85.4622
 46.5256  7596.56  86.5562
 46.5676  7514.39  86.2025
 46.6096  7542.82  86.2656
 46.6516  7458.73  84.8563
 46.6936  7522.34  85.7139
 46.7356  7561.99  86.0603
 46.7776  7417.6  86.0423
 46.8196  7518.78  86.2213
 46.8616  7359.39  85.2304
 46.9036  7316.2  84.6378
 46.9456  7386.22  84.684
 46.9876  7420.53  84.9715
 47.0296  7410.82  85.5996
 47.0716  7292.4  84.7479
 47.1136  7388.03  85.0054
 47.1556  7355.67  84.6469
 47.1976  7453.96  85.3221
 47.2396  7357.51  85.1529
 47.2816  7399.97  85.0834
 47.3236  7438.65  85.6912
 47.3656  7408.38  85.4338
 47.4076  7320.16  84.7228
 47.4496  7359.18  85.0578
 47.4916  7323.38  85.0519
 47.5336  7424.5  85.4419
 47.5756  7429.21  85.5858
 47.6176  7368  85.1276
 47.6596  7298.87  84.4322
 47.7016  7488.47  85.3517
 47.7436  7412.2  85.2429
 47.7856  7459.7  85.5702
 47.8276  7386.5  85.175
 47.8696  7397.07  85.3324
 47.9116  7529.54  85.7927
 47.9536  7416.19  85.077
 47.9956  7388.32  85.647
 48.0376  7306.03  84.9285
 48.0796  7400.38  85.6098
 48.1216  7368.17  85.2329
 48.1636  7500  85.5977
 48.2056  7426.92  85.4237
 48.2476  7417.69  85.7075
 48.2896  7492.36  86.0235
 48.3316  7359.4  85.1763
 48.3736  7313.14  84.939
 48.4156  7380.88  85.1718
 48.4576  7471.67  86.0147
 48.4996  7417.95  85.1366
 48.5416  7431.95  85.5863
 48.5836  7461.18  85.4066
 48.6256  7444.1  85.536
 48.6676  7427.8  85.9462
 48.7096  7439.9  85.251
 48.7516  7448.57  85.4711
 48.7936  7249.15  84.3619
 48.8356  7355.85  85.0519
 48.8776  7338.97  85.5197
 48.9196  7479.06  85.7271
 48.9616  7293.43  85.017
 49.0036  7475.16  86.451
 49.0456  7281.31  85.2765
 49.0876  7442.71  85.7335
 49.1296  7168.65  84.3112
 49.1716  7232.81  84.5369
 49.2136  7421.69  85.5774
 49.2556  7426.27  85.6381
 49.2976  7394.59  85.5551
 49.3396  7281.51  84.9259
 49.3816  7450.71  85.3491
 49.4236  7326.03  85.0404
 49.4656  7265.97  84.6901
 49.5076  7387.16  85.157
 49.5496  7338.14  84.9257
 49.5916  7326.85  84.7904
 49.6336  7318.77  84.9496
 49.6756  7392.41  85.6373
 49.7176  7291.79  84.9693
 49.7596  7250.97  84.5038
 49.8016  7363.38  85.0639
 49.8436  7270.83  84.8117
 49.8856  7344.84  85.2662
 49.9276  7221.57  84.6307
 49.9696  7261.49  84.8674
 50.0116  7241.19  84.877
 50.0536  7294.95  85.1379
 50.0956  7169.94  84.4823
 50.1376  7241.78  84.6003
 50.1796  7212.77  84.7031
 50.2216  7245.22  84.8731
 50.2636  7201.83  84.2351
 50.3056  7247.62  84.6749
 50.3476  7101  83.8499
 50.3896  7197.59  84.3911
 50.4316  7365.9  85.199
 50.4736  7182.74  84.3582
 50.5156  7243.82  84.6979
 50.5576  7268.59  84.5951
 50.5996  7245.3  84.755
 50.6416  7288.85  84.9284
 50.6836  7299.79  85.071
 50.7256  7297.05  84.9689
 50.7676  7333.46  85.5294
 50.8096  7263.01  84.6144
 50.8516  7131.75  84.2747
 50.8936  7132.61  84.048
 50.9356  7306.9  85.1863
 50.9776  7178.2  84.5807
 51.0196  7032.08  83.7958
 51.0616  7160.07  83.8764
 51.1036  7167.98  84.2872
 51.1456  7181.44  84.2756
 51.1876  7108.73  83.1795
 51.2296  7068.86  83.5865
 51.2716  7005.41  82.9181
 51.3136  7080.1  83.8257
 51.3556  6966.36  82.7679
 51.3976  7024.31  83.2661
 51.4396  6882.41  82.7318
 51.4816  7030.99  83.4634
 51.5236  6970.72  83.196
 51.5656  7067  83.3547
 51.6076  7024.58  83.1959
 51.6496  7056.97  83.5791
 51.6916  7021.42  83.7336
 51.7336  6919.34  83.2161
 51.7756  7038.23  83.6187
 51.8176  6845.21  82.5743
 51.8596  7068.07  83.9228
 51.9016  7147.75  83.9911
 51.9436  7098.64  85.2686
 51.9856  7048.21  85.412
 52.0276  7067.93  84.0031
 52.0696  7105.69  84.3059
 52.1116  7042.26  84.0112
 52.1536  7038.52  83.9187
 52.1956  6987.5  83.0275
 52.2376  7198.85  84.4653
 52.2796  7075.33  83.5595
 52.3216  7007.01  83.8544
 52.3636  7053.33  83.6756
 52.4056  6972.12  83.0699
 52.4476  6976.67  83.4634
 52.4896  7019.86  83.7609
 52.5316  7080.88  84.213
 52.5736  6919.7  82.9155
 52.6156  7105.29  84.4757
 52.6576  6868.21  82.4267
 52.6996  6798.19  83.0292
 52.7416  6866.07  83.2688
 52.7836  7027.3  84.1569
 52.8256  6956.26  82.9275
 52.8676  6931.4  83.3654
 52.9096  6953.75  83.5806
 52.9516  6916.29  83.722
 52.9936  6939.2  84.2479
 53.0356  7010.38  83.6719
 53.0776  7076.88  84.3457
 53.1196  6962.37  83.7786
 53.1616  6987.8  83.9838
 53.2036  7031.52  84.2114
 53.2456  6956.84  83.8692
 53.2876  6920.2  83.3366
 53.3296  6951.71  83.8577
 53.3716  7086.96  84.433
 53.4136  6996.27  84.0268
 53.4556  6844.85  83.1414
 53.4976  6884.81  83.214
 53.5396  6868.94  83.4979
 53.5816  7006.13  83.9766
 53.6236  6774.4  82.9386
 53.6656  6954.69  83.6319
 53.7076  6937.91  83.4867
 53.7496  7066.83  84.4126
 53.7916  6956.79  83.8702
 53.8336  6929.94  83.6202
 53.8756  6802.59  83.3769
 53.9176  6822.36  82.813
 53.9596  6635.95  82.4081
 54.0016  6709.29  82.195
 54.0436  6574.09  81.598
 54.0856  6795.32  82.3883
 54.1276  6591.58  81.343
 54.1696  6788.38  82.7149
 54.2116  6873.25  82.9849
 54.2536  6713.53  81.8122
 54.2956  6703.72  81.7962
 54.3376  6653.02  81.9773
 54.3796  6654.92  81.8724
 54.4216  6678.03  82.0944
 54.4636  6679.6  82.0645
 54.5056  6643.01  81.6446
 54.5476  6618.03  81.8278
 54.5896  6627.01  81.74
 54.6316  6636.01  81.6126
 54.6736  6678.68  81.972
 54.7156  6570.99  81.3329
 54.7576  6573.7  81.2966
 54.7996  6655.65  81.983
 54.8416  6704.25  82.3387
 54.8836  6607.1  81.8496
 54.9256  6638.05  81.7887
 54.9676  6600.6  81.4099
 55.0096  6559.72  81.2059
 55.0516  6443.4  80.7069
 55.0936  6603.66  81.3641
 55.1356  6506.59  80.7959
 55.1776  6712.38  82.3453
 55.2196  6602.05  81.4395
 55.2616  6673.76  82.1383
 55.3036  6417.02  80.6754
 55.3456  6444.77  80.9831
 55.3876  6506.78  81.0971
 55.4296  6419.41  80.5409
 55.4716  6535.14  81.3146
 55.5136  6457.11  80.5721
 55.5556  6669.79  81.9705
 55.5976  6459.03  80.73
 55.6396  6638.58  81.816
 55.6816  6512.19  80.8627
 55.7236  6430.77  80.41
 55.7656  6557  80.9262
 55.8076  6459.13  80.3088
 55.8496  6456.95  80.6249
 55.8916  6333.41  80.0493
 55.9336  6612.65  81.6522
 55.9756  6492.41  80.7536
 56.0176  6344.51  79.9845
 56.0596  6415.96  80.4322
 56.1016  6417.05  80.4527
 56.1436  6402.72  80.6331
 56.1856  6331.48  79.9005
 56.2276  6517.3  81.1525
 56.2696  6380.68  80.2413
 56.3116  6463.56  81.174
 56.3536  6444.25  80.6837
 56.3956  6393.56  80.3659
 56.4376  6326.25  79.9793
 56.4796  6268.08  79.4062
 56.5216  6335.84  80.243
 56.5636  6331.95  79.7563
 56.6056  6497.81  81.0782
 56.6476  6327.93  79.6013
 56.6896  6544.33  81.4386
 56.7316  6372.47  80.256
 56.7736  6346.43  80.0921
 56.8156  6319.7  79.9457
 56.8576  6215.49  79.2071
 56.8996  6273.71  79.4783
 56.9416  6255.62  79.6839
 56.9836  6400.39  80.1565
 57.0256  6220.92  79.3054
 57.0676  6416.34  80.6927
 57.1096  6327.8  79.9095
 57.1516  6258.05  79.4984
 57.1936  6354.82  79.8739
 57.2356  6210.24  79.2731
 57.2776  6307.53  79.8833
 57.3196  6230.86  79.7327
 57.3616  6257.38  79.3998
 57.4036  6267.18  79.5117
 57.4456  6359.45  80.0985
 57.4876  6313.22  79.6529
 57.5296  6174.25  79.0994
 57.5716  6268.66  79.6897
 57.6136  6166.79  78.8731
 57.6556  6256.86  79.5921
 57.6976  6294.17  79.6589
 57.7396  6193.64  79.3747
 57.7816  6191.14  79.7354
 57.8236  6201.51  79.5702
 57.8656  6192.54  79.1729
 57.9076  6221.12  79.3921
 57.9496  6187.43  79.5283
 57.9916  6185.99  79.0321
 58.0336  6191.96  79.3609
 58.0756  6220.64  79.179
 58.1176  6206.87  79.0718
 58.1596  6096.61  78.9563
 58.2016  6007.41  77.5583
 58.2436  6007.92  77.9703
 58.2856  6008.03  77.8911
 58.3276  5910.22  77.6174
 58.3696  5960.9  77.7086
 58.4116  5944.22  77.4626
 58.4536  6104.37  78.3851
 58.4956  5877.16  77.0913
 58.5376  6038.2  77.7103
 58.5796  5953.6  77.5847
 58.6216  6070.27  78.1598
 58.6636  5955.14  77.6232
 58.7056  5911.48  77.1973
 58.7476  5886.93  77.4748
 58.7896  5860.71  76.9559
 58.8316  6003.49  77.8813
 58.8736  5978.53  77.7316
 58.9156  5871.32  77.0734
 58.9576  5942.32  77.8566
 58.9996  6094.65  78.0955
 59.0416  6040.69  78.1082
 59.0836  5990.11  77.6971
 59.1256  5894.57  77.7717
 59.1676  5882.38  78.0001
 59.2096  5844.16  77.0628
 59.2516  5989.5  77.5982
 59.2936  5851.83  77.024
 59.3356  5873.11  77.0434
 59.3776  5898.91  77.3793
 59.4196  5783.01  76.553
 59.4616  5979.16  77.7009
 59.5036  5823.64  76.7185
 59.5456  6018.9  77.6881
 59.5876  6074.61  78.2383
 59.6296  5918.58  77.2955
 59.6716  5893.03  77.1857
 59.7136  6015.22  77.9701
 59.7556  5908.7  77.4115
 59.7976  5849.78  76.771
 59.8396  5998.7  77.6367
 59.8816  5880.26  77.4045
 59.9236  5963.77  77.5982
 59.9656  5828.93  76.972
 60.0076  5851.9  76.4911
 60.0496  5953.8  77.6536
 60.0916  5981.63  77.2567
 60.1336  5922.54  77.9701
 60.1756  5887.08  78.9049
 60.1996  0.0000000E+00  0.0000000E+00