File: docs/examples/opeando_xrd/IS17_D/Data/IS17_D/17_Db_f00009.xye
# /beamlines/bl04/projects/cycle2025-II/20250340211-lsimonelli/DATA/IS17_D/17_Db_f00009.xye : mythproc.py merge -s 0.006 -l 0.5 -f /beamlines/bl04/inhouse/ff/FlatField/ff_20Nov2024rod8mm60s_17keV.raw -b True -c true -o xye /beamlines/bl04/projects/cycle2025-II/20250340211-lsimonelli/DATA/IS17_D/17_Db_00009.dat
# IsMon = [6741133, 6746270, 6752282]  IsPos = [-1.5000, -2.4885, -3.4988]
# Wave = 0.4962  CalPath /beamlines/bl04/projects/cycle2025-II/20250340211-lsimonelli/DATA/Align/Si_Pos1_25keV_f00001.cal
# Date = 2025-09-23_20:11:50 Dt = 4.8000  Bin = 0.0060  <imon> = 6746562 +/- 4556 (Min/Max) 6741133 / 6752282
# icurr 249.8203  mocoIn 1.7047E-05  mocoOut 0.7996  i15 7.0633e+06  imon 6.74656e+06  i7 7.0000  iEMpd_timer 4.8000  iEMpd_1 3.4785E-08  iEMpd_2 7.8867E-08  iEMpd_3 1.8627E-08  iEMpd_4 4.8236E-08  iEMhp_timer 4.8000  iEMhp_1 4.8817E-06  iEMhp_2 -2.4853E-08  iEMhp_3 -2.2575E-08  iEMhp_4 -2.1202E-08
#      9776
 1.5856  41350.5  208.89
 1.6276  47804.5  220.747
 1.6696  53960.1  233.702
 1.7116  61723.1  250.437
 1.7536  70003.9  265.572
 1.7956  73960.8  273.657
 1.8376  70702.2  267.984
 1.8796  60235.7  245.545
 1.9216  49790.1  224.122
 1.9636  42875.5  207.65
 2.0056  38254.4  194.887
 2.0476  35923.9  190.928
 2.0896  34302.6  185.476
 2.1316  33568.9  182.6
 2.1736  31978.5  179.635
 2.2156  32567.6  179.828
 2.2576  31348.9  177.061
 2.2996  29876.3  173.489
 2.3416  30509.3  173.919
 2.3836  29497.2  171.114
 2.4256  29058.3  170.39
 2.4676  28712.6  169.133
 2.5096  29336.8  171.018
 2.5516  37299.2  197.177
 2.5936  145111  381.19
 2.6356  32764.8  181.904
 2.6776  27348.5  165.093
 2.7196  26291.1  162.345
 2.7616  25982.8  161.193
 2.8036  25443.6  159.663
 2.8456  25544.4  160.612
 2.8876  24741.5  157.899
 2.9296  24049.1  155.826
 2.9716  24193.7  155.806
 3.0136  23737.5  154.39
 3.0556  23963.3  155.499
 3.0976  23808.4  153.929
 3.1396  23506.6  153.667
 3.1816  23219  152.666
 3.2236  23055.8  152.111
 3.2656  22907.2  150.694
 3.3076  22766.8  151.664
 3.3496  23105  151.971
 3.3916  23193.2  151.859
 3.4336  23788.3  154.359
 3.4756  24205.3  155.665
 3.5176  24817.4  157.387
 3.5596  24425  159.032
 3.6016  24637.2  156.851
 3.6436  23897  155.556
 3.6856  23556.8  152.79
 3.7276  22598.4  150.698
 3.7696  22592.7  150.659
 3.8116  21984  148.714
 3.8536  22298.9  149.705
 3.8956  22195.4  149.176
 3.9376  22972.2  152.041
 3.9796  21891.1  147.926
 4.0216  21897.4  147
 4.0636  21946.4  148.604
 4.1056  21884  148.055
 4.1476  22277.6  149.692
 4.1896  22443.6  150.097
 4.2316  22536.4  150.235
 4.2736  22923.5  151.332
 4.3156  23065.7  152.007
 4.3576  23928.3  154.734
 4.3996  24071.9  155.481
 4.4416  24837  157.523
 4.4836  26082.8  161.586
 4.5256  25967.3  161.838
 4.5676  25507.2  160.634
 4.6096  25935.7  161.02
 4.6516  26623.1  162.486
 4.6936  26426  162.675
 4.7356  27519.2  165.844
 4.7776  26751.1  163.332
 4.8196  26407.7  162.931
 4.8616  25902.3  160.994
 4.9036  25899.5  160.61
 4.9456  25766.4  160.823
 4.9876  25047.2  158.467
 5.0296  25052.2  158.325
 5.0716  24838.5  158.23
 5.1136  25077.7  158.868
 5.1556  25357.7  159.214
 5.1976  34804  186.523
 5.2396  26375.7  162.074
 5.2816  25824.8  160.851
 5.3236  25881.9  160.721
 5.3656  25386.1  160.073
 5.4076  25065.8  159.198
 5.4496  24964.9  158.381
 5.4916  24870.3  157.851
 5.5336  24857.9  157.808
 5.5756  25102  158.615
 5.6176  24985.4  157.698
 5.6596  25188.8  159.14
 5.7016  25538.5  159.678
 5.7436  25508.3  159.855
 5.7856  25502.9  159.901
 5.8276  25464.7  159.492
 5.8696  25899.3  160.934
 5.9116  25688.5  160.952
 5.9536  26123.2  162.069
 5.9956  26135.7  161.51
 6.0376  26227.9  162.387
 6.0796  26631.5  163.47
 6.1216  26312.3  162.667
 6.1636  26871.2  163.478
 6.2056  26659.3  163.478
 6.2476  27102.6  164.553
 6.2896  27159.2  164.578
 6.3316  27153.5  164.743
 6.3736  27157.5  164.639
 6.4156  27338.6  165.129
 6.4576  27373.2  164.811
 6.4996  27407.2  165.365
 6.5416  27622.3  166.15
 6.5836  27998.6  167.498
 6.6256  28047.2  167.228
 6.6676  28387.2  167.816
 6.7096  28101.8  167.818
 6.7516  28550.4  168.799
 6.7936  29852.4  172.004
 6.8356  30509.8  173.998
 6.8776  29466  171.77
 6.9196  29238.7  171.511
 6.9616  29507  171.72
 7.0036  30029.9  172.929
 7.0456  29942.1  171.996
 7.0876  30150.1  174.164
 7.1296  29628.4  171.877
 7.1716  29986.4  172.471
 7.2136  29739.2  171.539
 7.2556  29782.5  171.819
 7.2976  29978.9  172.873
 7.3396  29513.4  171.736
 7.3816  29867.7  172.973
 7.4236  30215.4  173.288
 7.4656  30290.7  172.977
 7.5076  30525.2  173.787
 7.5496  30088.5  173.039
 7.5916  30382.4  173.957
 7.6336  31297.2  176.444
 7.6756  31015.3  175.501
 7.7176  31427  176.993
 7.7596  31305.7  177.831
 7.8016  37197.7  196.237
 7.8436  31881  178.34
 7.8856  31872.5  177.935
 7.9276  32297.5  179.49
 7.9696  32277.1  179.744
 8.0116  33621.1  182.032
 8.0536  34124.6  183.639
 8.0956  35875.4  189.484
 8.1376  34273.2  184.676
 8.1796  34339.1  185.392
 8.2216  35573  187.444
 8.2636  36329.2  189.673
 8.3056  35655.8  188.646
 8.3476  37569.6  192.985
 8.3896  36372.9  189.965
 8.4316  35604  188.11
 8.4736  35655.7  187.73
 8.5156  35635.9  187.947
 8.5576  35298.7  188.017
 8.5996  34881.9  185.797
 8.6416  34754.6  186.694
 8.6836  34596.8  186.08
 8.7256  35580.5  188.188
 8.7676  38150.3  197.848
 8.8096  38561.1  196.165
 8.8516  36640.8  190.862
 8.8936  37479.1  192.909
 8.9356  35722.2  188.688
 8.9776  35635.3  188.508
 9.0196  35185.7  187.025
 9.0616  35390.7  187.05
 9.1036  37369.2  193.386
 9.1456  34631  185.49
 9.1876  34458.5  184.98
 9.2296  33941.1  183.037
 9.2716  33800  182.712
 9.3136  33930.3  183.062
 9.3556  34416.5  184.332
 9.3976  32941.7  180.878
 9.4396  32691.4  180.068
 9.4816  32648.9  179.838
 9.5236  32478.3  179.244
 9.5656  32537.7  179.76
 9.6076  31466.6  177.259
 9.6496  31978.4  178.607
 9.6916  31516.4  177.25
 9.7336  32154.6  178.838
 9.7756  31659.6  178.656
 9.8176  31509.3  177.835
 9.8596  31477.1  176.22
 9.9016  30978.9  174.791
 9.9436  30707.6  173.778
 9.9856  30867.9  174.68
 10.0276  30272.9  174.037
 10.0696  30576.6  173.965
 10.1116  29969.6  172.487
 10.1536  29619.8  171.158
 10.1956  28927.3  169.238
 10.2376  28899.4  168.69
 10.2796  28508.6  167.641
 10.3216  28154.4  166.712
 10.3636  28533.1  168.019
 10.4056  32070.7  178.543
 10.4476  32698.6  179.869
 10.4896  36775.3  190.143
 10.5316  33693.3  182.416
 10.5736  28646.5  168.951
 10.6156  28506.5  168.295
 10.6576  33617.4  181.212
 10.6996  28316.3  167.01
 10.7416  26946.5  163.127
 10.7836  27629.3  165.811
 10.8256  26219.3  161.947
 10.8676  25930.5  160.604
 10.9096  25983.4  160.802
 10.9516  25612.6  158.623
 10.9936  26618  161.916
 11.0356  26223.8  161.304
 11.0776  27619.2  164.872
 11.1196  27432.8  165.093
 11.1616  25573.5  159.072
 11.2036  26944.7  163.127
 11.2456  28517.4  168.562
 11.2876  25533.3  159.24
 11.3296  25311.4  158.447
 11.3716  25467.6  158.657
 11.4136  25166.8  158.559
 11.4556  25081  157.94
 11.4976  26913.9  162.604
 11.5396  27011.4  163.071
 11.5816  25239.3  158.068
 11.6236  24311.3  155.569
 11.6656  24581.3  155.403
 11.7076  23768.4  153.594
 11.7496  24055.2  158.446
 11.7916  24600.4  155.538
 11.8336  23282.9  152.185
 11.8756  23905.3  153.751
 11.9176  23552.4  152.295
 11.9596  23420.1  152.042
 12.0016  23013.9  151.448
 12.0436  22940.1  150.674
 12.0856  22639.7  150.174
 12.1276  22730.5  150.424
 12.1696  22719.1  149.526
 12.2116  23179.1  151.025
 12.2536  25739.9  159.993
 12.2956  23322.5  151.646
 12.3376  23398.7  152.131
 12.3796  22843.7  150.767
 12.4216  23388.3  151.755
 12.4636  23895.1  154.334
 12.5056  22527.2  149.132
 12.5476  22712.7  149.274
 12.5896  22331.5  148.63
 12.6316  22482.4  149.304
 12.6736  22236.9  148.945
 12.7156  22781.1  150.613
 12.7576  22570  150.129
 12.7996  22731.4  149.354
 12.8416  22865.7  150.829
 12.8836  23729  153.462
 12.9256  23251.7  150.98
 12.9676  23140  150.995
 13.0096  23148.5  152.146
 13.0516  23084.3  150.976
 13.0936  22925.8  150.578
 13.1356  23328  151.152
 13.1776  23180  151.667
 13.2196  23171.6  151.291
 13.2616  22703.5  150.05
 13.3036  23142.3  151.645
 13.3456  22721.8  150.203
 13.3876  23518.3  152.344
 13.4296  23082.9  151.071
 13.4716  23080  150.701
 13.5136  23267.6  151.433
 13.5556  23217.2  151.892
 13.5976  23214.6  152.048
 13.6396  23343.5  151.826
 13.6816  23430.4  152.466
 13.7236  24024.7  154.09
 13.7656  25817.6  160.191
 13.8076  26928.6  162.24
 13.8496  24835.4  156.657
 13.8916  23727.9  154.044
 13.9336  22760.5  150.16
 13.9756  22921.5  150.099
 14.0176  22516.1  149.415
 14.0596  23639  153.041
 14.1016  22632.7  150.161
 14.1436  22395.7  148.535
 14.1856  22064.4  147.704
 14.2276  22410.1  149.349
 14.2696  22375.5  149.076
 14.3116  21581.6  146.304
 14.3536  21314.6  145.57
 14.3956  21207.7  144.933
 14.4376  21205.4  144.711
 14.4796  21134  144.478
 14.5216  20913.4  144.485
 14.5636  21265.7  145.271
 14.6056  21024.3  144.02
 14.6476  20567.3  141.709
 14.6896  20271.2  141.216
 14.7316  19914.4  140.971
 14.7736  19882.7  140.025
 14.8156  19677.6  139.318
 14.8576  19587.6  138.869
 14.8996  19612.3  140.111
 14.9416  18941.1  137.711
 14.9836  19233.5  138.744
 15.0256  18676.4  135.655
 15.0676  18332.6  134.697
 15.1096  18388.4  134.652
 15.1516  18027.9  133.871
 15.1936  18023  133.293
 15.2356  18075.3  133.754
 15.2776  17877.1  132.624
 15.3196  17584.7  132.493
 15.3616  17451.1  131.744
 15.4036  17432  131.547
 15.4456  17977.7  133.245
 15.4876  17420.9  130.864
 15.5296  17133.2  130.061
 15.5716  16680.9  127.948
 15.6136  17020.7  129.563
 15.6556  18901.3  135.758
 15.6976  17447.3  130.508
 15.7396  17124.3  129.873
 15.7816  16990.3  128.898
 15.8236  16469.4  127.565
 15.8656  16581.6  127.809
 15.9076  16575.9  127.616
 15.9496  17629.8  134.445
 15.9916  16675.7  131.13
 16.0336  16761.9  128.422
 16.0756  16648.6  128.28
 16.1176  16384.1  127.165
 16.1596  16012  127.034
 16.2016  16041.6  125.941
 16.2436  16127.4  126.65
 16.2856  16019.5  125.745
 16.3276  15619.6  124.609
 16.3696  15606.7  124.386
 16.4116  15728.4  125.329
 16.4536  15784.7  125.337
 16.4956  16508.1  127.936
 16.5376  16064  126.367
 16.5796  15674  124.212
 16.6216  15743.1  124.732
 16.6636  15654.4  124.558
 16.7056  15724  124.722
 16.7476  15588.6  123.726
 16.7896  15512.4  124.141
 16.8316  15739  125.027
 16.8736  15996  126.308
 16.9156  15862  126.072
 16.9576  15237.5  124.353
 16.9996  15327.3  125.155
 17.0416  15323.1  123.602
 17.0836  15327.7  123.399
 17.1256  15175.2  122.794
 17.1676  15712.2  124.902
 17.2096  15482.1  123.891
 17.2516  15380.4  123.573
 17.2936  15012.1  122.126
 17.3356  14638.6  120.587
 17.3776  14606.8  120.63
 17.4196  14690.4  120.676
 17.4616  15051.8  122.075
 17.5036  15186.9  122.965
 17.5456  14420.7  120.447
 17.5876  14350.1  119.242
 17.6296  14685.2  120.441
 17.6716  14453.6  120.066
 17.7136  15187  123.206
 17.7556  14499.8  120.669
 17.7976  14320.6  119.525
 17.8396  14460.3  119.76
 17.8816  13812  117.579
 17.9236  13947.4  117.962
 17.9656  14107.9  119.275
 18.0076  14681.1  121.107
 18.0496  15488.4  123.512
 18.0916  20688.9  143.381
 18.1336  17987.6  133.81
 18.1756  15638  124.304
 18.2176  15952.9  125.764
 18.2596  14070  117.853
 18.3016  14826.4  121.243
 18.3436  15411.7  123.861
 18.3856  14411.9  119.678
 18.4276  13838.4  116.958
 18.4696  14072.2  118.009
 18.5116  14175.1  118.728
 18.5536  13819.6  117.572
 18.5956  14014.2  117.974
 18.6376  14010.3  118.352
 18.6796  13822.6  116.907
 18.7216  13972.3  118.081
 18.7636  13581.4  116.357
 18.8056  13272.9  114.935
 18.8476  13136.6  114.946
 18.8896  13123.3  114.26
 18.9316  13288.2  114.788
 18.9736  13133  113.996
 19.0156  13703.1  116.852
 19.0576  13939.1  116.709
 19.0996  13530.2  115.688
 19.1416  13450.4  115.739
 19.1836  13108.5  113.865
 19.2256  13008.9  113.647
 19.2676  13286.8  114.925
 19.3096  12984.1  113.848
 19.3516  13281.9  114.944
 19.3936  13216.7  114.72
 19.4356  13273.8  114.874
 19.4776  13105  114.218
 19.5196  13064.8  113.898
 19.5616  13184.8  114.675
 19.6036  13060.1  113.633
 19.6456  13275.6  114.696
 19.6876  13726.4  116.241
 19.7296  13384.5  115.27
 19.7716  13071.7  113.93
 19.8136  13476.4  116.026
 19.8556  13625.8  116.149
 19.8976  13897.3  117.363
 19.9396  13731.3  116.252
 19.9816  13955  117.432
 20.0236  14291.2  119.03
 20.0656  13462.7  115.53
 20.1076  13242.5  115.06
 20.1496  13052.6  114.211
 20.1916  13102.7  113.928
 20.2336  12983.2  113.366
 20.2756  12788.4  112.941
 20.3176  12718.4  112.393
 20.3596  12652.6  112.075
 20.4016  12839  112.711
 20.4436  12604  112.215
 20.4856  12810.8  112.938
 20.5276  12628.1  112.572
 20.5696  12580.4  111.927
 20.6116  12672.9  112.508
 20.6536  12334.6  110.578
 20.6956  12577.3  111.729
 20.7376  12393.3  111.11
 20.7796  12364.6  110.689
 20.8216  12589  111.414
 20.8636  12878.3  113.067
 20.9056  14025.8  117.916
 20.9476  12966.3  113.239
 20.9896  13858.7  116.913
 21.0316  12600  111.374
 21.0736  12842.1  112.962
 21.1156  13163.2  114.518
 21.1576  12552.5  111.874
 21.1996  12515.6  111.701
 21.2416  12460.4  111.292
 21.2836  12638.8  112.054
 21.3256  12481.3  111.437
 21.3676  12535  111.206
 21.4096  12688.7  112.249
 21.4516  12275.7  110.238
 21.4936  12110.6  109.758
 21.5356  12301.3  110.562
 21.5776  12344  110.593
 21.6196  12559.2  111.591
 21.6616  12541.4  111.596
 21.7036  12224.9  109.944
 21.7456  12055.6  109.263
 21.7876  11914.3  108.386
 21.8296  11883.7  108.103
 21.8716  12051.4  109.091
 21.9136  12164.8  109.795
 21.9556  12301.3  110.091
 21.9976  12057.7  109.022
 22.0396  11995.3  108.987
 22.0816  12025  109.625
 22.1236  12491.7  111.207
 22.1656  12019.2  109.266
 22.2076  11835.7  107.836
 22.2496  11782.8  107.635
 22.2916  11763.2  107.426
 22.3336  11920.4  108.825
 22.3756  11897.4  108.467
 22.4176  11685.7  107.358
 22.4596  11453.1  106.839
 22.5016  11763.9  107.806
 22.5436  11895.8  108.279
 22.5856  12267.7  110.207
 22.6276  12251  110.271
 22.6696  11739.5  108.283
 22.7116  11718.7  107.724
 22.7536  11712.2  107.662
 22.7956  11766.2  107.274
 22.8376  11528.8  106.669
 22.8796  11694  107.246
 22.9216  11691.5  107.751
 22.9636  11579.5  106.429
 23.0056  11535  106.355
 23.0476  11902  108.585
 23.0896  12051.4  108.66
 23.1316  11934.5  108.556
 23.1736  11881.5  111.196
 23.2156  11988.7  109.128
 23.2576  12137.7  109.957
 23.2996  11941.6  108.824
 23.3416  12089.9  110.043
 23.3836  12072.1  109.194
 23.4256  12154.4  109.697
 23.4676  12062  108.965
 23.5096  12098.7  109.781
 23.5516  12024.6  108.756
 23.5936  12097.9  109.98
 23.6356  12344.4  110.762
 23.6776  11867.7  108.797
 23.7196  12231.6  110.265
 23.7616  11954.2  108.697
 23.8036  12178.1  109.786
 23.8456  11765  107.452
 23.8876  11893  108.412
 23.9296  11724.5  108.104
 23.9716  11804  107.688
 24.0136  11843.7  108.753
 24.0556  11814.1  108.325
 24.0976  11737.6  107.809
 24.1396  11494  109.25
 24.1816  11658.2  108.794
 24.2236  11709.2  108.341
 24.2656  11679.8  107.698
 24.3076  11623.5  107.703
 24.3496  11956  109.105
 24.3916  11829  108.579
 24.4336  11687.5  108.127
 24.4756  11646.6  107.818
 24.5176  11516.7  106.86
 24.5596  11376.8  106.526
 24.6016  11222.2  105.891
 24.6436  11552  106.954
 24.6856  11330.8  105.666
 24.7276  11356.6  106.099
 24.7696  11424.9  106.533
 24.8116  11223.1  105.755
 24.8536  11219.9  105.754
 24.8956  11312.6  105.927
 24.9376  11308.8  106.088
 24.9796  11127.8  105.345
 25.0216  11204.7  105.827
 25.0636  11148.3  105.208
 25.1056  10941.7  104.648
 25.1476  10790.9  105.771
 25.1896  10827.7  104.491
 25.2316  10933.7  104.274
 25.2736  10824.8  103.411
 25.3156  10697.8  102.887
 25.3576  10605.7  102.864
 25.3996  10732.2  103.463
 25.4416  10630.5  102.947
 25.4836  10645.6  103.529
 25.5256  10730.5  103.311
 25.5676  10717.2  102.984
 25.6096  10463.5  102.322
 25.6516  10628.4  102.635
 25.6936  10619.9  102.914
 25.7356  10602  102.948
 25.7776  10685.6  103.02
 25.8196  10438.1  101.998
 25.8616  10419.5  101.824
 25.9036  10836.9  103.316
 25.9456  10423.9  101.908
 25.9876  10451.8  101.974
 26.0296  10498.3  101.944
 26.0716  10560.6  102.59
 26.1136  10660.8  103.001
 26.1556  10755.3  102.833
 26.1976  10296.2  101.527
 26.2396  10461.9  101.747
 26.2816  10457.9  102.092
 26.3236  10540.5  102.638
 26.3656  10591.8  102.624
 26.4076  10321.9  101.514
 26.4496  10638  102.651
 26.4916  10669.1  102.691
 26.5336  10999.2  104.609
 26.5756  11090.3  104.923
 26.6176  10679.5  102.972
 26.6596  10481.5  102.314
 26.7016  10386.3  101.626
 26.7436  10232.7  101.008
 26.7856  10215.1  100.894
 26.8276  10141.1  100.501
 26.8696  10093.8  100.142
 26.9116  10237.6  100.788
 26.9536  10139.9  100.353
 26.9956  9995.23  99.6631
 27.0376  10039.2  100.118
 27.0796  10200.3  100.713
 27.1216  10316.4  101.276
 27.1636  10064.1  100.18
 27.2056  10059.9  100.048
 27.2476  9976.01  99.6213
 27.2896  9725.94  98.4807
 27.3316  9942.6  99.2895
 27.3736  9754.97  98.6125
 27.4156  9846.57  98.9265
 27.4576  9934.16  99.5796
 27.4996  10014.6  99.603
 27.5416  9961.38  99.6322
 27.5836  9764.32  98.482
 27.6256  9941.38  99.5439
 27.6676  9853.54  99.0949
 27.7096  9930.92  99.3703
 27.7516  10487.3  102.246
 27.7936  10672.9  103.323
 27.8356  10488.6  102.03
 27.8776  10293.2  101.147
 27.9196  9939.42  99.2413
 27.9616  10198  100.727
 28.0036  9868.62  99.0516
 28.0456  9668.78  98.1666
 28.0876  9710.15  98.4668
 28.1296  9663.34  98.0699
 28.1716  9907.15  99.3239
 28.2136  9654.46  98.0072
 28.2556  9738.24  98.5546
 28.2976  9672.93  98.2068
 28.3396  9622.38  97.7375
 28.3816  9669.46  97.9617
 28.4236  9746.52  98.4993
 28.4656  9522.94  97.4071
 28.5076  9487.16  96.8692
 28.5496  9446.01  96.9157
 28.5916  9535.55  97.1816
 28.6336  9531.65  97.5077
 28.6756  9575.72  96.9334
 28.7176  9513.06  97.1623
 28.7596  9307.65  96.0018
 28.8016  9293.91  95.9702
 28.8436  9323.76  96.3594
 28.8856  9316.78  96.1833
 28.9276  9509.85  97.4127
 28.9696  9276.85  95.8773
 29.0116  9246.03  95.8843
 29.0536  9198.3  95.8519
 29.0956  9338.29  96.2922
 29.1376  9302.52  96.0724
 29.1796  9327.6  96.2606
 29.2216  9200.04  95.4341
 29.2636  9333.71  96.1308
 29.3056  9161.2  95.0947
 29.3476  9308.13  96.3683
 29.3896  9239.84  96.1211
 29.4316  9185.21  95.1742
 29.4736  9036.83  94.4564
 29.5156  9123.46  94.8359
 29.5576  9075.21  95.3126
 29.5996  8995.75  94.1717
 29.6416  8984.13  94.2298
 29.6836  9006.16  94.272
 29.7256  8904.71  94.2828
 29.7676  8994.23  94.4201
 29.8096  9006.01  94.4336
 29.8516  8846.09  93.9011
 29.8936  9002.68  94.83
 29.9356  9035.31  94.7633
 29.9776  8911.31  94.2583
 30.0196  9140.86  94.8731
 30.0616  9073.67  94.8829
 30.1036  9021.78  94.4454
 30.1456  8854.89  93.7807
 30.1876  8895.15  93.9867
 30.2296  8851.49  93.6936
 30.2716  8847.82  93.3302
 30.3136  8970.95  94.8118
 30.3556  9156.16  95.796
 30.3976  8973.58  96.2662
 30.4396  9491.75  96.425
 30.4816  9281.24  94.9453
 30.5236  9217.62  94.6219
 30.5656  9140.21  94.8699
 30.6076  9087.5  94.3336
 30.6496  9299.73  95.5135
 30.6916  8897.5  93.503
 30.7336  9063.49  94.5187
 30.7756  9032.61  94.4423
 30.8176  9106.28  94.7473
 30.8596  8945.64  93.6698
 30.9016  9083.07  94.2889
 30.9436  9047.02  94.2965
 30.9856  9202.15  95.2308
 31.0276  9064.82  94.1495
 31.0696  8992.79  94.3137
 31.1116  9005.98  94.3677
 31.1536  8974.84  94.0572
 31.1956  9027.32  94.4251
 31.2376  8688.03  92.6569
 31.2796  8909.21  93.3789
 31.3216  8862.36  93.0738
 31.3636  8936.13  94.1568
 31.4056  8800.35  94.6797
 31.4476  8836.67  92.8794
 31.4896  8777.9  93.0589
 31.5316  9100.67  94.2044
 31.5736  9631.45  96.699
 31.6156  9365.07  95.3581
 31.6576  9056.68  93.8516
 31.6996  9179.63  94.152
 31.7416  9154.86  94.9711
 31.7836  8991.85  93.2598
 31.8256  9009.05  93.7068
 31.8676  9079.11  93.9843
 31.9096  8790.45  92.6864
 31.9516  8836.8  93.2426
 31.9936  8767  92.7
 32.0356  9002.47  93.9837
 32.0776  8973.38  93.7351
 32.1196  8923.12  93.4963
 32.1616  9051.38  93.7028
 32.2036  8877.56  93.3062
 32.2456  8745.89  92.9714
 32.2876  8760.82  92.3917
 32.3296  8887.47  93.1973
 32.3716  8640.37  91.9847
 32.4136  8638.18  92.1641
 32.4556  8792.12  92.4362
 32.4976  8797.94  92.3654
 32.5396  8662.22  91.6723
 32.5816  8590.65  91.4227
 32.6236  8680.25  91.9431
 32.6656  8644.09  92.2944
 32.7076  8581.18  91.6211
 32.7496  8500.61  90.8695
 32.7916  8650.89  91.6268
 32.8336  8556.9  91.224
 32.8756  8756.18  91.9988
 32.9176  8696.32  92.1674
 32.9596  8685.99  92.1828
 33.0016  8767.8  92.3861
 33.0436  8496.5  91.0963
 33.0856  8478.55  91.1171
 33.1276  8408.58  90.4682
 33.1696  8529.86  90.954
 33.2116  8623.8  91.6918
 33.2536  8635.73  91.7448
 33.2956  8582.17  91.5497
 33.3376  8434.91  90.5713
 33.3796  8574.45  91.4617
 33.4216  8420.84  90.2323
 33.4636  8568.72  91.1821
 33.5056  8307.28  90.0186
 33.5476  8436.57  90.7003
 33.5896  8479.62  90.7018
 33.6316  8490.3  91.0922
 33.6736  8230.59  89.9196
 33.7156  8342.07  90.5495
 33.7576  8444.66  90.7565
 33.7996  8421.18  90.3948
 33.8416  8238.51  89.5957
 33.8836  8387.61  90.1777
 33.9256  8383.99  90.2242
 33.9676  8398.44  90.1948
 34.0096  8284.3  89.8861
 34.0516  8220.29  89.1791
 34.0936  8136.37  88.993
 34.1356  8434.37  90.3437
 34.1776  8168.5  88.9049
 34.2196  8287.92  89.7363
 34.2616  8214.04  89.4768
 34.3036  8416.46  90.821
 34.3456  8274.65  89.8073
 34.3876  8336.4  90.1958
 34.4296  8219.17  89.1746
 34.4716  8417.85  90.3845
 34.5136  8294.53  89.9056
 34.5556  8172.67  89.4988
 34.5976  8449.03  90.8535
 34.6396  8336.65  89.9294
 34.6816  8312.48  89.9069
 34.7236  8263.6  89.3988
 34.7656  8305.33  89.8513
 34.8076  8150.89  89.3348
 34.8496  8189.21  89.3888
 34.8916  8305.24  89.8738
 34.9336  8264.95  89.6486
 34.9756  8435.46  90.5285
 35.0176  8269.61  90.1199
 35.0596  8301.92  90.1335
 35.1016  8402.37  90.4288
 35.1436  8404.7  90.1289
 35.1856  8228.52  89.2992
 35.2276  8289.04  89.7929
 35.2696  8188.69  89.4422
 35.3116  8115.41  89.1311
 35.3536  8342.84  90.1223
 35.3956  8172.19  88.886
 35.4376  8355.18  90.4423
 35.4796  8179.94  89.5136
 35.5216  8229.21  89.7524
 35.5636  8013.22  89.2939
 35.6056  8070.97  88.6436
 35.6476  8210.14  89.3167
 35.6896  8207.93  89.4651
 35.7316  8112.66  88.8512
 35.7736  8105.94  88.9914
 35.8156  8111.09  89.0305
 35.8576  8163.19  89.5591
 35.8996  8175.86  89.5969
 35.9416  8079.8  88.5788
 35.9836  8014.52  88.6608
 36.0256  8267.63  89.9629
 36.0676  8303  89.6855
 36.1096  8120.07  89.0555
 36.1516  8160.17  89.1569
 36.1936  8171.28  89.0541
 36.2356  8124.14  89.454
 36.2776  8176.44  89.2097
 36.3196  8086.01  88.4102
 36.3616  8074.1  88.4693
 36.4036  7977.53  88.0099
 36.4456  8060.8  88.6811
 36.4876  7870.79  87.5587
 36.5296  7961.75  88.1011
 36.5716  8022.36  89.1955
 36.6136  8138.69  88.6265
 36.6556  8052.16  88.3443
 36.6976  7993.49  88.5091
 36.7396  7790.21  87.1291
 36.7816  7721.7  87.0995
 36.8236  7865.4  87.8393
 36.8656  7776.35  87.4057
 36.9076  7735.43  87.1736
 36.9496  7767.14  87.2159
 36.9916  7676.9  86.349
 37.0336  7887.21  87.8296
 37.0756  7906.11  87.7344
 37.1176  7590.97  86.2312
 37.1596  7814.12  87.4919
 37.2016  7742.37  87.2701
 37.2436  7884.45  87.4405
 37.2856  7742.46  86.8904
 37.3276  7772.14  86.4345
 37.3696  7690.15  86.841
 37.4116  7707.52  86.8346
 37.4536  7605.99  86.133
 37.4956  7630.35  86.3112
 37.5376  7834.52  89.0433
 37.5796  7739.84  88.434
 37.6216  7759.4  86.8475
 37.6636  7802.14  86.9877
 37.7056  7719.77  86.7024
 37.7476  7882.49  87.1727
 37.7896  7638.36  86.2843
 37.8316  7721.26  86.9167
 37.8736  7688.03  86.2528
 37.9156  7679.86  86.2038
 37.9576  7843.02  87.0384
 37.9996  7695.25  85.9333
 38.0416  7744.23  86.9826
 38.0836  7745.2  86.9056
 38.1256  7836.82  87.3889
 38.1676  7724.01  86.8806
 38.2096  8001.03  88.0492
 38.2516  7699.02  86.5628
 38.2936  7993.02  88.0178
 38.3356  7737.03  86.5131
 38.3776  7643.58  86.2441
 38.4196  7802.49  86.9676
 38.4616  7784.33  87.1341
 38.5036  7763.32  86.863
 38.5456  7611.82  86.8192
 38.5876  7639.83  87.0005
 38.6296  7697.33  86.3286
 38.6716  7673.65  85.9967
 38.7136  7606.38  85.5775
 38.7556  7627.63  86.1944
 38.7976  7736.08  86.7225
 38.8396  7548.02  86.1202
 38.8816  7672.58  86.6272
 38.9236  7749.21  86.8514
 38.9656  7692.32  86.4506
 39.0076  7735.15  86.0937
 39.0496  7718.38  86.5596
 39.0916  7802.39  86.674
 39.1336  7672.12  86.3432
 39.1756  7660.26  86.3388
 39.2176  7569.18  86.3474
 39.2596  7615.32  86.5337
 39.3016  7649.42  86.3156
 39.3436  7666.56  86.8284
 39.3856  7539.36  85.5599
 39.4276  7882.01  87.997
 39.4696  7673.08  86.4447
 39.5116  7728.42  87.2529
 39.5536  7650.31  87.209
 39.5956  7629.79  86.22
 39.6376  7652.73  86.3418
 39.6796  7616.57  85.891
 39.7216  7663.13  86.2512
 39.7636  7666.53  86.8324
 39.8056  7608.15  86.2905
 39.8476  7491.43  85.8683
 39.8896  7714.33  86.7827
 39.9316  7536.15  86.0134
 39.9736  7658.69  86.2892
 40.0156  7580.05  85.6799
 40.0576  7622.04  86.2544
 40.0996  7650.54  85.6211
 40.1416  7553.97  85.8508
 40.1836  7643.09  86.2481
 40.2256  7590.35  85.9909
 40.2676  7551.32  85.9246
 40.3096  7718  86.7418
 40.3516  7656.93  86.5056
 40.3936  7712.52  86.3761
 40.4356  7555.29  85.6981
 40.4776  7773.75  87.1646
 40.5196  7646.17  86.7198
 40.5616  7853.12  87.5472
 40.6036  7570.94  86.2108
 40.6456  7568.64  85.7985
 40.6876  7704.86  86.5731
 40.7296  7576.09  85.9681
 40.7716  7613.66  86.2842
 40.8136  7518.28  85.6983
 40.8556  7791.53  87.394
 40.8976  7680.56  86.6882
 40.9396  7609.42  86.6309
 40.9816  7733.22  86.6247
 41.0236  7591.43  85.6083
 41.0656  7716.2  86.8465
 41.1076  7647.52  86.2279
 41.1496  7601.29  85.8823
 41.1916  7596.44  86.1657
 41.2336  7662.31  86.5467
 41.2756  7615.49  85.8861
 41.3176  7731.99  87.1421
 41.3596  7714.35  86.7839
 41.4016  7625.13  86.5286
 41.4436  7668.24  86.5648
 41.4856  7593.43  86.2961
 41.5276  7637.88  86.5755
 41.5696  7692.76  86.5021
 41.6116  7630.92  86.5584
 41.6536  7631.3  86.4088
 41.6956  7682.63  86.6889
 41.7376  7617.88  86.4154
 41.7796  7629.04  86.4096
 41.8216  7713.03  87.053
 41.8636  7580.3  86.2594
 41.9056  7529.5  85.7771
 41.9476  7616.19  86.4964
 41.9896  7664.8  86.4459
 42.0316  7693.96  86.6926
 42.0736  7710.21  86.9184
 42.1156  7682.61  86.5624
 42.1576  7642.2  86.4382
 42.1996  7629.46  86.4996
 42.2416  7605.91  85.9565
 42.2836  7622.66  86.1725
 42.3256  7521.08  85.6989
 42.3676  7744.49  86.7706
 42.4096  7697.25  86.4808
 42.4516  7697.28  86.5588
 42.4936  7628.45  86.2293
 42.5356  7520.96  85.7605
 42.5776  7626.91  86.3049
 42.6196  7579.94  86.0926
 42.6616  7582.03  86.2794
 42.7036  7639.19  85.9891
 42.7456  7700.34  86.6967
 42.7876  7594.05  86.1705
 42.8296  7608.78  86.0974
 42.8716  7412.05  85.138
 42.9136  7497.52  85.3795
 42.9556  7595.21  86.1059
 42.9976  7572.94  85.9486
 43.0396  7504.64  85.2893
 43.0816  7522.02  85.7724
 43.1236  7425.29  85.2623
 43.1656  7529.5  85.6833
 43.2076  7532.05  85.8169
 43.2496  7417.26  84.9816
 43.2916  7487.03  85.7289
 43.3336  7561.9  85.9983
 43.3756  7520.08  85.5281
 43.4176  7387.11  84.8392
 43.4596  7459.9  85.1163
 43.5016  7470.2  85.5564
 43.5436  7553.94  85.9455
 43.5856  7421.39  85.216
 43.6276  7432.71  85.1756
 43.6696  7417.6  85.2302
 43.7116  7556.78  85.6376
 43.7536  7506.08  85.8567
 43.7956  7275.08  85.6935
 43.8376  7290.93  84.3405
 43.8796  7194.91  83.8531
 43.9216  7256.81  84.1377
 43.9636  7320.2  84.5987
 44.0056  7326.79  84.8739
 44.0476  7257.33  84.1043
 44.0896  7156.92  83.859
 44.1316  7302.7  84.3826
 44.1736  7263.28  84.1381
 44.2156  7261.69  83.9939
 44.2576  7216.5  84.0349
 44.2996  7217.68  84.0232
 44.3416  7206.76  83.7152
 44.3836  7162.02  83.7834
 44.4256  7168.12  83.4612
 44.4676  7219.82  83.9229
 44.5096  7144.37  83.6234
 44.5516  7113.41  83.4019
 44.5936  7013.17  82.769
 44.6356  7274.53  84.0424
 44.6776  7199.06  83.921
 44.7196  7253.42  84.5247
 44.7616  7294.24  86.0811
 44.8036  7345.14  85.0321
 44.8456  7419.78  85.4696
 44.8876  7389.06  85.14
 44.9296  7451.02  84.9397
 44.9716  7360.8  84.8565
 45.0136  7327.91  84.6
 45.0556  7318.42  84.6356
 45.0976  7463.74  85.513
 45.1396  7243.24  84.0005
 45.1816  7274.99  84.1068
 45.2236  7352.9  84.4887
 45.2656  7197.52  84.0636
 45.3076  7227.94  84.0398
 45.3496  7209.47  84.2241
 45.3916  7281.82  84.9246
 45.4336  7484.43  85.9492
 45.4756  7244.79  84.4001
 45.5176  7422.78  85.066
 45.5596  7355.29  84.7937
 45.6016  7177.14  84.1725
 45.6436  7225.28  83.6315
 45.6856  7257.77  84.4801
 45.7276  7101.52  84.8378
 45.7696  7230.76  85.3033
 45.8116  7306.48  85.1944
 45.8536  7274.99  84.9014
 45.8956  7220.02  83.9557
 45.9376  7193.05  83.2682
 45.9796  7416.73  85.2583
 46.0216  7298.13  84.8974
 46.0636  7303.44  84.0716
 46.1056  7238.73  83.6932
 46.1476  7383.79  85.116
 46.1896  7168.95  84.0077
 46.2316  7257.58  84.4071
 46.2736  7217.83  84.3832
 46.3156  7358.67  84.9468
 46.3576  7223.96  84.3657
 46.3996  7245.23  84.649
 46.4416  7238.66  84.1636
 46.4836  7176.52  84.1772
 46.5256  7259.11  84.6024
 46.5676  7279.72  84.8348
 46.6096  7317.65  84.9809
 46.6516  7437.35  84.7189
 46.6936  7322.68  84.5581
 46.7356  7347.1  84.8012
 46.7776  7186.28  84.6845
 46.8196  7147.11  84.1955
 46.8616  7071.29  83.5519
 46.9036  7054.99  83.1228
 46.9456  7170.69  83.4417
 46.9876  7170.81  83.5284
 47.0296  7186.24  84.298
 47.0716  7118.01  83.7285
 47.1136  7223.18  84.0301
 47.1556  7107.98  83.2204
 47.1976  7155.43  83.6488
 47.2396  7067.76  83.4562
 47.2816  7082.26  83.2481
 47.3236  7114.03  83.7915
 47.3656  7128.99  83.8147
 47.4076  7179.25  83.8397
 47.4496  7120.19  83.6693
 47.4916  7049.99  83.433
 47.5336  7241.1  84.3717
 47.5756  7281.15  84.7288
 47.6176  7091.21  83.5152
 47.6596  7137.01  83.5001
 47.7016  7196.9  83.6709
 47.7436  7127.88  83.6081
 47.7856  7183.89  83.9564
 47.8276  7041.02  83.154
 47.8696  7162.05  83.9512
 47.9116  7143.12  83.5654
 47.9536  7079.2  83.1238
 47.9956  7042.99  83.6219
 48.0376  6976.13  82.9992
 48.0796  7173.84  84.2878
 48.1216  7133.25  83.8784
 48.1636  7286.49  84.3446
 48.2056  7145.48  83.7892
 48.2476  7216.11  84.5186
 48.2896  7284.41  84.8172
 48.3316  7172.35  84.0914
 48.3736  7053.35  83.4246
 48.4156  7120.23  83.6713
 48.4576  7087.82  83.7774
 48.4996  7217.05  83.9842
 48.5416  7206.41  84.26
 48.5836  7194.41  83.859
 48.6256  7234.59  84.3049
 48.6676  7140.27  84.2627
 48.7096  7184.37  83.7843
 48.7516  7147.95  83.7225
 48.7936  7066.48  83.3051
 48.8356  7035.93  83.1794
 48.8776  7140.51  84.2885
 48.9196  7234.3  84.2925
 48.9616  7159.12  84.2227
 49.0036  7185.4  84.7413
 49.0456  7149.15  84.4972
 49.0876  7118.44  83.9434
 49.1296  7135.78  84.1144
 49.1716  7068.32  83.5872
 49.2136  7186.3  84.2106
 49.2556  7185.32  84.2309
 49.2976  7189.29  84.3341
 49.3396  7011.94  83.3371
 49.3816  7208.81  83.9313
 49.4236  7160.91  84.0803
 49.4656  7001.52  83.1457
 49.5076  7132.11  83.6731
 49.5496  7062.05  83.3265
 49.5916  7052.97  83.1875
 49.6336  7036.88  83.2854
 49.6756  7163.1  84.2849
 49.7176  7007.14  83.2919
 49.7596  7055.92  83.3491
 49.8016  7121.29  83.6488
 49.8436  6996.17  83.2026
 49.8856  7032.5  83.4309
 49.9276  7021.12  83.4664
 49.9696  7081.71  83.8097
 50.0116  7050.95  83.741
 50.0536  7061.39  83.7649
 50.0956  7032.37  83.6527
 50.1376  7017.93  83.2768
 50.1796  7024.74  83.584
 50.2216  7031.59  83.6085
 50.2636  7107.38  83.6893
 50.3056  7034.81  83.4365
 50.3476  7015.87  83.3432
 50.3896  6991.11  83.1638
 50.4316  7107.29  83.6867
 50.4736  6894.61  82.6451
 50.5156  6985.84  83.1687
 50.5576  7084.65  83.5235
 50.5996  7028.66  83.4762
 50.6416  6983.21  83.1267
 50.6836  6973.83  83.1353
 50.7256  7084.18  83.7156
 50.7676  7101.64  84.1237
 50.8096  7074.19  83.5098
 50.8516  6944.14  83.1551
 50.8936  6921.64  82.7913
 50.9356  7000.85  83.3814
 50.9776  6965.83  83.3273
 51.0196  6710.47  81.9026
 51.0616  6872.46  82.2139
 51.1036  6913.71  82.8129
 51.1456  6886.42  82.5645
 51.1876  6960.78  82.3324
 51.2296  6820.27  82.1434
 51.2716  6788.24  81.6495
 51.3136  6799.7  82.1826
 51.3556  6803.42  81.821
 51.3976  6758.47  81.7021
 51.4396  6672.81  81.4951
 51.4816  6780.8  82.0063
 51.5236  6861.84  82.5852
 51.5656  6740.63  81.4459
 51.6076  6790.46  81.8354
 51.6496  6823.63  82.2143
 51.6916  6740.48  82.0827
 51.7336  6808.98  82.5779
 51.7756  6868.24  82.6233
 51.8176  6668.8  81.5361
 51.8596  6766.54  82.1423
 51.9016  6872.19  82.3869
 51.9436  6793.27  83.4182
 51.9856  6817.3  83.9891
 52.0276  6880.22  82.8417
 52.0696  6900.91  83.051
 52.1116  6720.71  82.0574
 52.1536  6889.03  82.9272
 52.1956  6831  82.08
 52.2376  6957.05  83.0128
 52.2796  6936.96  82.7104
 52.3216  6877.23  83.0467
 52.3636  6916.11  82.8304
 52.4056  6809.66  82.0673
 52.4476  6642.38  81.4155
 52.4896  6719.02  81.9255
 52.5316  6843.38  82.7494
 52.5736  6594.05  80.9173
 52.6156  6842.45  82.8559
 52.6576  6777.79  81.8773
 52.6996  6462.12  80.9233
 52.7416  6590.99  81.5743
 52.7836  6697  82.1298
 52.8256  6723.96  81.5074
 52.8676  6637.86  81.5576
 52.9096  6776.63  82.4776
 52.9516  6631.09  81.9692
 52.9936  6642.8  82.4156
 53.0356  6720.96  81.9188
 53.0776  6863.27  83.0858
 53.1196  6711.73  82.2539
 53.1616  6751.62  82.5409
 53.2036  6691.3  82.1392
 53.2456  6790.72  82.8554
 53.2876  6807.83  82.6473
 53.3296  6698.43  82.3101
 53.3716  6810.18  82.7429
 53.4136  6888.31  83.3686
 53.4556  6643.88  81.9057
 53.4976  6642.86  81.7293
 53.5396  6650.46  82.1722
 53.5816  6651.18  81.8238
 53.6236  6585.78  81.7681
 53.6656  6734.32  82.2848
 53.7076  6798.17  82.6254
 53.7496  6764.22  82.5586
 53.7916  6641.7  81.9457
 53.8336  6757.11  82.551
 53.8756  6524.23  81.6485
 53.9176  6598.65  81.4551
 53.9596  6453.15  81.2873
 54.0016  6492.7  80.8739
 54.0436  6385.14  80.4214
 54.0856  6500.2  80.5834
 54.1276  6443.38  80.418
 54.1696  6481.35  80.8279
 54.2116  6489.2  80.6175
 54.2536  6473.75  80.3307
 54.2956  6401.69  79.9187
 54.3376  6319.74  79.8972
 54.3796  6407.66  80.3481
 54.4216  6498.93  80.9717
 54.4636  6400.27  80.3214
 54.5056  6485.35  80.6558
 54.5476  6395.49  80.4372
 54.5896  6386.74  80.2223
 54.6316  6370.49  79.9701
 54.6736  6303.46  79.5787
 54.7156  6400.44  80.2744
 54.7576  6365.51  80.0141
 54.7996  6475.02  80.8859
 54.8416  6367.97  80.2517
 54.8836  6453.59  80.8864
 54.9256  6275.79  79.5197
 54.9676  6261.92  79.2958
 55.0096  6345.29  79.8434
 55.0516  6239.7  79.3683
 55.0936  6341.6  79.7412
 55.1356  6255.94  79.2384
 55.1776  6466.88  80.8067
 55.2196  6337.98  79.7796
 55.2616  6362.52  80.1778
 55.3036  6190.71  79.2482
 55.3456  6123.43  78.9224
 55.3876  6322.22  79.9506
 55.4296  6201.27  79.1733
 55.4716  6313.38  79.9077
 55.5136  6291.35  79.5418
 55.5556  6436.59  80.5118
 55.5976  6299.02  79.7137
 55.6396  6295.62  79.5662
 55.6816  6268.94  79.3445
 55.7236  6183.98  78.8421
 55.7656  6263.94  79.094
 55.8076  6199.67  78.6911
 55.8496  6350.28  80.0739
 55.8916  6224.31  79.3239
 55.9336  6340.74  79.9366
 55.9756  6219.63  79.0529
 56.0176  6150.26  78.7475
 56.0596  6126.36  78.5862
 56.1016  6063.44  78.2304
 56.1436  6140.13  78.9429
 56.1856  6115.29  78.5294
 56.2276  6386.36  80.3131
 56.2696  6175.18  78.9407
 56.3116  6260.37  79.8717
 56.3536  6180.79  79.0187
 56.3956  6087.26  78.4164
 56.4376  6142.3  78.8176
 56.4796  6007.68  77.7437
 56.5216  6083.21  78.6143
 56.5636  6043.99  77.9244
 56.6056  6227.54  79.3481
 56.6476  6125.51  78.3257
 56.6896  6264.33  79.6616
 56.7316  6127.82  78.6984
 56.7736  6137.6  78.7506
 56.8156  6155.46  78.8956
 56.8576  5998.05  77.8204
 56.8996  6163.94  78.8047
 56.9416  6092.96  78.6436
 56.9836  6162.6  78.6235
 57.0256  6128.15  78.6966
 57.0676  6169.45  79.1015
 57.1096  6119.71  78.5655
 57.1516  5996.3  77.7785
 57.1936  6130.01  78.4496
 57.2356  5899.17  77.2708
 57.2776  6089.69  78.4723
 57.3196  6072.93  78.7175
 57.3616  6107.09  78.4353
 57.4036  6004.35  77.8303
 57.4456  6088.54  78.3601
 57.4876  6149.47  78.6232
 57.5296  5998.45  77.8602
 57.5716  5984.43  77.8607
 57.6136  5877.95  77.0143
 57.6556  6055.73  78.2967
 57.6976  5998.16  77.7718
 57.7396  5912.89  77.5416
 57.7816  5870.66  77.6427
 57.8236  5920.39  77.7556
 57.8656  6059.59  78.332
 57.9076  5975.95  77.8015
 57.9496  5991.76  78.2628
 57.9916  5948.35  77.5027
 58.0336  5963.89  77.8847
 58.0756  6039.43  77.9662
 58.1176  5913.52  77.1794
 58.1596  5941.61  77.9416
 58.2016  5794.44  76.1964
 58.2436  5730.44  76.1693
 58.2856  5730.79  76.099
 58.3276  5649.64  75.92
 58.3696  5774.39  76.5176
 58.4116  5791.89  76.4964
 58.4536  5861.3  76.8429
 58.4956  5724.76  76.1172
 58.5376  5728.28  75.7228
 58.5796  5638.29  75.529
 58.6216  5770.4  76.2382
 58.6636  5739.09  76.2312
 58.7056  5736.28  76.0779
 58.7476  5745.18  76.5685
 58.7896  5728.5  76.108
 58.8316  5813.63  76.6762
 58.8736  5711.54  76.0053
 58.9156  5726.53  76.1535
 58.9576  5698.83  76.2672
 58.9996  5838  76.469
 59.0416  5769.82  76.3664
 59.0836  5801.18  76.497
 59.1256  5582.57  75.7155
 59.1676  5732.35  77.0278
 59.2096  5763.76  76.5445
 59.2516  5734.54  75.9422
 59.2936  5844.08  76.9867
 59.3356  5597.74  75.229
 59.3776  5705.36  76.1129
 59.4196  5594.42  75.3082
 59.4616  5732.24  76.0932
 59.5036  5616.83  75.3565
 59.5456  5799.12  76.2701
 59.5876  5736.1  76.0407
 59.6296  5434.3  74.0789
 59.6716  5574.32  75.0829
 59.7136  5807.05  76.6227
 59.7556  5664.81  75.8106
 59.7976  5832.06  76.6683
 59.8396  5735.66  75.929
 59.8816  5672.36  76.0374
 59.9236  5663.46  75.6326
 59.9656  5666.1  75.9027
 60.0076  5664.34  75.2688
 60.0496  5658.77  75.7194
 60.0916  5784.74  75.9882
 60.1336  5602.85  75.8501
 60.1756  5681.58  77.5294
 60.1996  0.0000000E+00  0.0000000E+00