File: docs/examples/opeando_xrd/IS17_D/Data/IS17_D/17_Da_f00061.xye
# /beamlines/bl04/projects/cycle2025-II/20250340211-lsimonelli/DATA/IS17_D/17_Da_f00061.xye : mythproc.py merge -s 0.006 -l 0.5 -f /beamlines/bl04/inhouse/ff/FlatField/ff_20Nov2024rod8mm60s_17keV.raw -b True -c true -o xye /beamlines/bl04/projects/cycle2025-II/20250340211-lsimonelli/DATA/IS17_D/17_Da_00061.dat
# IsMon = [6760978, 6758195, 6757560]  IsPos = [-1.4999, -2.4884, -3.4988]
# Wave = 0.4962  CalPath /beamlines/bl04/projects/cycle2025-II/20250340211-lsimonelli/DATA/Align/Si_Pos1_25keV_f00001.cal
# Date = 2025-09-24_10:31:33 Dt = 4.8000  Bin = 0.0060  <imon> = 6758911 +/- 1484 (Min/Max) 6757560 / 6760978
# icurr 249.7803  mocoIn 1.7042E-05  mocoOut 0.8002  i15 7.07688e+06  imon 6.75891e+06  i7 5.6667  iEMpd_timer 4.8000  iEMpd_1 3.5511E-08  iEMpd_2 7.8798E-08  iEMpd_3 1.5819E-08  iEMpd_4 4.8196E-08  iEMhp_timer 4.8000  iEMhp_1 4.8806E-06  iEMhp_2 -2.5505E-08  iEMhp_3 -2.4968E-08  iEMhp_4 -2.2809E-08
#      9776
 1.5856  40522.4  206.673
 1.6276  47289.1  219.432
 1.6696  53966.4  233.586
 1.7116  62664.8  252.201
 1.7536  71768.3  268.749
 1.7956  76732.9  278.583
 1.8376  72695.1  271.584
 1.8796  61234  247.419
 1.9216  49703.1  223.802
 1.9636  41787  204.366
 2.0056  37391.6  192.57
 2.0476  34368.6  186.646
 2.0896  33621  183.522
 2.1316  32285.6  178.976
 2.1736  31072.5  176.974
 2.2156  31571.2  176.957
 2.2576  30097.5  173.398
 2.2996  29318.7  171.767
 2.3416  29281.1  170.285
 2.3836  28768  168.892
 2.4256  27887.4  166.829
 2.4676  27518.8  165.488
 2.5096  27040.1  164.096
 2.5516  26494.8  166.221
 2.5936  26513.1  162.913
 2.6356  26095.8  162.306
 2.6776  26155.8  161.395
 2.7196  25502.2  159.874
 2.7616  25544.7  159.787
 2.8036  25075.8  158.484
 2.8456  25041.5  158.984
 2.8876  24523  157.212
 2.9296  24225.1  156.372
 2.9716  23958.3  155.008
 3.0136  23879.4  154.819
 3.0556  24041.3  155.737
 3.0976  23810.5  153.919
 3.1396  23391.5  153.279
 3.1816  23283.9  152.86
 3.2236  23470.2  153.461
 3.2656  23252.2  151.806
 3.3076  23054  152.59
 3.3496  23446.5  152.832
 3.3916  23893.5  154.106
 3.4336  24339.7  156.115
 3.4756  24439.2  156.351
 3.5176  25361.3  159.072
 3.5596  25286  161.268
 3.6016  25509.9  159.608
 3.6436  24496.2  157.5
 3.6856  24283.2  155.12
 3.7276  23180.1  152.634
 3.7696  23295.9  153.212
 3.8116  22795.5  151.439
 3.8536  22920.4  151.781
 3.8956  22927.5  151.634
 3.9376  22618.1  150.857
 3.9796  22642.8  150.454
 4.0216  22865.2  150.231
 4.0636  22771.7  151.395
 4.1056  22584.9  150.415
 4.1476  22934.4  151.88
 4.1896  23153  152.468
 4.2316  23311.5  152.815
 4.2736  23643.9  153.691
 4.3156  23899.8  154.751
 4.3576  24660.7  157.119
 4.3996  25055.3  158.629
 4.4416  25458.2  159.483
 4.4836  25809.7  160.732
 4.5256  26125.7  162.314
 4.5676  26365.3  163.319
 4.6096  26855.1  163.475
 4.6516  27160.4  164.126
 4.6936  27207.3  165.079
 4.7356  27568.7  165.997
 4.7776  27581.4  165.872
 4.8196  27178.3  165.283
 4.8616  26783.7  163.578
 4.9036  26534.1  162.554
 4.9456  26365.2  162.687
 4.9876  25940.7  161.272
 5.0296  26164.8  161.789
 5.0716  25924.9  161.823
 5.1136  26042.1  161.886
 5.1556  26517  162.833
 5.1976  26840.2  163.802
 5.2396  26875.6  163.615
 5.2816  26967.6  164.344
 5.3236  26972.4  164.077
 5.3656  26700.6  164.167
 5.4076  26400.4  163.392
 5.4496  26691.6  163.783
 5.4916  26456.3  162.81
 5.5336  26718.2  163.628
 5.5756  26395.3  162.653
 5.6176  26573.9  162.648
 5.6596  26669.6  163.899
 5.7016  27148.5  164.637
 5.7436  27260.5  165.25
 5.7856  27146.4  164.962
 5.8276  27396.2  165.449
 5.8696  27475.4  165.854
 5.9116  27437.4  166.334
 5.9536  27568.4  166.482
 5.9956  28236.1  167.853
 6.0376  28069.2  167.996
 6.0796  28172.3  168.137
 6.1216  28306.9  168.749
 6.1636  28636.1  168.783
 6.2056  28649.2  169.492
 6.2476  28627.7  169.295
 6.2896  29048.5  170.215
 6.3316  28762.5  169.544
 6.3736  29067.6  170.34
 6.4156  28907.3  169.758
 6.4576  29354  170.679
 6.4996  29376.6  171.23
 6.5416  29428.2  171.509
 6.5836  29526.1  172.034
 6.6256  29709.1  172.118
 6.6676  29983.6  172.482
 6.7096  29824.8  172.867
 6.7516  30217.3  173.663
 6.7936  30560  174.071
 6.8356  30633.3  174.36
 6.8776  30933.1  176.022
 6.9196  30848.3  176.174
 6.9616  31512.2  177.504
 7.0036  31924.6  178.31
 7.0456  31917.3  177.581
 7.0876  31824.6  179.016
 7.1296  31849.6  178.223
 7.1716  31789.5  177.588
 7.2136  31438  176.389
 7.2556  31883.8  177.798
 7.2976  31921.2  178.399
 7.3396  31793.5  178.261
 7.3816  31674.1  178.137
 7.4236  32086.1  178.58
 7.4656  32301.7  178.662
 7.5076  32477.5  179.282
 7.5496  32300.4  179.337
 7.5916  32490.1  179.891
 7.6336  32844.9  180.765
 7.6756  32743.2  180.333
 7.7176  33209.5  181.918
 7.7596  33126.8  182.945
 7.8016  33313.4  185.628
 7.8436  34245.7  184.89
 7.8856  34294.3  184.63
 7.9276  34764.2  186.288
 7.9696  35066.4  187.407
 8.0116  36519.9  189.769
 8.0536  36356.1  189.602
 8.0956  36326.9  190.704
 8.1376  36778.6  191.358
 8.1796  36817.6  192.004
 8.2216  37685  192.981
 8.2636  37585.6  192.977
 8.3056  37762.4  194.209
 8.3476  38342.4  195.014
 8.3896  38159.3  194.629
 8.4316  38135.1  194.736
 8.4736  38549.1  195.247
 8.5156  38125.7  194.456
 8.5576  37877.4  194.804
 8.5996  37813  193.498
 8.6416  37622.1  194.278
 8.6836  37358.3  193.428
 8.7256  38012.3  194.553
 8.7676  37462.5  196.044
 8.8096  37249.4  192.774
 8.8516  37076.3  191.938
 8.8936  36986  191.594
 8.9356  36383.7  190.353
 8.9776  36869.4  191.74
 9.0196  36558.6  190.588
 9.0616  36760.6  190.593
 9.1036  36138.8  190.164
 9.1456  36478.6  190.419
 9.1876  36392  190.13
 9.2296  36720.6  190.402
 9.2716  35834.8  188.137
 9.3136  35842  188.141
 9.3556  36125.4  188.866
 9.3976  34853.7  186.032
 9.4396  35366.1  187.301
 9.4816  34712.8  185.408
 9.5236  34874.9  185.764
 9.5656  34534.6  185.164
 9.6076  34451.6  185.497
 9.6496  34126.7  184.54
 9.6916  34393.8  185.241
 9.7336  33862.6  183.573
 9.7756  34248.8  185.897
 9.8176  33361.7  182.95
 9.8596  33225.4  181.023
 9.9016  32561.3  179.197
 9.9436  32675.9  179.425
 9.9856  32414.7  178.916
 10.0276  32059.4  179.058
 10.0696  32320.9  178.824
 10.1116  31434.8  176.612
 10.1536  31573.1  177.173
 10.1956  30981.4  175.1
 10.2376  30516.6  173.279
 10.2796  30642.4  173.772
 10.3216  30242.7  172.902
 10.3636  30131.4  172.619
 10.4056  29901.2  172.367
 10.4476  29998.3  172.257
 10.4896  29938.2  171.537
 10.5316  29036  169.641
 10.5736  29091.9  170.206
 10.6156  28797.1  169.107
 10.6576  28966.3  168.17
 10.6996  28438.9  167.293
 10.7416  28380.1  167.368
 10.7836  28369.8  168.037
 10.8256  28119.5  167.726
 10.8676  28187.3  167.462
 10.9096  27506.9  165.465
 10.9516  27471.7  164.29
 10.9936  27647.2  165.006
 11.0356  27463.9  165.102
 11.0776  27222.7  163.683
 11.1196  26746.3  162.991
 11.1616  26426.6  161.713
 11.2036  26567.2  161.984
 11.2456  26844.5  163.545
 11.2876  26603.4  162.525
 11.3296  26459.8  161.995
 11.3716  26833.1  162.819
 11.4136  26910.4  163.969
 11.4556  27359.6  164.993
 11.4976  27914.8  165.603
 11.5396  27319.8  164
 11.5816  26742.6  162.716
 11.6236  26329.4  161.675
 11.6656  26199.9  160.417
 11.7076  25725  159.812
 11.7496  25469.7  162.953
 11.7916  25461.4  158.251
 11.8336  25328.7  158.731
 11.8756  25063  157.426
 11.9176  25036.8  156.995
 11.9596  24766.2  156.324
 12.0016  24823.4  157.314
 12.0436  24748.2  156.491
 12.0856  24407.2  155.941
 12.1276  24621.8  156.525
 12.1696  24449.8  155.127
 12.2116  24782.4  156.176
 12.2536  24318.3  155.536
 12.2956  24437.7  155.257
 12.3376  24109.2  154.404
 12.3796  24370.4  155.702
 12.4216  24290.7  154.667
 12.4636  23898.6  154.324
 12.5056  24152.4  154.412
 12.5476  24420.1  154.794
 12.5896  24410.3  155.41
 12.6316  23901  153.922
 12.6736  24026.1  154.81
 12.7156  23883.2  154.207
 12.7576  24169.7  155.387
 12.7996  24249.1  154.277
 12.8416  24200.4  155.179
 12.8836  24733.9  156.713
 12.9256  24652.1  155.455
 12.9676  24871  156.579
 13.0096  24437  156.294
 13.0516  24619.7  155.917
 13.0936  24656.9  156.434
 13.1356  25042.6  156.634
 13.1776  24536.2  156.028
 13.2196  24816.8  156.58
 13.2616  24817.2  156.895
 13.3036  24843.3  156.945
 13.3456  24806.6  157.191
 13.3876  24632.9  155.918
 13.4296  24577.1  155.898
 13.4716  24624.3  155.654
 13.5136  24708.1  156.076
 13.5556  24631.5  156.448
 13.5976  24782  157.07
 13.6396  24949.4  156.972
 13.6816  24592.5  156.332
 13.7236  25240.2  158.018
 13.7656  24503.8  156.222
 13.8076  24964.8  156.468
 13.8496  24431.4  155.382
 13.8916  24396  156.274
 13.9336  24446.1  155.666
 13.9756  24194.1  154.212
 14.0176  24264.3  155.122
 14.0596  23987.2  154.199
 14.1016  23908.4  154.338
 14.1436  23586.1  152.417
 14.1856  23472.1  152.349
 14.2276  23197.3  151.93
 14.2696  23607.2  153.118
 14.3116  23204.2  151.713
 14.3536  22713.4  150.272
 14.3956  22657.3  149.82
 14.4376  22731.9  149.84
 14.4796  22825.9  150.133
 14.5216  22427.3  149.627
 14.5636  22340.3  148.9
 14.6056  22294.9  148.32
 14.6476  22291.9  147.54
 14.6896  21943.3  146.918
 14.7316  21556.8  146.655
 14.7736  21513.3  145.657
 14.8156  21338.3  145.098
 14.8576  21236.8  144.601
 14.8996  20840.7  144.45
 14.9416  20644.2  143.77
 14.9836  20688.4  143.884
 15.0256  20571.2  142.406
 15.0676  20590.4  142.794
 15.1096  20339.9  141.658
 15.1516  19865.1  140.556
 15.1936  20031.4  140.563
 15.2356  19838.6  140.166
 15.2776  19697.1  139.247
 15.3196  19273  138.746
 15.3616  19111.1  137.916
 15.4036  19073.9  137.633
 15.4456  19368.1  138.347
 15.4876  19054.3  136.898
 15.5296  18862.3  136.484
 15.5716  18495.9  134.763
 15.6136  18638.5  135.612
 15.6556  18604.9  134.726
 15.6976  18391.3  134.24
 15.7396  18381.7  134.6
 15.7816  18145.2  133.232
 15.8236  17927.8  133.142
 15.8656  17952.9  133.025
 15.9076  17740.1  132.052
 15.9496  17601.5  134.306
 15.9916  17636.8  134.893
 16.0336  17441.7  131.019
 16.0756  17462  131.415
 16.1176  17434  131.378
 16.1596  16990  130.872
 16.2016  17167.6  130.304
 16.2436  16963.2  129.903
 16.2856  17033.5  129.716
 16.3276  16742.2  129.019
 16.3696  16876.4  129.356
 16.4116  16787  129.475
 16.4536  16906.8  129.715
 16.4956  16704.1  128.669
 16.5376  16742.6  129.014
 16.5796  16548.9  127.615
 16.6216  16776.8  128.8
 16.6636  16603.2  128.299
 16.7056  16573.9  128.043
 16.7476  16566.1  127.542
 16.7896  16620.8  128.508
 16.8316  16780.5  129.073
 16.8736  16612.4  128.692
 16.9156  16691.9  129.341
 16.9576  16410.8  129.059
 16.9996  16489.6  129.859
 17.0416  16513  128.293
 17.0836  16339.9  127.367
 17.1256  16045.5  126.23
 17.1676  16200.8  126.835
 17.2096  16010.2  125.959
 17.2516  15861.9  125.156
 17.2936  15859  125.462
 17.3356  15472.1  123.928
 17.3776  15676.3  124.939
 17.4196  15795.1  125.111
 17.4616  15743.4  124.82
 17.5036  15492.7  124.194
 17.5456  15201  123.654
 17.5876  15401.5  123.507
 17.6296  15303  122.933
 17.6716  15290.1  123.451
 17.7136  14958.8  122.247
 17.7556  15117.6  123.192
 17.7976  14921.2  122.13
 17.8396  14914.2  121.6
 17.8816  14921.8  122.186
 17.9236  14810.6  121.53
 17.9656  15027.5  122.967
 18.0076  14936.7  122.17
 18.0496  14799.5  120.743
 18.0916  14859.9  121.529
 18.1336  14800.8  121.385
 18.1756  14982.6  121.649
 18.2176  14721.3  120.819
 18.2596  14779.6  120.795
 18.3016  14902.3  121.55
 18.3436  14973.1  121.849
 18.3856  14650  120.65
 18.4276  14826.4  121.043
 18.4696  14558.7  120.049
 18.5116  14725.2  121.025
 18.5536  14737.8  121.441
 18.5956  14435.1  119.735
 18.6376  14562.1  120.671
 18.6796  14328.6  119.01
 18.7216  14586.1  120.579
 18.7636  14339.8  119.542
 18.8056  14276.3  119.217
 18.8476  14342  120.128
 18.8896  14304.4  119.296
 18.9316  14312.8  119.323
 18.9736  14252.9  118.763
 19.0156  14071.4  118.407
 19.0576  14169.4  117.681
 19.0996  14417.3  119.428
 19.1416  13977  117.975
 19.1836  14236.3  118.667
 19.2256  14075.6  118.214
 19.2676  14081.2  118.321
 19.3096  14255  119.309
 19.3516  13963.1  118.031
 19.3936  14037.6  118.249
 19.4356  14135.6  118.516
 19.4776  14028  118.176
 19.5196  14170.2  118.62
 19.5616  14015.5  118.23
 19.6036  14164.1  118.35
 19.6456  14023.2  117.882
 19.6876  14211.2  118.317
 19.7296  14161  118.556
 19.7716  14165.4  118.746
 19.8136  14395.5  119.906
 19.8556  14715.8  120.71
 19.8976  14740.8  120.878
 19.9396  14843.6  120.86
 19.9816  15039.9  121.918
 20.0236  14851.7  121.367
 20.0656  14661.4  120.584
 20.1076  14045.5  118.481
 20.1496  13979.1  118.211
 20.1916  13995.1  117.785
 20.2336  13960.4  117.586
 20.2756  13736.7  117.062
 20.3176  13719.3  116.735
 20.3596  13750.4  116.847
 20.4016  13737.4  116.589
 20.4436  13698.7  116.984
 20.4856  13499.4  115.916
 20.5276  13466.4  116.243
 20.5696  13665.6  116.547
 20.6116  13367.2  115.55
 20.6536  13383.8  115.132
 20.6956  13401.6  115.327
 20.7376  13342.2  115.306
 20.7796  13174.9  114.268
 20.8216  13471.3  115.25
 20.8636  13358.9  115.134
 20.9056  13351.5  115.06
 20.9476  13170.3  114.114
 20.9896  13407.1  115
 21.0316  13573.3  115.609
 21.0736  13400.5  115.394
 21.1156  13351.7  115.35
 21.1576  13275.2  115.062
 21.1996  13244.3  114.91
 21.2416  13165.7  114.391
 21.2836  13277  114.841
 21.3256  13125  114.265
 21.3676  13143.2  113.895
 21.4096  13059  113.841
 21.4516  13026.8  113.579
 21.4936  12749.7  112.617
 21.5356  13019.2  113.738
 21.5776  12981.7  113.414
 21.6196  12900.7  113.096
 21.6616  12885.6  113.119
 21.7036  12847.2  112.725
 21.7456  13077.7  113.811
 21.7876  12929.4  112.912
 21.8296  12866.1  112.49
 21.8716  12771.9  112.307
 21.9136  13027.9  113.633
 21.9556  12898.4  112.739
 21.9976  12854  112.553
 22.0396  12825.9  112.694
 22.0816  12808.5  113.156
 22.1236  12973.1  113.325
 22.1656  12891.7  113.098
 22.2076  12830.8  112.315
 22.2496  12884  112.574
 22.2916  12956.2  112.765
 22.3336  12719.3  112.459
 22.3756  12779.4  112.447
 22.4176  12721.1  112.046
 22.4596  12599.3  112.099
 22.5016  12898.4  112.899
 22.5436  12873.2  112.679
 22.5856  12874.2  112.928
 22.6276  12543.6  111.609
 22.6696  12668  112.515
 22.7116  12672.1  112.04
 22.7536  12694.3  112.117
 22.7956  12815  111.97
 22.8376  12573.7  111.439
 22.8796  12724.4  111.899
 22.9216  12875.7  113.119
 22.9636  12802.9  111.942
 23.0056  12796  112.048
 23.0476  12732.6  112.343
 23.0896  13248.2  113.958
 23.1316  12925.7  113.002
 23.1736  12813.8  115.482
 23.2156  12853.9  113.01
 23.2576  12780.1  112.804
 23.2996  12821.5  112.783
 23.3416  12588.4  112.253
 23.3836  12701  111.999
 23.4256  12679.7  112.021
 23.4676  12627.9  111.489
 23.5096  12663.4  112.325
 23.5516  12578.8  111.228
 23.5936  12576.3  112.124
 23.6356  12917.4  113.3
 23.6776  12731.3  112.696
 23.7196  12481.4  111.15
 23.7616  12731.1  112.185
 23.8036  12748.6  112.291
 23.8456  12603  111.233
 23.8876  12401.5  110.672
 23.9296  12413.8  111.226
 23.9716  12423  110.463
 24.0136  12609.1  112.199
 24.0556  12319  110.63
 24.0976  12125.6  109.559
 24.1396  12128.6  112.24
 24.1816  12256.3  111.232
 24.2236  12092.3  110.091
 24.2656  12011.1  109.195
 24.3076  12015.7  109.461
 24.3496  12184.1  110.126
 24.3916  12034.2  109.494
 24.4336  12004.9  109.567
 24.4756  11947.6  109.176
 24.5176  11784  108.072
 24.5596  11849.5  108.496
 24.6016  11747.1  108.318
 24.6436  11740.3  107.778
 24.6856  11723.2  107.46
 24.7276  11701.5  107.68
 24.7696  11567.3  107.169
 24.8116  11645.5  107.717
 24.8536  11441.8  106.765
 24.8956  11430.3  106.45
 24.9376  11514.1  106.778
 24.9796  11388.7  106.546
 25.0216  11199.8  105.767
 25.0636  11378.2  106.263
 25.1056  11177.4  106.023
 25.1476  11423  108.864
 25.1896  11353.6  107.005
 25.2316  11358.8  106.292
 25.2736  11325.3  105.794
 25.3156  11272  105.618
 25.3576  11317.1  106.255
 25.3996  11278.7  106.055
 25.4416  11277.3  106.031
 25.4836  11096  105.697
 25.5256  11193  105.522
 25.5676  11223.3  105.393
 25.6096  11183  105.781
 25.6516  11174.9  105.242
 25.6936  11085.2  105.126
 25.7356  11243  106.012
 25.7776  11132.9  105.094
 25.8196  10951.4  104.463
 25.8616  11061.9  104.926
 25.9036  11249.9  105.267
 25.9456  11131.7  105.317
 25.9876  10932.9  104.433
 26.0296  11139.3  104.927
 26.0716  10937.1  104.387
 26.1136  11042.4  104.833
 26.1556  11247.9  105.18
 26.1976  10917.5  104.545
 26.2396  10921.7  103.729
 26.2816  11040.6  104.89
 26.3236  10982.3  104.779
 26.3656  10829.7  103.769
 26.4076  11022.5  104.902
 26.4496  11503.5  106.641
 26.4916  10933.2  103.98
 26.5336  10859  103.947
 26.5756  11153.2  105.22
 26.6176  10829.7  103.725
 26.6596  10776.7  103.773
 26.7016  10853.8  103.9
 26.7436  10734.3  103.452
 26.7856  10656.1  103.063
 26.8276  10628.9  102.878
 26.8696  10695.5  103.079
 26.9116  10653.9  102.823
 26.9536  10620.7  102.71
 26.9956  10725.8  103.249
 27.0376  10582.2  102.762
 27.0796  10659.2  102.881
 27.1216  10528  102.311
 27.1636  10372.7  101.72
 27.2056  10419  101.832
 27.2476  10642.6  102.918
 27.2896  10526.1  102.466
 27.3316  10470.4  101.906
 27.3736  10483.6  102.241
 27.4156  10415.4  101.74
 27.4576  10429.3  102.049
 27.4996  10413.9  101.56
 27.5416  10334.9  101.499
 27.5836  10370.4  101.487
 27.6256  10814.3  103.798
 27.6676  10542  102.515
 27.7096  10329.5  101.339
 27.7516  10288.4  101.287
 27.7936  10228.3  101.156
 27.8356  10360.7  101.43
 27.8776  10269.4  101.024
 27.9196  10153.8  100.313
 27.9616  10326.1  101.346
 28.0036  10192.4  100.662
 28.0456  10216.2  100.917
 28.0876  10136.9  100.613
 28.1296  10200  100.766
 28.1716  10055  100.049
 28.2136  10264.4  101.056
 28.2556  10023.6  99.9741
 28.2976  9970.51  99.7058
 28.3396  10146.2  100.337
 28.3816  10138.7  100.322
 28.4236  10106.4  100.321
 28.4656  9880.32  99.2146
 28.5076  10029.9  99.6044
 28.5496  10032.9  99.8847
 28.5916  10012.6  99.5921
 28.6336  9822.63  98.971
 28.6756  10129.7  99.71
 28.7176  9976.55  99.5035
 28.7596  9917.58  99.1051
 28.8016  9987.1  99.4889
 28.8436  9712.66  98.3547
 28.8856  9886.16  99.0775
 28.9276  9947.22  99.6269
 28.9696  9923.7  99.1661
 29.0116  9876.41  99.1197
 29.0536  9661.72  98.2325
 29.0956  9809.69  98.6983
 29.1376  9825.66  98.7437
 29.1796  9800.42  98.6579
 29.2216  9859.6  98.8019
 29.2636  9862.89  98.8945
 29.3056  9744.04  98.0864
 29.3476  9759.47  98.6886
 29.3896  9866.81  99.3217
 29.4316  9927.73  98.9746
 29.4736  9789.97  98.351
 29.5156  9888.24  98.7574
 29.5576  9789.33  99.0111
 29.5996  9816.56  98.4015
 29.6416  9679.12  97.8267
 29.6836  9917.45  98.9514
 29.7256  9629.09  98.069
 29.7676  9836.01  98.7715
 29.8096  9643.21  97.745
 29.8516  9604.73  97.8837
 29.8936  9540.49  97.6487
 29.9356  9797.14  98.7053
 29.9776  9718.33  98.463
 30.0196  9622.6  97.3578
 30.0616  9486.8  97.0456
 30.1036  9652.81  97.713
 30.1456  9634.96  97.8593
 30.1876  9641.47  97.8687
 30.2296  9533.54  97.2684
 30.2716  9721.26  97.8559
 30.3136  9650.01  98.3577
 30.3556  9710.69  98.6724
 30.3976  9531.73  99.2794
 30.4396  9639.78  97.1572
 30.4816  9585.71  96.4894
 30.5236  9593.85  96.5449
 30.5656  9546.72  96.9644
 30.6076  9569.01  96.5098
 30.6496  9550.23  96.7966
 30.6916  9450.19  96.3873
 30.7336  9491.91  96.7461
 30.7756  9539.83  97.0799
 30.8176  9438.53  96.4819
 30.8596  9394.05  96.026
 30.9016  9419.99  96.4985
 30.9436  9581.63  97.066
 30.9856  9360.44  96.0487
 31.0276  9341.68  95.563
 31.0696  9329.13  96.0789
 31.1116  9294.89  95.8777
 31.1536  9406.36  96.337
 31.1956  9297.95  95.8644
 31.2376  9164.16  95.1896
 31.2796  9261.1  95.221
 31.3216  9361.51  95.6791
 31.3636  9382.45  96.4812
 31.4056  9496.01  98.3942
 31.4476  9353.03  95.5288
 31.4896  9246.4  95.486
 31.5316  9316.16  95.2421
 31.5736  9489.25  95.9345
 31.6156  9235.55  94.673
 31.6576  9459.02  95.9036
 31.6996  9271.92  94.6265
 31.7416  9202.86  95.3314
 31.7836  9333.5  95.0187
 31.8256  9023.66  93.693
 31.8676  9453.08  95.8934
 31.9096  9187.87  94.8934
 31.9516  9005.83  94.1097
 31.9936  9113.92  94.5008
 32.0356  9274.24  95.3952
 32.0776  9108.4  94.4225
 32.1196  9238.72  95.182
 32.1616  9167.19  94.2773
 32.2036  9089.35  94.3791
 32.2456  9221.36  95.4466
 32.2876  9076.13  94.193
 32.3296  9075.99  94.158
 32.3716  9083.51  94.307
 32.4136  9177.52  95.0086
 32.4556  9202.4  94.5055
 32.4976  9164.63  94.2272
 32.5396  9143.58  94.186
 32.5816  9033.47  93.7337
 32.6236  9156.1  94.4422
 32.6656  9233.44  95.3877
 32.7076  9082.69  94.2585
 32.7496  9096.91  93.9934
 32.7916  9212.53  94.5505
 32.8336  9098.03  94.0638
 32.8756  9117.08  93.8808
 32.9176  9037.27  93.9573
 32.9596  9018.28  93.9308
 33.0016  9084.73  94.0713
 33.0436  9070.03  94.1619
 33.0856  9035.33  94.0542
 33.1276  9000.68  93.6075
 33.1696  9081.97  93.8727
 33.2116  9006.83  93.7151
 33.2536  9009.28  93.7178
 33.2956  9043.99  93.9874
 33.3376  8899.4  92.973
 33.3796  9079.21  94.1124
 33.4216  9127.63  93.9588
 33.4636  8998.97  93.4423
 33.5056  8825.98  92.7821
 33.5476  8790.28  92.5762
 33.5896  8977.45  93.3385
 33.6316  8817.67  92.8174
 33.6736  8771.6  92.8139
 33.7156  8704.01  92.5043
 33.7576  8795.51  92.6093
 33.7996  8951.51  93.1937
 33.8416  8670.71  91.8984
 33.8836  8855.5  92.6666
 33.9256  8893.18  92.9159
 33.9676  8860.72  92.6472
 34.0096  8745.28  92.3474
 34.0516  8745.91  91.9963
 34.0936  8812.25  92.6091
 34.1356  8864.89  92.626
 34.1776  8709.95  91.8289
 34.2196  8680.37  91.8476
 34.2616  8622.46  91.6774
 34.3036  8728.54  92.4828
 34.3456  8649.93  91.8234
 34.3876  8724.85  92.1778
 34.4296  8731.01  91.9105
 34.4716  8763.37  92.2188
 34.5136  8712.29  92.1648
 34.5556  8617.68  91.9219
 34.5976  8705.55  92.1797
 34.6396  8573.77  91.1965
 34.6816  8610.74  91.497
 34.7236  8669.65  91.6028
 34.7656  8795.01  92.4615
 34.8076  8552.01  91.5003
 34.8496  8623.99  91.7402
 34.8916  8632.12  91.6512
 34.9336  8708.45  92.0312
 34.9756  8621.96  91.4811
 35.0176  8783.4  92.8631
 35.0596  8540.28  91.3973
 35.1016  8600.53  91.4903
 35.1436  8737.63  91.8992
 35.1856  8487.24  90.7004
 35.2276  8600.69  91.4861
 35.2696  8548.09  91.3909
 35.3116  8589.3  91.7075
 35.3536  8502.57  90.9527
 35.3956  8534.73  90.8307
 35.4376  8396.12  90.6387
 35.4796  8511.71  91.3278
 35.5216  8582.27  91.6594
 35.5636  8315.23  90.9623
 35.6056  8523.32  91.1118
 35.6476  8623.76  91.5415
 35.6896  8542.28  91.1981
 35.7316  8520.78  91.0572
 35.7736  8435.85  90.7984
 35.8156  8338.86  90.2598
 35.8576  8471.06  91.2351
 35.8996  8621.1  91.9953
 35.9416  8854.17  92.6484
 35.9836  8333.97  90.3151
 36.0256  8418.24  90.7822
 36.0676  8581.73  91.4305
 36.1096  8341.42  90.2758
 36.1516  8515.39  91.096
 36.1936  8360.02  90.108
 36.2356  8414.5  91.0425
 36.2776  8398.21  90.4452
 36.3196  8387.65  90.0531
 36.3616  8431.04  90.4108
 36.4036  8446.43  90.5605
 36.4456  8428.57  90.6613
 36.4876  8363.9  90.2645
 36.5296  8426.6  90.6436
 36.5716  8387.48  91.2151
 36.6136  8417.82  90.1503
 36.6556  8542.59  91.0276
 36.6976  8415.66  90.8489
 36.7396  8368.08  90.3174
 36.7816  8340.77  90.55
 36.8236  8379.16  90.6786
 36.8656  8299.19  90.3123
 36.9076  8214.16  89.731
 36.9496  8307.42  90.2309
 36.9916  8201.18  89.2779
 37.0336  8543.46  91.4456
 37.0756  8302.23  89.9358
 37.1176  8194.83  89.6189
 37.1596  8270.66  90.0404
 37.2016  8315.68  90.5124
 37.2436  8372.58  90.1297
 37.2856  8210.69  89.5143
 37.3276  8312.01  89.4026
 37.3696  8161.06  89.4783
 37.4116  8359.48  90.466
 37.4536  8308.16  90.0498
 37.4956  8191.19  89.4631
 37.5376  8152.51  90.7912
 37.5796  8139.74  90.6859
 37.6216  8037.86  88.3886
 37.6636  8073.27  88.4706
 37.7056  8297.57  89.8869
 37.7476  8161.22  88.6771
 37.7896  8200.01  89.4093
 37.8316  7919.1  88.0226
 37.8736  8197.39  89.0848
 37.9156  8056.3  88.3117
 37.9576  8125.97  88.5808
 37.9996  7991.31  87.551
 38.0416  8056.87  88.7359
 38.0836  8232.5  89.6026
 38.1256  8016.39  88.3486
 38.1676  7948.39  88.1361
 38.2096  8007.81  88.0785
 38.2516  8214.22  89.43
 38.2936  8069.32  88.4245
 38.3356  8197.74  89.0565
 38.3776  7994.41  88.2076
 38.4196  8134.01  88.8332
 38.4616  8051.22  88.6125
 38.5036  8197.53  89.2569
 38.5456  7955.18  88.7647
 38.5876  8038.73  89.2599
 38.6296  7855.12  87.2115
 38.6716  7948.14  87.5195
 38.7136  7903.42  87.2157
 38.7556  7919.69  87.8068
 38.7976  7972.59  88.0392
 38.8396  7890.15  88.0325
 38.8816  7900.75  87.8731
 38.9236  7915.76  87.7693
 38.9656  8068.83  88.5264
 39.0076  8129.81  88.2599
 39.0496  8035.18  88.2839
 39.0916  7971.62  87.5783
 39.1336  8044.14  88.3974
 39.1756  7874.39  87.5292
 39.2176  7943.59  88.4464
 39.2596  7849.98  87.8422
 39.3016  7918.43  87.8062
 39.3436  7747.03  87.2636
 39.3856  8078.97  88.557
 39.4276  7918.35  88.1576
 39.4696  7986.35  88.1674
 39.5116  7828.52  87.7995
 39.5536  8044.04  89.4398
 39.5956  8074.64  88.6994
 39.6376  8040.21  88.5199
 39.6796  7920.29  87.5958
 39.7216  8022.33  88.2593
 39.7636  8021.28  88.8206
 39.8056  8014.53  88.5595
 39.8476  7838.69  87.8403
 39.8896  7830.62  87.4178
 39.9316  7828.9  87.6705
 39.9736  8076.44  88.6118
 40.0156  7964.32  87.8155
 40.0576  7953.91  88.1232
 40.0996  8050.87  87.8337
 40.1416  8024.78  88.4881
 40.1836  7999.38  88.2376
 40.2256  8024.42  88.4234
 40.2676  7910.87  87.8995
 40.3096  8041.72  88.5475
 40.3516  8112.46  89.038
 40.3936  8103.36  88.5534
 40.4356  8000.9  88.1864
 40.4776  8024.38  88.7304
 40.5196  8069.14  89.1044
 40.5616  8095.35  88.8818
 40.6036  7866.86  87.8783
 40.6456  8032.98  88.4075
 40.6876  8105.62  88.7949
 40.7296  8118.4  89.0029
 40.7716  8029.06  88.6359
 40.8136  8082.87  88.8793
 40.8556  8016.14  88.6393
 40.8976  8040.68  88.6987
 40.9396  7969.56  88.6535
 40.9816  8050.68  88.3889
 41.0236  8054.61  88.1917
 41.0656  8050.77  88.7103
 41.1076  8088.52  88.6902
 41.1496  7990.42  88.0561
 41.1916  8048.3  88.7036
 41.2336  7937.76  88.0761
 41.2756  8031.23  88.2003
 41.3176  7911.94  88.1499
 41.3596  8052.65  88.6643
 41.4016  7977.49  88.5142
 41.4436  8066.3  88.7831
 41.4856  7942.57  88.2714
 41.5276  7901.01  88.0545
 41.5696  8054.44  88.5335
 41.6116  7994.61  88.5951
 41.6536  7990  88.4326
 41.6956  7940.4  88.2027
 41.7376  7927.5  88.1718
 41.7796  7877.5  87.7779
 41.8216  8052.7  88.9815
 41.8636  7997.2  88.6133
 41.9056  7874.05  87.7148
 41.9476  7932.78  88.2779
 41.9896  7979.85  88.1984
 42.0316  8022.08  88.5235
 42.0736  7911.1  88.0109
 42.1156  7907.59  87.835
 42.1576  7993.94  88.4175
 42.1996  7994.27  88.5607
 42.2416  8034.68  88.363
 42.2836  7812.6  87.2451
 42.3256  7858.71  87.6161
 42.3676  7861.61  87.4318
 42.4096  7969.59  87.9954
 42.4516  7932.71  87.8762
 42.4936  7850.12  87.4915
 42.5356  7876.73  87.7727
 42.5776  7912.3  87.909
 42.6196  8013.91  88.5298
 42.6616  7797.85  87.4962
 42.7036  7928.71  87.6067
 42.7456  7873.2  87.6513
 42.7876  7850.2  87.6305
 42.8296  7815.87  87.2704
 42.8716  7719.22  86.8904
 42.9136  7744.78  86.8187
 42.9556  7856.82  87.5835
 42.9976  7879.18  87.6709
 43.0396  7878.56  87.3961
 43.0816  7856.95  87.6521
 43.1236  7775.67  87.2604
 43.1656  7775.26  87.0877
 43.2076  7811.23  87.3945
 43.2496  7806.17  87.1776
 43.2916  7709.29  87.0006
 43.3336  7822.63  87.4756
 43.3756  7746.13  86.7978
 43.4176  7736.1  86.8271
 43.4596  7822.41  87.1642
 43.5016  7814.15  87.5278
 43.5436  7773.63  87.196
 43.5856  7644.37  86.5001
 43.6276  7735.16  86.9062
 43.6696  7662.42  86.7529
 43.7116  7751.46  86.7492
 43.7536  7782.4  87.4102
 43.7956  7567.01  87.363
 43.8376  7733.01  86.8783
 43.8796  7714.77  86.8563
 43.9216  7683.54  86.5984
 43.9636  7788.96  87.3009
 44.0056  7634.18  86.6553
 44.0476  7661.25  86.4436
 44.0896  7430.56  85.4707
 44.1316  7681.28  86.4205
 44.1736  7659.06  86.4248
 44.2156  7719.37  86.6138
 44.2576  7608.72  86.3157
 44.2996  7629.61  86.4014
 44.3416  7583.55  85.9089
 44.3836  7432.69  85.3658
 44.4256  7494.74  85.3739
 44.4676  7502.51  85.5737
 44.5096  7695.71  86.8136
 44.5516  7482.2  85.5669
 44.5936  7467.15  85.4325
 44.6356  7589.01  85.8637
 44.6776  7455.9  85.4236
 44.7196  7520.32  86.0931
 44.7616  7628.99  88.0458
 44.8036  7433.41  85.3413
 44.8456  7396.93  85.3236
 44.8876  7483.04  85.677
 44.9296  7569.12  85.6148
 44.9716  7429.25  85.2514
 45.0136  7570.38  85.9925
 45.0556  7550.14  85.8463
 45.0976  7428.25  85.325
 45.1396  7390.65  84.872
 45.1816  7442.69  85.1024
 45.2236  7596.45  85.8665
 45.2656  7406.92  85.299
 45.3076  7360.58  84.8202
 45.3496  7345.42  85.0357
 45.3916  7345.6  85.294
 45.4336  7449.03  85.7336
 45.4756  7315.4  84.8164
 45.5176  7362.92  84.7106
 45.5596  7525.23  85.7671
 45.6016  7340.5  85.1233
 45.6436  7315.45  84.1598
 45.6856  7397.23  85.2914
 45.7276  7336.06  86.2533
 45.7696  7304.34  85.7346
 45.8116  7432.77  85.9224
 45.8536  7312.9  85.1177
 45.8956  7426.08  85.1235
 45.9376  7457.28  84.7671
 45.9796  7306.55  84.585
 46.0216  7367.18  85.2809
 46.0636  7491.88  85.1346
 46.1056  7291.96  83.9797
 46.1476  7418.04  85.2955
 46.1896  7357.27  85.0944
 46.2316  7266.74  84.4423
 46.2736  7239.33  84.6437
 46.3156  7394.73  85.1352
 46.3576  7292.11  84.7447
 46.3996  7259.49  84.7139
 46.4416  7381.5  84.9988
 46.4836  7363.34  85.2492
 46.5256  7285.53  84.7373
 46.5676  7316.58  85.0311
 46.6096  7224.49  84.4235
 46.6516  7205.97  83.3762
 46.6936  7380.36  84.8701
 46.7356  7301.57  84.5106
 46.7776  7265.63  85.1564
 46.8196  7177.01  84.2354
 46.8616  7161.57  84.0873
 46.9036  7055.79  83.1332
 46.9456  7228.95  83.7872
 46.9876  7263.5  84.0721
 47.0296  7204.3  84.4159
 47.0716  7158.13  83.9645
 47.1136  7164.07  83.6757
 47.1556  7199.25  83.7444
 47.1976  7275.8  84.2743
 47.2396  7227.38  84.3971
 47.2816  7110.74  83.4144
 47.3236  7070.52  83.5437
 47.3656  7327.34  84.9765
 47.4076  7117.18  83.5554
 47.4496  7066.74  83.3458
 47.4916  7147.58  84.0093
 47.5336  7152.53  83.8629
 47.5756  7193.97  84.2193
 47.6176  7040.51  83.2133
 47.6596  7028.58  82.8539
 47.7016  7334.36  84.463
 47.7436  7215.04  84.1064
 47.7856  7232.22  84.2359
 47.8276  7100.58  83.5141
 47.8696  7061.09  83.3683
 47.9116  7150.8  83.6039
 47.9536  7131.6  83.4416
 47.9956  6984.28  83.2708
 48.0376  6999.54  83.1415
 48.0796  7093.82  83.8208
 48.1216  7140.73  83.9239
 48.1636  7261.35  84.1966
 48.2056  7018.59  83.0415
 48.2476  7134.01  84.0256
 48.2896  7021.96  83.2753
 48.3316  7095.46  83.6451
 48.3736  6961.53  82.8852
 48.4156  6978.43  82.8429
 48.4576  6981.24  83.1428
 48.4996  7098.77  83.3004
 48.5416  7034.53  83.2368
 48.5836  6944.14  82.3918
 48.6256  7036.53  83.1303
 48.6676  7102.81  84.0399
 48.7096  7090.54  83.2409
 48.7516  6983.85  82.7542
 48.7936  6891.8  82.2777
 48.8356  6928.82  82.5452
 48.8776  6936.75  83.1594
 48.9196  7212.27  84.1515
 48.9616  6937.29  82.9118
 49.0036  6965.16  83.4206
 49.0456  6901.37  83.0281
 49.0876  6987.41  83.0836
 49.1296  6769.73  81.929
 49.1716  6889.36  82.5336
 49.2136  6995.72  83.0798
 49.2556  6937.26  82.7693
 49.2976  6962.5  82.9863
 49.3396  6942.41  82.9287
 49.3816  7059.45  83.0483
 49.4236  6948.68  82.826
 49.4656  6841.61  82.2032
 49.5076  6962.75  82.674
 49.5496  6921.68  82.4938
 49.5916  7031.15  83.0591
 49.6336  6893.82  82.4442
 49.6756  6958.35  83.0625
 49.7176  6873.5  82.4921
 49.7596  6858.36  82.1694
 49.8016  7024.88  83.0776
 49.8436  6828.51  82.2108
 49.8856  6823.95  82.1813
 49.9276  6707.73  81.5824
 49.9696  6892.72  82.6816
 50.0116  6859.25  82.6065
 50.0536  6842.07  82.458
 50.0956  6816.39  82.3747
 50.1376  6743.69  81.6342
 50.1796  6731.55  81.8262
 50.2216  6755.27  81.9632
 50.2636  6803.53  81.881
 50.3056  6735.7  81.6422
 50.3476  6808.88  82.1058
 50.3896  6779.33  81.8994
 50.4316  6800.41  81.8648
 50.4736  6734.94  81.6845
 50.5156  6813.59  82.1466
 50.5576  6879.43  82.3075
 50.5996  6732.69  81.7039
 50.6416  6741.55  81.688
 50.6836  6699.53  81.4893
 50.7256  6811.15  82.0965
 50.7676  6697.5  81.7121
 50.8096  6777.09  81.7411
 50.8516  6661.89  81.4485
 50.8936  6716.06  81.5632
 50.9356  6730.54  81.7612
 50.9776  6784.72  82.2412
 51.0196  6701.89  81.8671
 51.0616  6583.9  80.4824
 51.1036  6731.05  81.7257
 51.1456  6728.09  81.6271
 51.1876  6722.76  80.9444
 51.2296  6796.38  82.0193
 51.2716  6603.24  80.5517
 51.3136  6618.64  81.1003
 51.3556  6636.57  80.8386
 51.3976  6554.7  80.4889
 51.4396  6553.65  80.7856
 51.4816  6657.45  81.2708
 51.5236  6620.84  81.132
 51.5656  6659.98  80.9815
 51.6076  6563.25  80.4676
 51.6496  6601.32  80.8916
 51.6916  6698.34  81.8396
 51.7336  6653.09  81.6569
 51.7756  6613.83  81.1173
 51.8176  6616.82  81.2403
 51.8596  6615.71  81.248
 51.9016  6794.06  81.9422
 51.9436  6503.48  81.5935
 51.9856  6473.61  81.8307
 52.0276  6605.23  81.1804
 52.0696  6637.79  81.4403
 52.1116  6578.25  81.1928
 52.1536  6462.56  80.3609
 52.1956  6671.91  81.1296
 52.2376  6736.8  81.6786
 52.2796  6586.14  80.5873
 52.3216  6426.9  80.2849
 52.3636  6588.52  80.8659
 52.4056  6619.22  80.9059
 52.4476  6489.17  80.4755
 52.4896  6440.7  80.2208
 52.5316  6510.92  80.7006
 52.5736  6586.59  80.9054
 52.6156  6533.51  80.942
 52.6576  6585.31  80.7216
 52.6996  6338.64  80.1397
 52.7416  6534.68  81.2288
 52.7836  6499.66  80.8918
 52.8256  6578.29  80.6061
 52.8676  6392.59  80.0331
 52.9096  6485.35  80.6879
 52.9516  6485.31  81.063
 52.9936  6390.61  80.8518
 53.0356  6470.71  80.3617
 53.0776  6415.13  80.2754
 53.1196  6371.32  80.1261
 53.1616  6342.88  79.9941
 53.2036  6276.92  79.5306
 53.2456  6224.44  79.2926
 53.2876  6367.13  79.9103
 53.3296  6391.1  80.3837
 53.3716  6362.84  79.9509
 53.4136  6388.32  80.258
 53.4556  6347.07  80.0322
 53.4976  6435.9  80.4406
 53.5396  6252.96  79.6787
 53.5816  6333.43  79.8254
 53.6236  6251.82  79.6429
 53.6656  6275.6  79.4306
 53.7076  6399.04  80.169
 53.7496  6324.31  79.8121
 53.7916  6305.59  79.8274
 53.8336  6195.92  79.0178
 53.8756  6298.27  80.2221
 53.9176  6286.36  79.5028
 53.9596  6313.89  80.4438
 54.0016  6264.07  79.4619
 54.0436  6243.45  79.5468
 54.0856  6398.12  79.9501
 54.1276  6326.61  79.6945
 54.1696  6403.27  80.353
 54.2116  6270.27  79.2645
 54.2536  6285.4  79.1867
 54.2956  6348.08  79.6218
 54.3376  6345.77  80.0905
 54.3796  6311.31  79.7781
 54.4216  6423.75  80.5296
 54.4636  6229.55  79.267
 54.5056  6318.45  79.6468
 54.5476  6270.84  79.679
 54.5896  6323.26  79.8441
 54.6316  6369.63  79.9945
 54.6736  6401.69  80.2715
 54.7156  6353.05  79.9905
 54.7576  6296.12  79.623
 54.7996  6292.07  79.7341
 54.8416  6367.29  80.2635
 54.8836  6259.98  79.6901
 54.9256  6234.46  79.2843
 54.9676  6242.22  79.1935
 55.0096  6261.36  79.3783
 55.0516  6150.19  78.9036
 55.0936  6264.64  79.2617
 55.1356  6263.26  79.2958
 55.1776  6292.81  79.7471
 55.2196  6265.9  79.3648
 55.2616  6243.09  79.4286
 55.3036  6164.64  79.08
 55.3456  6204.52  79.495
 55.3876  6221.13  79.3419
 55.4296  6253.77  79.5336
 55.4716  6276.01  79.7052
 55.5136  6305.31  79.648
 55.5556  6274.42  79.5197
 55.5976  6287.29  79.6626
 55.6396  6210.9  79.1176
 55.6816  6240.86  79.1948
 55.7236  6311.03  79.6715
 55.7656  6269.77  79.1756
 55.8076  6339.88  79.6048
 55.8496  6184.59  78.934
 55.8916  6196.78  79.2198
 55.9336  6237.49  79.2929
 55.9756  6152.98  78.6463
 56.0176  6139.7  78.7081
 56.0596  6225.09  79.2363
 56.1016  6209.02  79.1465
 56.1436  6161.15  79.1104
 56.1856  6187.47  79.0184
 56.2276  6214.17  79.2324
 56.2696  6188.75  79.0534
 56.3116  6187.95  79.4452
 56.3536  6277.28  79.674
 56.3956  6186.58  79.0926
 56.4376  6201  79.2181
 56.4796  6245.2  79.3022
 56.5216  6075.97  78.587
 56.5636  6200.13  78.982
 56.6056  6177.01  79.0573
 56.6476  6094.4  78.1622
 56.6896  6168.85  79.0796
 56.7316  6175.02  79.0337
 56.7736  6281.04  79.7026
 56.8156  6193.35  79.1474
 56.8576  6194.52  79.1037
 56.8996  6122.11  78.5746
 56.9416  6156.36  79.0933
 56.9836  6104.02  78.2679
 57.0256  6141.9  78.8339
 57.0676  6124.83  78.8382
 57.1096  6202.9  79.1355
 57.1516  6223.31  79.3338
 57.1936  6194.87  78.8953
 57.2356  6209.02  79.3106
 57.2776  6149.44  78.8765
 57.3196  6244.66  79.8621
 57.3616  6098.33  78.4149
 57.4036  6187.97  79.0497
 57.4456  6062.66  78.2088
 57.4876  6255.38  79.3023
 57.5296  6108.28  78.7037
 57.5716  6164.11  79.0498
 57.6136  6147.52  78.7664
 57.6556  6110.42  78.6613
 57.6976  6247.55  79.3644
 57.7396  6093.23  78.7527
 57.7816  6133.99  79.373
 57.8236  6121.34  79.0882
 57.8656  6091.82  78.5529
 57.9076  6150.54  78.9551
 57.9496  6082.49  78.8726
 57.9916  6094.66  78.4609
 58.0336  6015.68  78.2306
 58.0756  6081.33  78.2879
 58.1176  6158.89  78.7856
 58.1596  6071.56  78.7821
 58.2016  6213.21  78.9301
 58.2436  6294  79.8606
 58.2856  6095.8  78.5115
 58.3276  6109.1  78.9702
 58.3696  6152.02  78.996
 58.4116  6188.08  79.0865
 58.4536  6164.2  78.822
 58.4956  6016.71  78.0541
 58.5376  6207.35  78.8483
 58.5796  6080.14  78.4604
 58.6216  6155.48  78.7586
 58.6636  6268.19  79.696
 58.7056  6135.83  78.7045
 58.7476  6102.95  78.9393
 58.7896  6055.63  78.2744
 58.8316  6069.21  78.3599
 58.8736  6200.17  79.2036
 58.9156  6019.01  78.0852
 58.9576  6228.73  79.7568
 58.9996  6325.6  79.6045
 59.0416  6311.11  79.887
 59.0836  6207.73  79.1579
 59.1256  6097.27  79.1508
 59.1676  6168.31  79.9171
 59.2096  6190.56  79.3695
 59.2516  6252.3  79.338
 59.2936  6241.4  79.6023
 59.3356  6198.66  79.2055
 59.3776  6112.9  78.8257
 59.4196  6164.66  79.0946
 59.4616  6106.28  78.5778
 59.5036  6214.92  79.3096
 59.5456  6351.14  79.8596
 59.5876  6211.03  79.1676
 59.6296  6127.79  78.705
 59.6716  6198.75  79.2181
 59.7136  6081.01  78.4504
 59.7556  6391.78  80.5704
 59.7976  6202.06  79.1044
 59.8396  6150.3  78.6669
 59.8816  6186.62  79.4513
 59.9236  6198.73  79.1676
 59.9656  6169.87  79.2462
 60.0076  6217.82  78.9018
 60.0496  6220.75  79.4289
 60.0916  6190.27  78.6478
 60.1336  6022.35  78.6796
 60.1756  6191.02  80.973
 60.1996  0.0000000E+00  0.0000000E+00