File: docs/examples/opeando_xrd/IS17_D/Data/IS17_D/17_Db_f00007.xye
# /beamlines/bl04/projects/cycle2025-II/20250340211-lsimonelli/DATA/IS17_D/17_Db_f00007.xye : mythproc.py merge -s 0.006 -l 0.5 -f /beamlines/bl04/inhouse/ff/FlatField/ff_20Nov2024rod8mm60s_17keV.raw -b True -c true -o xye /beamlines/bl04/projects/cycle2025-II/20250340211-lsimonelli/DATA/IS17_D/17_Db_00007.dat
# IsMon = [6761679, 6746387, 6746593]  IsPos = [-1.5000, -2.4885, -3.4988]
# Wave = 0.4962  CalPath /beamlines/bl04/projects/cycle2025-II/20250340211-lsimonelli/DATA/Align/Si_Pos1_25keV_f00001.cal
# Date = 2025-09-23_19:38:47 Dt = 4.8000  Bin = 0.0060  <imon> = 6751553 +/- 7161 (Min/Max) 6746387 / 6761679
# icurr 252.7899  mocoIn 1.7242E-05  mocoOut 0.8087  i15 7.06389e+06  imon 6.75155e+06  i7 4.6667  iEMpd_timer 4.8000  iEMpd_1 3.4598E-08  iEMpd_2 7.8062E-08  iEMpd_3 1.6358E-08  iEMpd_4 4.7625E-08  iEMhp_timer 4.8000  iEMhp_1 4.9389E-06  iEMhp_2 -2.4036E-08  iEMhp_3 -2.2784E-08  iEMhp_4 -2.0629E-08
#      9776
 1.5856  42283.8  210.991
 1.6276  48646.4  222.426
 1.6696  54827.2  235.302
 1.7116  63004.1  252.732
 1.7536  70742.4  266.662
 1.7956  75012.9  275.279
 1.8376  71649.2  269.462
 1.8796  61212  247.243
 1.9216  50511.5  225.48
 1.9636  43205.1  208.206
 2.0056  38792.4  196.027
 2.0476  36522.8  192.291
 2.0896  34713.9  186.37
 2.1316  33883.1  183.241
 2.1736  32590.2  181.137
 2.2156  32762.4  180.157
 2.2576  31603.1  177.575
 2.2996  30277.7  174.45
 2.3416  30872.9  174.751
 2.3836  30574.9  174.012
 2.4256  29546.5  171.618
 2.4676  28916.3  169.537
 2.5096  29383.5  170.957
 2.5516  36746.7  195.621
 2.5936  127844  357.631
 2.6356  32961.6  182.381
 2.6776  27561.2  165.669
 2.7196  26512.4  162.965
 2.7616  26332.1  162.194
 2.8036  25675.6  160.323
 2.8456  25729.6  161.131
 2.8876  25011.5  158.697
 2.9296  24607  157.567
 2.9716  24399.6  156.406
 3.0136  23953.6  155.031
 3.0556  24336.2  156.648
 3.0976  24146  154.919
 3.1396  23716  154.282
 3.1816  23437.6  153.33
 3.2236  23239  152.666
 3.2656  23017.3  151.037
 3.3076  23147.8  152.869
 3.3496  23353.4  152.735
 3.3916  23713.4  153.486
 3.4336  24035.8  155.108
 3.4756  24474.8  156.427
 3.5176  25155.7  158.377
 3.5596  24766.8  160.129
 3.6016  25007  158.02
 3.6436  24002.1  155.902
 3.6856  23851.8  153.744
 3.7276  22925  151.794
 3.7696  22842.6  151.473
 3.8116  22369.5  150.011
 3.8536  22360.9  149.903
 3.8956  22406.8  149.886
 3.9376  22987.2  152.086
 3.9796  22165.8  148.852
 4.0216  22024.9  147.451
 4.0636  22164.4  149.331
 4.1056  22094.6  148.779
 4.1476  22391.4  150.028
 4.1896  22574.9  150.541
 4.2316  22751.5  150.94
 4.2736  22981.3  151.521
 4.3156  23339.7  152.939
 4.3576  24231.9  155.726
 4.3996  24324.1  156.304
 4.4416  24995  158.024
 4.4836  26165  161.855
 4.5256  26129.6  162.293
 4.5676  25875.7  161.79
 4.6096  26197.9  161.834
 4.6516  26784.5  162.967
 4.6936  26890.9  164.129
 4.7356  27541.6  165.91
 4.7776  26956.1  163.995
 4.8196  26609.3  163.519
 4.8616  25993.9  161.278
 4.9036  25970.9  160.783
 4.9456  25962.5  161.436
 4.9876  25174.1  158.856
 5.0296  25315  159.148
 5.0716  25092.8  159.074
 5.1136  25255  159.431
 5.1556  25812.6  160.672
 5.1976  33285.3  182.371
 5.2396  26550  162.61
 5.2816  25981.8  161.293
 5.3236  26182  161.642
 5.3656  25494.2  160.417
 5.4076  25221.5  159.68
 5.4496  25246.9  159.309
 5.4916  25409.4  159.553
 5.5336  25264.6  159.131
 5.5756  25395.7  159.498
 5.6176  25316.2  158.745
 5.6596  25543.6  160.25
 5.7016  25632.9  159.973
 5.7436  25880.6  161.015
 5.7856  25625.7  160.286
 5.8276  25771.6  160.488
 5.8696  26140.7  161.634
 5.9116  25821.5  161.368
 5.9536  26434.5  162.985
 5.9956  26581.8  162.88
 6.0376  26372.3  162.839
 6.0796  26627.6  163.455
 6.1216  26706.4  163.913
 6.1636  26995.6  163.856
 6.2056  26762.8  163.836
 6.2476  27366.4  165.305
 6.2896  27406.8  165.328
 6.3316  27505  165.76
 6.3736  27442.7  165.501
 6.4156  27556.9  165.792
 6.4576  27842.8  166.218
 6.4996  27807.4  166.608
 6.5416  27866.7  166.89
 6.5836  28193.8  168.121
 6.6256  28150.9  167.535
 6.6676  28686.5  168.69
 6.7096  28490.4  168.925
 6.7516  28877.8  169.771
 6.7936  29909.9  172.167
 6.8356  30676.9  174.474
 6.8776  29889.6  173.039
 6.9196  29644.6  172.699
 6.9616  29931.8  172.943
 7.0036  30109.4  173.158
 7.0456  30359.6  173.192
 7.0876  30582.8  175.359
 7.1296  30263.6  173.718
 7.1716  30273.7  173.278
 7.2136  30040  172.406
 7.2556  30173.1  172.94
 7.2976  30050.5  173.07
 7.3396  29809.5  172.613
 7.3816  30062.2  173.538
 7.4236  30455  173.976
 7.4656  30759.5  174.312
 7.5076  31088.4  175.385
 7.5496  30695.4  174.819
 7.5916  30743.8  174.987
 7.6336  31422.6  176.798
 7.6756  31482.9  176.82
 7.7176  31851  178.156
 7.7596  31822.8  179.281
 7.8016  36854.7  195.265
 7.8436  32207.9  179.352
 7.8856  32344  179.352
 7.9276  32930.9  181.362
 7.9696  32895.6  181.562
 8.0116  33987.5  183.128
 8.0536  34455.1  184.621
 8.0956  36276.1  190.63
 8.1376  34684.6  185.889
 8.1796  34912.6  187.021
 8.2216  35853.5  188.287
 8.2636  36517.8  190.274
 8.3056  35992.2  189.656
 8.3476  37903.1  193.951
 8.3896  36675.4  190.865
 8.4316  36099.2  189.521
 8.4736  36052.3  188.878
 8.5156  35803  188.495
 8.5576  35554.6  188.788
 8.5996  35515  187.586
 8.6416  35348.7  188.377
 8.6836  35146.1  187.672
 8.7256  36148.5  189.784
 8.7676  38113.8  197.786
 8.8096  38299.1  195.456
 8.8516  36897.6  191.439
 8.8936  37414.8  192.706
 8.9356  36212.6  189.873
 8.9776  35714.5  188.681
 9.0196  36001  189.076
 9.0616  36081  188.829
 9.1036  36923.5  192.202
 9.1456  35203.3  187.038
 9.1876  35112.5  186.691
 9.2296  34418.3  184.345
 9.2716  34126.6  183.559
 9.3136  34138.3  183.583
 9.3556  34447.1  184.385
 9.3976  33488.5  182.281
 9.4396  33269.7  181.626
 9.4816  33321.5  181.587
 9.5236  33051.6  180.78
 9.5656  32665.8  180.086
 9.6076  32120.1  179.115
 9.6496  32191.1  179.161
 9.6916  32154.9  179.058
 9.7336  32735.3  180.432
 9.7756  32095.5  179.888
 9.8176  32034.4  179.214
 9.8596  31868.6  177.245
 9.9016  31325.6  175.709
 9.9436  31228.9  175.215
 9.9856  31322.6  175.893
 10.0276  30641.1  175.023
 10.0696  31057.9  175.264
 10.1116  30461.4  173.828
 10.1536  30186.4  172.677
 10.1956  29433.9  170.642
 10.2376  29376.8  169.963
 10.2796  29013.2  169.043
 10.3216  28987.9  169.135
 10.3636  28841.8  168.861
 10.4056  31546.6  177.039
 10.4476  32353.2  178.844
 10.4896  35490.3  186.716
 10.5316  33127.4  180.766
 10.5736  28826.9  169.418
 10.6156  28782.2  169.002
 10.6576  32594  178.362
 10.6996  28275.4  166.821
 10.7416  27299.4  164.126
 10.7836  27537.9  165.56
 10.8256  26448.4  162.646
 10.8676  26442.2  162.201
 10.9096  26373.1  161.982
 10.9516  25979.7  159.756
 10.9936  26703.6  162.165
 11.0356  26497  162.146
 11.0776  27797.8  165.4
 11.1196  27530.1  165.385
 11.1616  26014.6  160.452
 11.2036  27373  164.422
 11.2456  28207.8  167.668
 11.2876  25754.1  159.883
 11.3296  25632.1  159.45
 11.3716  25626.4  159.181
 11.4136  25579.7  159.854
 11.4556  25920  160.588
 11.4976  26938.6  162.683
 11.5396  26921.5  162.816
 11.5816  25432  158.622
 11.6236  24529.1  156.264
 11.6656  24873.2  156.271
 11.7076  24057.7  154.532
 11.7496  24373.3  159.489
 11.7916  24823.6  156.228
 11.8336  23761.3  153.778
 11.8756  24149.4  154.538
 11.9176  23672.9  152.694
 11.9596  23544.6  152.399
 12.0016  23214.1  152.107
 12.0436  23376.9  152.101
 12.0856  23094.8  151.673
 12.1276  23115.6  151.686
 12.1696  23131.9  150.875
 12.2116  23571  152.33
 12.2536  25469  159.107
 12.2956  23463.1  152.136
 12.3376  23626.8  152.814
 12.3796  23215.4  151.989
 12.4216  23411.4  151.832
 12.4636  24085.4  154.944
 12.5056  22980.9  150.63
 12.5476  22959.3  150.075
 12.5896  22669.5  149.783
 12.6316  22870.6  150.54
 12.6736  22503.7  149.834
 12.7156  23126.9  151.707
 12.7576  22935.8  151.353
 12.7996  23210.2  150.927
 12.8416  23470.1  152.798
 12.8836  24004  154.396
 12.9256  23532.8  151.889
 12.9676  23288  151.511
 13.0096  23541.6  153.386
 13.0516  23393.1  151.979
 13.0936  23213.9  151.524
 13.1356  23571.4  151.934
 13.1776  23572.9  152.946
 13.2196  23507  152.383
 13.2616  23094  151.371
 13.3036  23536.9  152.894
 13.3456  22960.5  151.025
 13.3876  23740.5  153.013
 13.4296  23417.2  152.16
 13.4716  23537.6  152.187
 13.5136  23448.5  152.028
 13.5556  23408.6  152.524
 13.5976  23441.8  152.787
 13.6396  23621.5  152.759
 13.6816  23767.2  153.528
 13.7236  24088  154.292
 13.7656  25894.4  160.366
 13.8076  26998.2  162.444
 13.8496  25261  157.96
 13.8916  23892  154.578
 13.9336  23191.1  151.612
 13.9756  23075.6  150.608
 14.0176  22906.4  150.738
 14.0596  23537.2  152.713
 14.1016  23071.3  151.606
 14.1436  22824.8  149.909
 14.1856  22235.9  148.283
 14.2276  22597  149.927
 14.2696  22422.1  149.232
 14.3116  21619.6  146.469
 14.3536  21604.5  146.552
 14.3956  21367.3  145.497
 14.4376  21648.3  146.224
 14.4796  21483.2  145.662
 14.5216  21354.1  145.999
 14.5636  21336.4  145.518
 14.6056  21203.8  144.624
 14.6476  21026.3  143.281
 14.6896  20594.7  142.337
 14.7316  20209.7  142.011
 14.7736  20186.8  141.102
 14.8156  19988.4  140.406
 14.8576  20064.7  140.547
 14.8996  19981.9  141.427
 14.9416  19374.6  139.272
 14.9836  19292.6  138.98
 15.0256  18779.7  136.107
 15.0676  18566  135.629
 15.1096  18488  135.091
 15.1516  18115.7  134.261
 15.1936  18208.1  134.052
 15.2356  18089.9  133.886
 15.2776  18023.7  133.243
 15.3196  17925.3  133.844
 15.3616  17575.9  132.298
 15.4036  17483.3  131.817
 15.4456  18030  133.518
 15.4876  17490.3  131.2
 15.5296  17261.5  130.614
 15.5716  17007.9  129.271
 15.6136  17074.2  129.83
 15.6556  18436.9  134.155
 15.6976  17523  130.866
 15.7396  17128.3  129.972
 15.7816  17143.7  129.557
 15.8236  16686.5  128.485
 15.8656  16706.6  128.363
 15.9076  16808.6  128.575
 15.9496  17554.6  134.111
 15.9916  16815.5  131.673
 16.0336  17003.4  129.282
 16.0756  16842.6  129.012
 16.1176  16539.4  127.8
 16.1596  16242.8  127.921
 16.2016  16193  126.55
 16.2436  16099.6  126.519
 16.2856  16248.2  126.622
 16.3276  15887.5  125.655
 16.3696  15945.9  125.714
 16.4116  15831  125.666
 16.4536  16064.4  126.421
 16.4956  16482  127.766
 16.5376  16163.4  126.738
 16.5796  15797.4  124.675
 16.6216  15970.7  125.618
 16.6636  15838.5  125.305
 16.7056  15601.2  124.204
 16.7476  15778.9  124.454
 16.7896  15794.9  125.24
 16.8316  15593.8  124.422
 16.8736  16003.5  126.264
 16.9156  15707.4  125.449
 16.9576  15347  124.788
 16.9996  15572.8  126.168
 17.0416  15564  124.552
 17.0836  15353.5  123.456
 17.1256  15511.9  124.096
 17.1676  15734  124.946
 17.2096  15560.4  124.144
 17.2516  15534  124.105
 17.2936  15237.6  122.992
 17.3356  14844.2  121.357
 17.3776  14709.7  121.011
 17.4196  14777.9  121.019
 17.4616  15047.2  121.996
 17.5036  15184.1  122.943
 17.5456  14547.1  120.925
 17.5876  14548.3  120.007
 17.6296  14782.5  120.763
 17.6716  14609  120.658
 17.7136  15364  123.845
 17.7556  14593.1  121.016
 17.7976  14370.8  119.721
 17.8396  14465.9  119.738
 17.8816  14161.8  119.043
 17.9236  14222.1  119.069
 17.9656  14309.4  120.138
 18.0076  14817.8  121.662
 18.0496  15544.8  123.728
 18.0916  19949.9  140.776
 18.1336  17548.2  132.163
 18.1756  15777.5  124.859
 18.2176  15619.4  124.453
 18.2596  14324.1  118.917
 18.3016  14805.9  121.161
 18.3436  15466.4  124.077
 18.3856  14612.5  120.471
 18.4276  14139.6  118.222
 18.4696  14210.6  118.616
 18.5116  14204.5  118.853
 18.5536  13903.2  117.952
 18.5956  14001.1  117.915
 18.6376  14077.2  118.654
 18.6796  13902.7  117.212
 18.7216  14048.8  118.4
 18.7636  13709.4  116.869
 18.8056  13572  116.223
 18.8476  13117.5  114.883
 18.8896  13235.1  114.748
 18.9316  13588.1  116.098
 18.9736  13431.2  115.281
 19.0156  13684.7  116.784
 19.0576  14085.3  117.293
 19.0996  13579.4  115.892
 19.1416  13594  116.324
 19.1836  13244.5  114.458
 19.2256  13188.5  114.429
 19.2676  13320.4  115.078
 19.3096  13204.1  114.838
 19.3516  13421.8  115.521
 19.3936  13386.4  115.479
 19.4356  13555  116.057
 19.4776  13480.2  115.841
 19.5196  13257.9  114.74
 19.5616  13198.2  114.732
 19.6036  13321.5  114.784
 19.6456  13440.9  115.401
 19.6876  13784.7  116.521
 19.7296  13630.8  116.294
 19.7716  13332.3  115.06
 19.8136  13811.9  117.426
 19.8556  14111.6  118.199
 19.8976  14027.1  117.899
 19.9396  14143.5  117.982
 19.9816  13999.2  117.642
 20.0236  14180.7  118.576
 20.0656  13491.7  115.672
 20.1076  13298.7  115.27
 20.1496  13098.2  114.413
 20.1916  13271.3  114.653
 20.2336  13144.8  114.059
 20.2756  12938  113.594
 20.3176  12845.4  112.947
 20.3596  12772.8  112.633
 20.4016  12843.6  112.733
 20.4436  12772.2  112.984
 20.4856  12751  112.643
 20.5276  12734.9  113.046
 20.5696  12765.4  112.748
 20.6116  12720.1  112.713
 20.6536  12557.8  111.582
 20.6956  12573.6  111.717
 20.7376  12473  111.489
 20.7796  12384.8  110.783
 20.8216  12749.9  112.121
 20.8636  12936  113.288
 20.9056  13927  117.5
 20.9476  13022.6  113.449
 20.9896  13522.8  115.488
 21.0316  12768.8  112.144
 21.0736  13044.4  113.85
 21.1156  13134  114.421
 21.1576  12698.9  112.526
 21.1996  12551.3  111.861
 21.2416  12447.5  111.199
 21.2836  12713.8  112.385
 21.3256  12555.6  111.731
 21.3676  12565.7  111.34
 21.4096  12693.6  112.298
 21.4516  12285.8  110.287
 21.4936  12193.8  110.141
 21.5356  12560.4  111.716
 21.5776  12477.8  111.187
 21.6196  12539.1  111.502
 21.6616  12487.5  111.353
 21.7036  12268.9  110.137
 21.7456  12276  110.258
 21.7876  12102.2  109.238
 21.8296  12146.9  109.288
 21.8716  12186.5  109.686
 21.9136  12374.8  110.739
 21.9556  12464.4  110.818
 21.9976  12280.4  110.028
 22.0396  12196.4  109.899
 22.0816  12212.5  110.493
 22.1236  12505.2  111.265
 22.1656  12047.2  109.416
 22.2076  12050.9  108.874
 22.2496  11829.6  107.901
 22.2916  11939.5  108.291
 22.3336  12025.6  109.365
 22.3756  11891.2  108.502
 22.4176  11907.4  108.432
 22.4596  11588.4  107.539
 22.5016  11840.5  108.22
 22.5436  12056.1  109.076
 22.5856  12272.8  110.291
 22.6276  12370.9  110.862
 22.6696  11834.4  108.785
 22.7116  11866.9  108.455
 22.7536  11899.4  108.58
 22.7956  11963.3  108.221
 22.8376  11673.9  107.405
 22.8796  11801  107.798
 22.9216  11933  108.931
 22.9636  11811.6  107.553
 23.0056  11865.5  107.93
 23.0476  11884.1  108.571
 23.0896  12065.8  108.788
 23.1316  12170  109.685
 23.1736  12058  112.029
 23.2156  12168.1  109.958
 23.2576  12258.6  110.452
 23.2996  11986.6  109.042
 23.3416  12303.2  110.955
 23.3836  12124.2  109.406
 23.4256  12293.2  110.268
 23.4676  12229.7  109.695
 23.5096  12180.2  110.117
 23.5516  12122.2  109.178
 23.5936  12200.4  110.422
 23.6356  12435.8  111.152
 23.6776  12122.5  109.968
 23.7196  12048.4  109.385
 23.7616  12060.6  109.187
 23.8036  12152.4  109.619
 23.8456  11879.6  107.984
 23.8876  11945.8  108.593
 23.9296  11855.5  108.686
 23.9716  11868.5  107.959
 24.0136  12069.9  109.764
 24.0556  11760.9  108.067
 24.0976  11668.5  107.468
 24.1396  11580.7  109.642
 24.1816  11796.2  109.419
 24.2236  11820.2  108.817
 24.2656  11810.4  108.258
 24.3076  11704.1  108.031
 24.3496  11914.8  108.903
 24.3916  11865.2  108.703
 24.4336  11773.8  108.474
 24.4756  11692.9  107.998
 24.5176  11652.2  107.444
 24.5596  11547.6  107.255
 24.6016  11503.5  107.159
 24.6436  11590.9  107.064
 24.6856  11657  107.121
 24.7276  11434.6  106.448
 24.7696  11554.6  107.097
 24.8116  11411.9  106.623
 24.8536  11284  106.01
 24.8956  11441.6  106.478
 24.9376  11273.7  105.85
 24.9796  11232.5  105.787
 25.0216  11275.5  106.091
 25.0636  11363.7  106.167
 25.1056  10983  104.824
 25.1476  10877.7  106.178
 25.1896  10904.7  104.869
 25.2316  10902  104.142
 25.2736  10962.6  104.077
 25.3156  10742.9  103.088
 25.3576  10731  103.466
 25.3996  10876.5  104.147
 25.4416  10932.7  104.396
 25.4836  10691.8  103.75
 25.5256  10838.8  103.833
 25.5676  10865.5  103.708
 25.6096  10565.7  102.817
 25.6516  10673  102.859
 25.6936  10740.3  103.461
 25.7356  10643.2  103.146
 25.7776  10791.5  103.55
 25.8196  10652.8  103.032
 25.8616  10663.2  103.028
 25.9036  10868.5  103.465
 25.9456  10687.1  103.193
 25.9876  10698.8  103.142
 26.0296  10727.5  103.05
 26.0716  10637.7  102.935
 26.1136  10772.5  103.531
 26.1556  10807.3  103.101
 26.1976  10486.9  102.461
 26.2396  10538.4  102.135
 26.2816  10561.8  102.597
 26.3236  10643.7  103.146
 26.3656  10628.4  102.767
 26.4076  10391.1  101.845
 26.4496  10715  102.987
 26.4916  10849.5  103.56
 26.5336  11111.9  105.15
 26.5756  11164.9  105.279
 26.6176  10661.2  102.911
 26.6596  10583  102.818
 26.7016  10404.9  101.731
 26.7436  10380.8  101.704
 26.7856  10156.3  100.609
 26.8276  10317.6  101.369
 26.8696  10307.8  101.194
 26.9116  10327.3  101.228
 26.9536  10181.7  100.56
 26.9956  10060.1  100.008
 27.0376  10169  100.732
 27.0796  10128.4  100.349
 27.1216  10296.5  101.144
 27.1636  10047.8  100.104
 27.2056  10149  100.496
 27.2476  10149.8  100.488
 27.2896  9928.78  99.5237
 27.3316  9950.96  99.3451
 27.3736  9886.17  99.2917
 27.4156  10054.9  99.9415
 27.4576  9948.22  99.6442
 27.4996  10192.3  100.456
 27.5416  9992.26  99.7796
 27.5836  10014.6  99.7349
 27.6256  9980.24  99.7444
 27.6676  9892.24  99.3072
 27.7096  10002.1  99.725
 27.7516  10446  102.077
 27.7936  10790  103.862
 27.8356  10427  101.727
 27.8776  10394.8  101.616
 27.9196  10111.9  100.101
 27.9616  10224.5  100.856
 28.0036  10038.2  99.8886
 28.0456  9768.72  98.6959
 28.0876  9773.75  98.79
 28.1296  9831.98  98.9252
 28.1716  9926.26  99.3896
 28.2136  9842.31  98.9567
 28.2556  9769.37  98.6803
 28.2976  9558.15  97.6229
 28.3396  9752.6  98.4241
 28.3816  9724.04  98.2308
 28.4236  9706.2  98.3108
 28.4656  9541.19  97.497
 28.5076  9556.3  97.2223
 28.5496  9598.15  97.6826
 28.5916  9660.24  97.8184
 28.6336  9556.09  97.6045
 28.6756  9695.64  97.5422
 28.7176  9590.38  97.5587
 28.7596  9394.67  96.4515
 28.8016  9458.56  96.8241
 28.8436  9396  96.7357
 28.8856  9426.81  96.739
 28.9276  9468.45  97.1985
 28.9696  9373.69  96.3742
 29.0116  9242.39  95.8867
 29.0536  9350.15  96.6413
 29.0956  9405.59  96.634
 29.1376  9450.99  96.8381
 29.1796  9418.14  96.7079
 29.2216  9314.08  96.0262
 29.2636  9435.24  96.6113
 29.3056  9298.11  95.8034
 29.3476  9339.43  96.5367
 29.3896  9318.42  96.5455
 29.4316  9203.26  95.3238
 29.4736  9089.85  94.7943
 29.5156  9209.56  95.3381
 29.5576  9152.99  95.7679
 29.5996  9068.5  94.6063
 29.6416  9045.45  94.5992
 29.6836  9132.53  94.9856
 29.7256  9076.41  95.2422
 29.7676  9043.5  94.7406
 29.8096  9009.28  94.5042
 29.8516  8891.65  94.2052
 29.8936  9061.69  95.195
 29.9356  9125.2  95.2887
 29.9776  9012.86  94.8472
 30.0196  9132.85  94.8792
 30.0616  9141.09  95.2885
 30.1036  9151.02  95.17
 30.1456  9004.77  94.626
 30.1876  8983.26  94.5
 30.2296  8915.85  94.0949
 30.2716  9003.27  94.2004
 30.3136  9166.51  95.8945
 30.3556  9197.15  96.0175
 30.3976  9102.34  96.9742
 30.4396  9401.79  95.911
 30.4816  9292.77  94.986
 30.5236  9325.4  95.1284
 30.5656  9190.17  95.0873
 30.6076  9104.9  94.4431
 30.6496  9306.8  95.5246
 30.6916  9033.87  94.2328
 30.7336  9068.29  94.5268
 30.7756  9151.49  95.0393
 30.8176  9016.87  94.2643
 30.8596  8982.7  93.8547
 30.9016  9177.42  94.7201
 30.9436  9100.01  94.555
 30.9856  9292.34  95.6666
 31.0276  9039.42  94.0003
 31.0696  9100.3  94.8646
 31.1116  9059.36  94.6252
 31.1536  9070.4  94.5752
 31.1956  8971.94  94.1316
 31.2376  8773.58  93.115
 31.2796  9074.12  94.2285
 31.3216  8956.88  93.5477
 31.3636  8947.14  94.1995
 31.4056  8921.44  95.3611
 31.4476  9068.2  94.0481
 31.4896  9108.54  94.7542
 31.5316  9236.28  94.8657
 31.5736  9618.3  96.5943
 31.6156  9581.02  96.4066
 31.6576  9224.57  94.6774
 31.6996  9252.08  94.4929
 31.7416  9223.49  95.264
 31.7836  9080.96  93.7033
 31.8256  9041.91  93.8486
 31.8676  9013.07  93.6007
 31.9096  8913.52  93.3222
 31.9516  8822.38  93.1378
 31.9936  8772.52  92.7151
 32.0356  9078.81  94.3556
 32.0776  9014.43  93.9149
 32.1196  9097.96  94.3442
 32.1616  8977.99  93.2776
 32.2036  8880.89  93.2632
 32.2456  8909.2  93.8038
 32.2876  8842.15  92.8016
 32.3296  8763.79  92.5048
 32.3716  8740.96  92.5268
 32.4136  8800.59  93.0459
 32.4556  8803.53  92.4959
 32.4976  8875.93  92.7633
 32.5396  8744.11  92.102
 32.5816  8739.27  92.1786
 32.6236  8729.53  92.208
 32.6656  8783.51  93.0318
 32.7076  8759.94  92.5688
 32.7496  8589.61  91.3537
 32.7916  8681.72  91.794
 32.8336  8587.85  91.3958
 32.8756  8759.4  92.014
 32.9176  8650.58  91.9262
 32.9596  8760.14  92.5706
 33.0016  8754.31  92.322
 33.0436  8701.5  92.226
 33.0856  8586.25  91.6898
 33.1276  8491.69  90.9339
 33.1696  8651.87  91.6106
 33.2116  8654.07  91.8614
 33.2536  8717.42  92.158
 33.2956  8622.08  91.7586
 33.3376  8328.5  90.0166
 33.3796  8595.82  91.5785
 33.4216  8600.57  91.2123
 33.4636  8521.7  90.9347
 33.5056  8433.08  90.7052
 33.5476  8457.15  90.7892
 33.5896  8602.91  91.3576
 33.6316  8537.18  91.3147
 33.6736  8408.94  90.8876
 33.7156  8419.9  90.9734
 33.7576  8442.19  90.745
 33.7996  8544.22  91.0726
 33.8416  8254.77  89.6825
 33.8836  8328.06  89.8745
 33.9256  8477.03  90.6985
 33.9676  8566.69  91.0867
 34.0096  8376.48  90.3683
 34.0516  8353.32  89.9048
 34.0936  8354.1  90.1772
 34.1356  8432.01  90.3331
 34.1776  8270.25  89.4757
 34.2196  8464.82  90.6934
 34.2616  8270.42  89.793
 34.3036  8322.33  90.2862
 34.3456  8363.6  90.2799
 34.3876  8346.06  90.2485
 34.4296  8258.35  89.378
 34.4716  8515.71  90.9165
 34.5136  8384.17  90.4078
 34.5556  8221.99  89.7894
 34.5976  8408.97  90.6113
 34.6396  8332.62  89.8999
 34.6816  8401.91  90.3652
 34.7236  8436.93  90.3464
 34.7656  8382.33  90.2623
 34.8076  8265.64  89.9605
 34.8496  8181.13  89.3617
 34.8916  8259.45  89.6351
 34.9336  8361.54  90.1928
 34.9756  8462.73  90.651
 35.0176  8328.64  90.4416
 35.0596  8417.13  90.7251
 35.1016  8344.54  90.1175
 35.1436  8430.99  90.2649
 35.1856  8210.42  89.1978
 35.2276  8275.3  89.7263
 35.2696  8336.25  90.2424
 35.3116  8219.3  89.726
 35.3536  8331.74  90.0427
 35.3956  8243.07  89.2673
 35.4376  8326.8  90.262
 35.4796  8286.19  90.0942
 35.5216  8184.14  89.4975
 35.5636  8004.63  89.238
 35.6056  8159.98  89.1541
 35.6476  8206.7  89.2931
 35.6896  8207  89.4668
 35.7316  8199.41  89.3211
 35.7736  8254.13  89.8073
 35.8156  8195.14  89.4654
 35.8576  8084.19  89.1156
 35.8996  8204.92  89.7483
 35.9416  8140.36  88.9043
 35.9836  8014.91  88.6863
 36.0256  8355.45  90.4291
 36.0676  8353.78  89.9548
 36.1096  8219.47  89.5933
 36.1516  8296.69  89.9111
 36.1936  8230.16  89.3849
 36.2356  8168.54  89.7011
 36.2776  8146.71  89.0426
 36.3196  8243.16  89.2642
 36.3616  8128.99  88.767
 36.4036  8090.79  88.6287
 36.4456  8207.08  89.4607
 36.4876  7988.4  88.2158
 36.5296  8120.72  88.9793
 36.5716  8110.48  89.6876
 36.6136  8089.33  88.4046
 36.6556  8102.34  88.6743
 36.6976  7976.65  88.4741
 36.7396  7909.92  87.8368
 36.7816  7914.92  88.2347
 36.8236  7881.75  87.973
 36.8656  7788.48  87.5213
 36.9076  7957  88.4654
 36.9496  7731.21  87.0622
 36.9916  7876.46  87.516
 37.0336  7873.31  87.811
 37.0756  7918.08  87.8562
 37.1176  7767.19  87.2777
 37.1596  7796.1  87.4371
 37.2016  7849.23  87.9165
 37.2436  7811.03  87.0777
 37.2856  7808.27  87.3046
 37.3276  7814.75  86.7203
 37.3696  7820.49  87.6182
 37.4116  7812.67  87.4813
 37.4536  7694.44  86.6845
 37.4956  7618.43  86.3004
 37.5376  7863.61  89.2124
 37.5796  7860.61  89.118
 37.6216  7769.09  86.8843
 37.6636  7874.7  87.3439
 37.7056  7892.77  87.6519
 37.7476  7959.91  87.5549
 37.7896  7859.23  87.5344
 37.8316  7816.71  87.405
 37.8736  7804.67  86.9243
 37.9156  7804.11  86.8907
 37.9576  7823.51  86.9141
 37.9996  7639.18  85.5974
 38.0416  7692.51  86.692
 38.0836  7815.39  87.2817
 38.1256  7809.78  87.2272
 38.1676  7886.63  87.7763
 38.2096  7914.38  87.5185
 38.2516  7927.49  87.8515
 38.2936  7948.72  87.7336
 38.3356  7846.18  87.1326
 38.3776  7720.91  86.6684
 38.4196  7932.56  87.7064
 38.4616  7744.27  86.8951
 38.5036  7947.97  87.8754
 38.5456  7663.71  87.1159
 38.5876  7688.14  87.2858
 38.6296  7708.81  86.3602
 38.6716  7867.83  87.0547
 38.7136  7780.27  86.5177
 38.7556  7767.36  86.9424
 38.7976  7769.77  86.8914
 38.8396  7828.38  87.6613
 38.8816  7691.98  86.6978
 38.9236  7733.73  86.7385
 38.9656  7777.51  86.8974
 39.0076  7821.9  86.5438
 39.0496  7833.55  87.1466
 39.0916  7877.75  87.057
 39.1336  7696.44  86.4479
 39.1756  7753.34  86.8132
 39.2176  7719.91  87.1857
 39.2596  7681.41  86.8808
 39.3016  7758.32  86.9043
 39.3436  7635.08  86.6104
 39.3856  7732.99  86.6063
 39.4276  7829.44  87.646
 39.4696  7671.98  86.4006
 39.5116  7893.64  88.1349
 39.5536  7792.87  88.0068
 39.5956  7692.5  86.5805
 39.6376  7718.79  86.7328
 39.6796  7713.92  86.4479
 39.7216  7749.11  86.7485
 39.7636  7698.74  86.9989
 39.8056  7739.38  87.0176
 39.8476  7613  86.5662
 39.8896  7741.61  86.9116
 39.9316  7581.35  86.2708
 39.9736  7673.12  86.379
 40.0156  7649.44  86.0675
 40.0576  7653.95  86.4475
 40.0996  7736.37  86.0982
 40.1416  7693.64  86.6425
 40.1836  7807.22  87.1623
 40.2256  7621.47  86.1606
 40.2676  7678.09  86.6651
 40.3096  7641.86  86.306
 40.3516  7752.77  87.0558
 40.3936  7816.9  86.9643
 40.4356  7675.08  86.3809
 40.4776  7809.39  87.3435
 40.5196  7785.87  87.5195
 40.5616  7787.04  87.1523
 40.6036  7684.55  86.855
 40.6456  7714.94  86.6479
 40.6876  7814.83  87.1808
 40.7296  7743.76  86.9284
 40.7716  7749.52  87.0777
 40.8136  7595.53  86.1592
 40.8556  7778.47  87.2953
 40.8976  7753.6  87.1013
 40.9396  7742.13  87.3503
 40.9816  7702.25  86.453
 41.0236  7647.56  85.9409
 41.0656  7806.18  87.3438
 41.1076  7728.09  86.7018
 41.1496  7770.64  86.8356
 41.1916  7753.95  87.0617
 41.2336  7746.91  86.9981
 41.2756  7724.3  86.498
 41.3176  7645.1  86.6304
 41.3596  7749.42  86.9825
 41.4016  7689.89  86.9096
 41.4436  7841.72  87.5357
 41.4856  7693.72  86.8867
 41.5276  7667.88  86.7388
 41.5696  7646.17  86.2396
 41.6116  7762.52  87.2788
 41.6536  7753.06  87.0981
 41.6956  7834.69  87.5374
 41.7376  7631.2  86.5014
 41.7796  7630.51  86.4413
 41.8216  7718.28  87.1028
 41.8636  7642.02  86.6338
 41.9056  7756.41  87.0573
 41.9476  7788.73  87.4673
 41.9896  7753.41  86.9211
 42.0316  7713.06  86.7989
 42.0736  7769.08  87.2494
 42.1156  7601.71  86.1075
 42.1576  7742.83  87.0258
 42.1996  7738.41  87.1149
 42.2416  7658.36  86.2627
 42.2836  7618.2  86.1478
 42.3256  7625.52  86.299
 42.3676  7758.86  86.8389
 42.4096  7789.22  86.9905
 42.4516  7777.18  86.9735
 42.4936  7643.5  86.3251
 42.5356  7540.1  85.8884
 42.5776  7765.17  87.0841
 42.6196  7695.14  86.7534
 42.6616  7608.22  86.4243
 42.7036  7755.83  86.6456
 42.7456  7689.35  86.6037
 42.7876  7664.22  86.5771
 42.8296  7652.73  86.3433
 42.8716  7613.16  86.2869
 42.9136  7513.17  85.4883
 42.9556  7685.6  86.6135
 42.9976  7650.35  86.3956
 43.0396  7581.3  85.7265
 43.0816  7595.94  86.1916
 43.1236  7484.82  85.603
 43.1656  7579.53  85.9724
 43.2076  7633.29  86.3803
 43.2496  7552.51  85.7527
 43.2916  7554.54  86.1161
 43.3336  7536.95  85.854
 43.3756  7635.07  86.1675
 43.4176  7444.68  85.1697
 43.4596  7545.16  85.5998
 43.5016  7551.43  86.0296
 43.5436  7528.04  85.8075
 43.5856  7573.69  86.1054
 43.6276  7522.88  85.6996
 43.6696  7469.68  85.5508
 43.7116  7583.47  85.8056
 43.7536  7582.81  86.2788
 43.7956  7464.6  86.8056
 43.8376  7428.5  85.1747
 43.8796  7321.85  84.6411
 43.9216  7387.79  84.9425
 43.9636  7467.34  85.5006
 44.0056  7348.15  85.047
 44.0476  7419  85.0867
 44.0896  7423.85  85.4571
 44.1316  7304.09  84.4367
 44.1736  7350.42  84.6808
 44.2156  7333.82  84.451
 44.2576  7294.71  84.5307
 44.2996  7337.71  84.7593
 44.3416  7465.84  85.2581
 44.3836  7250.88  84.3458
 44.4256  7233.37  83.8963
 44.4676  7295.8  84.4076
 44.5096  7367.55  84.9644
 44.5516  7229.43  84.1302
 44.5936  7118.89  83.4408
 44.6356  7305.55  84.2699
 44.6776  7298.52  84.5405
 44.7196  7313.99  84.9315
 44.7616  7370.91  86.5514
 44.8036  7427.89  85.5004
 44.8456  7475.27  85.7722
 44.8876  7419.38  85.296
 44.9296  7543.2  85.4576
 44.9716  7416.03  85.1441
 45.0136  7389.07  84.9463
 45.0556  7415.08  85.1766
 45.0976  7345.78  84.817
 45.1396  7370.42  84.7275
 45.1816  7387.07  84.7847
 45.2236  7411.94  84.8112
 45.2656  7352.49  84.9751
 45.3076  7432.73  85.2117
 45.3496  7326.47  84.918
 45.3916  7399.58  85.5912
 45.4336  7505.73  86.0259
 45.4756  7359.6  85.0637
 45.5176  7399.77  84.8946
 45.5596  7591.23  86.1051
 45.6016  7267.3  84.6817
 45.6436  7378.58  84.5027
 45.6856  7312.07  84.7761
 45.7276  7311.11  86.0991
 45.7696  7318.39  85.815
 45.8116  7296.09  85.1226
 45.8536  7191.36  84.3745
 45.8956  7360.54  84.7342
 45.9376  7173.09  83.1141
 45.9796  7430.07  85.2799
 46.0216  7449.93  85.7336
 46.0636  7374.48  84.4553
 46.1056  7338.26  84.233
 46.1476  7366.5  84.9843
 46.1896  7383.88  85.2299
 46.2316  7344.49  84.8674
 46.2736  7300.7  84.8156
 46.3156  7227.71  84.1561
 46.3576  7311.08  84.8419
 46.3996  7280.74  84.8234
 46.4416  7281.14  84.3924
 46.4836  7264.19  84.6594
 46.5256  7236.38  84.438
 46.5676  7315.47  85.0009
 46.6096  7340.48  85.0672
 46.6516  7446.39  84.7287
 46.6936  7215.01  83.9036
 46.7356  7417.2  85.1504
 46.7776  7272.66  85.1978
 46.8196  7253.09  84.8239
 46.8616  7178.78  84.2031
 46.9036  7163.86  83.7736
 46.9456  7268.82  84.021
 46.9876  7223.46  83.8337
 47.0296  7215.23  84.4823
 47.0716  7122.78  83.7551
 47.1136  7157.38  83.6249
 47.1556  7286.32  84.2528
 47.1976  7306.58  84.5312
 47.2396  7271.39  84.6491
 47.2816  7236.06  84.1559
 47.3236  7201.38  84.3001
 47.3656  7207.51  84.2799
 47.4076  7272.23  84.3742
 47.4496  7174.22  83.9807
 47.4916  7196.23  84.2913
 47.5336  7172.9  83.9748
 47.5756  7281.3  84.7303
 47.6176  7148.37  83.8498
 47.6596  7109.56  83.3439
 47.7016  7366.57  84.6435
 47.7436  7193.63  83.9942
 47.7856  7329.34  84.7851
 47.8276  7189.59  84.0265
 47.8696  7225.12  84.3182
 47.9116  7234.07  84.0941
 47.9536  7253.77  84.153
 47.9956  7154.49  84.2794
 48.0376  7134.77  83.9473
 48.0796  7214.26  84.5165
 48.1216  7149.29  83.9789
 48.1636  7304.64  84.4325
 48.2056  7255.41  84.4309
 48.2476  7312.75  85.0543
 48.2896  7244.39  84.5865
 48.3316  7204.83  84.2999
 48.3736  7255.6  84.6157
 48.4156  7201.61  84.1631
 48.4576  7192.78  84.3933
 48.4996  7247.13  84.1711
 48.5416  7296.92  84.7656
 48.5836  7120.67  83.4259
 48.6256  7273.66  84.5112
 48.6676  7180.67  84.4985
 48.7096  7276.91  84.3371
 48.7516  7244.18  84.2881
 48.7936  7097.26  83.506
 48.8356  7200.11  84.1459
 48.8776  7187.32  84.5626
 48.9196  7304.6  84.6806
 48.9616  7180.16  84.3441
 49.0036  7208.55  84.8545
 49.0456  7233.93  85.0005
 49.0876  7149.41  84.1559
 49.1296  7162.24  84.2713
 49.1716  7064.77  83.5852
 49.2136  7307.59  84.9203
 49.2556  7153.49  84.0546
 49.2976  7155.08  84.11
 49.3396  7060.32  83.631
 49.3816  7372.5  84.8566
 49.4236  7157.04  84.054
 49.4656  7049.75  83.4514
 49.5076  7141.16  83.7254
 49.5496  7170.58  83.971
 49.5916  7132.56  83.6562
 49.6336  7151.41  83.9768
 49.6756  7219.68  84.5898
 49.7176  7133.38  84.036
 49.7596  7152.2  83.9102
 49.8016  7268.6  84.5069
 49.8436  7085.29  83.7526
 49.8856  7120.88  83.9551
 49.9276  7106.75  83.9816
 49.9696  7196.93  84.4826
 50.0116  7078.93  83.9184
 50.0536  7160.44  84.3529
 50.0956  7030.79  83.6562
 50.1376  7089  83.677
 50.1796  7028.38  83.6091
 50.2216  7123.06  84.1592
 50.2636  7007.61  83.0963
 50.3056  7053.51  83.5524
 50.3476  7037.75  83.4734
 50.3896  7050.44  83.523
 50.4316  7108.33  83.6966
 50.4736  7062.66  83.6458
 50.5156  7077.63  83.7278
 50.5576  7094.4  83.5721
 50.5996  7047.52  83.5875
 50.6416  6990  83.166
 50.6836  7117.42  83.9687
 50.7256  7070.87  83.6305
 50.7676  7250.38  84.9371
 50.8096  7055.28  83.393
 50.8516  6922.8  83.0269
 50.8936  6974.09  83.1235
 50.9356  7061.91  83.7425
 50.9776  7013.82  83.6261
 51.0196  6850.21  82.7845
 51.0616  6958.26  82.7677
 51.1036  6924.18  82.9235
 51.1456  6921.71  82.821
 51.1876  6919.55  82.1431
 51.2296  6824.74  82.2139
 51.2716  6743.23  81.4276
 51.3136  6850.52  82.5361
 51.3556  6753.81  81.5712
 51.3976  6844.5  82.271
 51.4396  6747.29  81.994
 51.4816  6930.14  82.9506
 51.5236  6970.44  83.2766
 51.5656  6759.56  81.6057
 51.6076  6917.73  82.6398
 51.6496  6938.92  82.96
 51.6916  6916.63  83.179
 51.7336  6767.79  82.3806
 51.7756  6822.14  82.4023
 51.8176  6801.48  82.3909
 51.8596  6743.77  82.0553
 51.9016  7005.75  83.2339
 51.9436  6865.77  83.8631
 51.9856  6893.52  84.4244
 52.0276  6926.37  83.1058
 52.0696  6976.99  83.466
 52.1116  6850.27  82.8584
 52.1536  6818.89  82.4862
 52.1956  6851.31  82.2103
 52.2376  6930.33  82.8349
 52.2796  6858.36  82.2236
 52.3216  6747.27  82.237
 52.3636  6833.48  82.3221
 52.4056  6840.18  82.2351
 52.4476  6746  82.0194
 52.4896  6672.36  81.6358
 52.5316  6954.2  83.3614
 52.5736  6684.62  81.486
 52.6156  6913.58  83.2457
 52.6576  6848.2  82.307
 52.6996  6641.45  82.0274
 52.7416  6752.18  82.5751
 52.7836  6799.09  82.7373
 52.8256  7011.3  83.2149
 52.8676  6602.31  81.3239
 52.9096  6660.36  81.7452
 52.9516  6774.97  82.8496
 52.9936  6674.65  82.6078
 53.0356  6865.43  82.7559
 53.0776  6793.12  82.6047
 53.1196  6736.45  82.3735
 53.1616  6786.15  82.729
 53.2036  6807.23  82.8167
 53.2456  6808.74  82.9321
 53.2876  6875.5  83.0193
 53.3296  6761.51  82.6633
 53.3716  6853.75  82.9502
 53.4136  6836.9  83.0191
 53.4556  6753.86  82.5425
 53.4976  6842.08  82.9163
 53.5396  6633.83  82.0541
 53.5816  6773.64  82.5349
 53.6236  6743.47  82.7076
 53.6656  6899.85  83.2655
 53.7076  6866.87  83.0128
 53.7496  6835.35  82.9389
 53.7916  6824.44  83.0293
 53.8336  6673.6  81.9784
 53.8756  6651.59  82.4142
 53.9176  6640.72  81.7072
 53.9596  6486.08  81.5201
 54.0016  6488.57  80.8678
 54.0436  6462.48  80.9214
 54.0856  6554.54  80.9145
 54.1276  6506.49  80.8084
 54.1696  6590.83  81.5033
 54.2116  6730.78  82.0938
 54.2536  6464.3  80.269
 54.2956  6489.81  80.4933
 54.3376  6513.98  81.138
 54.3796  6433.03  80.5082
 54.4216  6461.35  80.7513
 54.4636  6466.8  80.7498
 54.5056  6459.77  80.499
 54.5476  6396  80.4434
 54.5896  6355.57  80.0351
 54.6316  6478.21  80.6435
 54.6736  6505.09  80.8568
 54.7156  6374.22  80.1123
 54.7576  6330.81  79.8172
 54.7996  6497.75  81.0088
 54.8416  6360.17  80.1984
 54.8836  6440.76  80.7777
 54.9256  6351.82  80.01
 54.9676  6416.01  80.2785
 55.0096  6426.07  80.3761
 55.0516  6311.17  79.8315
 55.0936  6429.99  80.2918
 55.1356  6313.75  79.6048
 55.1776  6445.05  80.6365
 55.2196  6434.78  80.3565
 55.2616  6497.31  80.9928
 55.3036  6274.65  79.7749
 55.3456  6242.25  79.7224
 55.3876  6297.99  79.7891
 55.4296  6272.61  79.6517
 55.4716  6313.85  79.9053
 55.5136  6322.26  79.7394
 55.5556  6490.41  80.8087
 55.5976  6341.08  79.9909
 55.6396  6246.18  79.2292
 55.6816  6296.73  79.5057
 55.7236  6275.38  79.4407
 55.7656  6336.45  79.5659
 55.8076  6227.92  78.8901
 55.8496  6438.53  80.6108
 55.8916  6338.82  80.0538
 55.9336  6355.31  80.0014
 55.9756  6248.21  79.2173
 56.0176  6282.66  79.5829
 56.0596  6313.43  79.7891
 56.1016  6139.96  78.7279
 56.1436  6229.8  79.5291
 56.1856  6195.95  79.0538
 56.2276  6400.7  80.3914
 56.2696  6268.79  79.5483
 56.3116  6370.91  80.5351
 56.3536  6139.72  78.7455
 56.3956  6183.76  79.0312
 56.4376  6220.76  79.3189
 56.4796  6117.96  78.4723
 56.5216  6214.69  79.4648
 56.5636  6170.57  78.763
 56.6056  6339.78  80.0424
 56.6476  6223.37  78.9448
 56.6896  6308.7  79.913
 56.7316  6123.88  78.6804
 56.7736  6183.22  79.0449
 56.8156  6174.17  79.0148
 56.8576  6006.87  77.887
 56.8996  6098.6  78.3676
 56.9416  6123.25  78.8679
 56.9836  6218.09  78.9607
 57.0256  6094.4  78.4961
 57.0676  6189.32  79.215
 57.1096  6163.92  78.8567
 57.1516  6065.02  78.2531
 57.1936  6225.83  79.0571
 57.2356  6034.98  78.1778
 57.2776  6116.58  78.6481
 57.3196  6144.05  79.154
 57.3616  6081.4  78.2694
 57.4036  6115.52  78.5468
 57.4456  6254.09  79.3769
 57.4876  6141.55  78.5598
 57.5296  6060.92  78.2631
 57.5716  6074.61  78.4673
 57.6136  5962.78  77.5767
 57.6556  6072.25  78.3993
 57.6976  6054.66  78.1201
 57.7396  6097.59  78.7608
 57.7816  5952.54  78.1764
 57.8236  6044.24  78.5596
 57.8656  6034.7  78.1695
 57.9076  6013.28  78.0552
 57.9496  6001.41  78.3149
 57.9916  6127.23  78.6476
 58.0336  5964.94  77.8829
 58.0756  6028.46  77.895
 58.1176  6021.27  77.8807
 58.1596  5978.12  78.1863
 58.2016  5919.02  77.0611
 58.2436  5853.49  77.0347
 58.2856  5859.07  76.9957
 58.3276  5763.13  76.7246
 58.3696  5875.17  77.2236
 58.4116  5820.24  76.7273
 58.4536  5871.37  76.9514
 58.4956  5807.85  76.7113
 58.5376  5914.13  76.9836
 58.5796  5849.86  76.9831
 58.6216  5822.69  76.6277
 58.6636  5807.99  76.7333
 58.7056  5840.42  76.8093
 58.7476  5773.29  76.8005
 58.7896  5703.77  75.9902
 58.8316  5836  76.8628
 58.8736  5800.12  76.6364
 58.9156  5794.35  76.6382
 58.9576  5790.67  76.9313
 58.9996  5800.58  76.2626
 59.0416  5785.36  76.5179
 59.0836  5749.71  76.1932
 59.1256  5749.26  76.8816
 59.1676  5772.65  77.3395
 59.2096  5951.91  77.8454
 59.2516  5966.33  77.5231
 59.2936  5942.07  77.6908
 59.3356  5638.26  75.5605
 59.3776  5810.9  76.8744
 59.4196  5798.21  76.7277
 59.4616  5806.65  76.6461
 59.5036  5696.04  75.9471
 59.5456  5824.25  76.4957
 59.5876  5749.15  76.1874
 59.6296  5612.22  75.3415
 59.6716  5691.9  75.9307
 59.7136  5787.56  76.5546
 59.7556  5631.4  75.6466
 59.7976  5855.18  76.881
 59.8396  5718.88  75.8779
 59.8816  5747.42  76.5989
 59.9236  5851.61  76.9396
 59.9656  5791.1  76.7962
 60.0076  5703.31  75.587
 60.0496  5766.65  76.4953
 60.0916  5788.89  76.0756
 60.1336  5587.38  75.8053
 60.1756  5672.62  77.5295
 60.1996  0.0000000E+00  0.0000000E+00