File: docs/examples/opeando_xrd/IS17_D/Data/IS17_D/17_Db_f00071.xye
# /beamlines/bl04/projects/cycle2025-II/20250340211-lsimonelli/DATA/IS17_D/17_Db_f00071.xye : mythproc.py merge -s 0.006 -l 0.5 -f /beamlines/bl04/inhouse/ff/FlatField/ff_20Nov2024rod8mm60s_17keV.raw -b True -c true -o xye /beamlines/bl04/projects/cycle2025-II/20250340211-lsimonelli/DATA/IS17_D/17_Db_00071.dat
# IsMon = [6762062, 6765885, 6766978]  IsPos = [-1.4999, -2.4884, -3.4988]
# Wave = 0.4962  CalPath /beamlines/bl04/projects/cycle2025-II/20250340211-lsimonelli/DATA/Align/Si_Pos1_25keV_f00001.cal
# Date = 2025-09-24_13:27:47 Dt = 4.8000  Bin = 0.0060  <imon> = 6764975 +/- 2108 (Min/Max) 6762062 / 6766978
# icurr 250.7645  mocoIn 1.7100E-05  mocoOut 0.8021  i15 7.08702e+06  imon 6.76498e+06  i7 2.6667  iEMpd_timer 4.8000  iEMpd_1 3.3707E-08  iEMpd_2 7.7593E-08  iEMpd_3 1.6581E-08  iEMpd_4 4.7656E-08  iEMhp_timer 4.8000  iEMhp_1 4.8974E-06  iEMhp_2 -2.6710E-08  iEMhp_3 -2.3674E-08  iEMhp_4 -2.1644E-08
#      9776
 1.5856  42595  211.971
 1.6276  49609.6  224.834
 1.6696  55134.9  236.189
 1.7116  62074.4  251.102
 1.7536  70622.6  266.693
 1.7956  74115.4  273.891
 1.8376  71412.1  269.276
 1.8796  61326  247.69
 1.9216  50664.7  226.04
 1.9636  42912.9  207.177
 2.0056  39406.8  197.764
 2.0476  36510.4  192.445
 2.0896  35086.4  187.548
 2.1316  34503.9  185.091
 2.1736  32851.6  182.037
 2.2156  33327.8  181.88
 2.2576  31946.5  178.711
 2.2996  31064.7  176.873
 2.3416  31186  175.802
 2.3836  30602.7  174.259
 2.4256  29294.9  171.05
 2.4676  29643.5  171.821
 2.5096  29811.9  172.365
 2.5516  35737.6  192.999
 2.5936  151747  389.358
 2.6356  30999.2  176.912
 2.6776  27590.2  165.795
 2.7196  26952.9  164.361
 2.7616  26570.8  162.984
 2.8036  26161.7  161.879
 2.8456  26161  162.518
 2.8876  25233.8  159.47
 2.9296  25167.8  159.402
 2.9716  24748.8  157.562
 3.0136  24538.7  156.951
 3.0556  24700.4  157.853
 3.0976  24610.9  156.5
 3.1396  24375.1  156.452
 3.1816  24106.2  155.532
 3.2236  23993.8  155.177
 3.2656  23802.3  153.592
 3.3076  23604.4  154.411
 3.3496  23646.3  153.481
 3.3916  24149.7  154.939
 3.4336  24354.8  156.178
 3.4756  24925.4  157.939
 3.5176  25532.9  159.617
 3.5596  25481.2  161.86
 3.6016  25467.4  159.471
 3.6436  24587.5  157.785
 3.6856  24171.8  154.771
 3.7276  23325.4  153.099
 3.7696  23001.9  152.21
 3.8116  22859.3  151.645
 3.8536  22965.8  151.931
 3.8956  22951  151.708
 3.9376  23702.5  154.434
 3.9796  22720.8  150.702
 4.0216  22749.6  149.844
 4.0636  22705.3  151.129
 4.1056  22559.1  150.313
 4.1476  23051.6  152.261
 4.1896  23145.7  152.419
 4.2316  23079  152.037
 4.2736  23728.4  153.965
 4.3156  23695.1  154.08
 4.3576  24690.5  157.186
 4.3996  24865.9  158.02
 4.4416  25559.1  159.794
 4.4836  26780.3  163.728
 4.5256  26606.6  163.813
 4.5676  26329  163.205
 4.6096  26880.9  163.573
 4.6516  27419.6  164.892
 4.6936  27242.2  165.178
 4.7356  28247.4  168.025
 4.7776  27349.1  165.156
 4.8196  26994.2  164.737
 4.8616  26621.2  163.08
 4.9036  26367.7  162.044
 4.9456  26435.3  162.893
 4.9876  25828  160.917
 5.0296  25930.2  161.079
 5.0716  25560  160.653
 5.1136  25705.1  160.844
 5.1556  26134.6  161.639
 5.1976  35125  187.369
 5.2396  26849.3  163.528
 5.2816  26567.5  163.14
 5.3236  26393.3  162.295
 5.3656  26334.4  163.041
 5.4076  25831  161.612
 5.4496  25879.7  161.262
 5.4916  26129.9  161.799
 5.5336  25878.6  161.027
 5.5756  25841.6  160.933
 5.6176  26153.8  161.338
 5.6596  26317.2  162.835
 5.7016  26347  162.187
 5.7436  26538.9  163.052
 5.7856  26330.9  162.476
 5.8276  26471.5  162.622
 5.8696  26897.8  164.101
 5.9116  26633.9  163.886
 5.9536  27295.8  165.663
 5.9956  27119.1  164.512
 6.0376  27286.1  165.636
 6.0796  27437.3  165.927
 6.1216  27407.7  166.022
 6.1636  27881  166.529
 6.2056  27732.6  166.744
 6.2476  27815.7  166.87
 6.2896  28237.4  167.819
 6.3316  28021.8  167.346
 6.3736  28210.6  167.804
 6.4156  28336.2  168.067
 6.4576  28645.2  168.598
 6.4996  28460.6  168.521
 6.5416  28644.4  169.193
 6.5836  29002  170.478
 6.6256  28391  168.251
 6.6676  29270.7  170.401
 6.7096  29309.4  171.38
 6.7516  29637.3  171.985
 6.7936  30490.8  173.843
 6.8356  31403.5  176.527
 6.8776  30406.2  174.496
 6.9196  30143.6  174.148
 6.9616  30502.1  174.621
 7.0036  30990.5  175.676
 7.0456  30954.8  174.881
 7.0876  30747.7  175.957
 7.1296  30695.6  174.957
 7.1716  30950.8  175.224
 7.2136  30593.4  173.993
 7.2556  30883.2  174.969
 7.2976  30957  175.672
 7.3396  30671.7  175.072
 7.3816  30879.6  175.883
 7.4236  31174.6  176.023
 7.4656  31263.2  175.737
 7.5076  31713.8  177.148
 7.5496  31410  176.826
 7.5916  31495.5  177.117
 7.6336  32460  179.697
 7.6756  32122.4  178.609
 7.7176  32553.8  180.129
 7.7596  32367.4  180.823
 7.8016  38554.7  199.767
 7.8436  32760.8  180.799
 7.8856  32947.9  180.936
 7.9276  33612.4  183.136
 7.9696  34019.4  184.551
 8.0116  34655.3  184.829
 8.0536  34891.4  185.71
 8.0956  37209.5  192.983
 8.1376  35420.7  187.761
 8.1796  35693.4  189.018
 8.2216  36344.3  189.483
 8.2636  37666.3  193.15
 8.3056  36452.7  190.775
 8.3476  38922.3  196.447
 8.3896  37452.9  192.782
 8.4316  37088.6  192.009
 8.4736  36739.7  190.58
 8.5156  36648.7  190.617
 8.5576  36510.8  191.217
 8.5996  36345.7  189.674
 8.6416  36239.4  190.646
 8.6836  36082.9  190.063
 8.7256  37163.3  192.339
 8.7676  39556.5  201.475
 8.8096  40436.9  200.886
 8.8516  37097.2  191.979
 8.8936  39069.2  196.971
 8.9356  37230.8  192.623
 8.9776  36528.1  190.861
 9.0196  36694.4  190.986
 9.0616  36780  190.693
 9.1036  39193.4  198.067
 9.1456  36221.8  189.725
 9.1876  35899.2  188.827
 9.2296  35130.9  186.24
 9.2716  35005.5  185.955
 9.3136  35179.3  186.41
 9.3556  35652.6  187.639
 9.3976  34416.4  184.877
 9.4396  34430.1  184.815
 9.4816  34106.5  183.809
 9.5236  33875.6  183.072
 9.5656  33544.3  182.532
 9.6076  33028.4  181.633
 9.6496  32996.7  181.429
 9.6916  32894.9  181.112
 9.7336  33415.3  182.325
 9.7756  32917.8  182.212
 9.8176  32876.6  181.625
 9.8596  32887.1  180.093
 9.9016  32231.7  178.278
 9.9436  32336.3  178.493
 9.9856  32698.4  179.762
 10.0276  31474.4  177.426
 10.0696  31822.7  177.453
 10.1116  31237.9  176.083
 10.1536  31143  175.948
 10.1956  30173.9  172.827
 10.2376  29943.2  171.681
 10.2796  29730.2  171.169
 10.3216  29603.8  171.094
 10.3636  29914.9  172.004
 10.4056  32689.9  180.233
 10.4476  33296.4  181.488
 10.4896  37080.7  190.922
 10.5316  33225.7  181.463
 10.5736  29583.6  171.671
 10.6156  29592.7  171.458
 10.6576  34094.1  182.464
 10.6996  29291.6  169.835
 10.7416  28484  167.694
 10.7836  29042.2  169.992
 10.8256  27157.9  164.819
 10.8676  27278  164.72
 10.9096  27368.6  165.037
 10.9516  26889.9  162.53
 10.9936  27840.3  165.592
 11.0356  27117.3  164.036
 11.0776  28751.6  168.22
 11.1196  28436.8  168.086
 11.1616  26546.7  162.071
 11.2036  27813.3  165.74
 11.2456  29442.2  171.271
 11.2876  26268.8  161.507
 11.3296  26396.1  161.81
 11.3716  26754.7  162.593
 11.4136  26353.3  162.254
 11.4556  26499.1  162.357
 11.4976  27883.5  165.509
 11.5396  27345.6  164.066
 11.5816  25693.7  159.486
 11.6236  25251.7  158.327
 11.6656  25742.6  159.023
 11.7076  24789.3  156.868
 11.7496  25275.7  162.413
 11.7916  25680.9  158.909
 11.8336  24382.2  155.72
 11.8756  24793.6  156.583
 11.9176  24507.8  155.349
 11.9596  24356.1  155.04
 12.0016  24016.9  154.717
 12.0436  24156.9  154.628
 12.0856  23739.1  153.773
 12.1276  24019.5  154.634
 12.1696  23770.9  152.953
 12.2116  24186.5  154.281
 12.2536  26539.7  162.467
 12.2956  24301.3  154.805
 12.3376  24194.4  154.68
 12.3796  23950.8  154.379
 12.4216  24062.9  153.931
 12.4636  25069.8  158.08
 12.5056  23513.9  152.367
 12.5476  23820.6  152.861
 12.5896  23431.5  152.248
 12.6316  23394.6  152.296
 12.6736  23278  152.395
 12.7156  23945.5  154.408
 12.7576  23533.1  153.315
 12.7996  23790.1  152.794
 12.8416  24038.5  154.647
 12.8836  24712.1  156.627
 12.9256  24167.6  153.922
 12.9676  24152.2  154.27
 13.0096  24019.6  154.976
 13.0516  23948.2  153.77
 13.0936  24224.1  155.076
 13.1356  24329.9  154.363
 13.1776  24255.9  155.151
 13.2196  23933.4  153.762
 13.2616  23773.3  153.551
 13.3036  23940.4  154.059
 13.3456  23580.9  153.233
 13.3876  24449.2  155.317
 13.4296  23915.3  153.775
 13.4716  24210.7  154.341
 13.5136  24276.3  154.685
 13.5556  24190.7  155.039
 13.5976  24143.7  155.058
 13.6396  24370.2  155.138
 13.6816  24353.6  155.561
 13.7236  24690.3  156.193
 13.7656  26357.5  161.875
 13.8076  27881.9  165.079
 13.8496  26581.4  161.885
 13.8916  24590.3  156.841
 13.9336  23718.2  153.3
 13.9756  23730.5  152.723
 14.0176  23309.3  152.033
 14.0596  24487.1  155.765
 14.1016  23428.4  152.78
 14.1436  23423.6  151.901
 14.1856  22970.8  150.718
 14.2276  23143.4  151.766
 14.2696  23411.3  152.486
 14.3116  22531.4  149.498
 14.3536  22057  148.083
 14.3956  21980.6  147.559
 14.4376  22315.8  148.46
 14.4796  22021.7  147.479
 14.5216  21746.7  147.338
 14.5636  22185.3  148.385
 14.6056  21784.7  146.602
 14.6476  21704.2  145.582
 14.6896  21248.2  144.58
 14.7316  20866.5  144.295
 14.7736  20759.1  143.076
 14.8156  20680.9  142.827
 14.8576  20762.5  142.967
 14.8996  20550  143.426
 14.9416  19889.5  141.118
 14.9836  19820.7  140.852
 15.0256  19437.8  138.406
 15.0676  19288.7  138.18
 15.1096  19154.5  137.441
 15.1516  18785.7  136.659
 15.1936  18762.9  136.015
 15.2356  18890.8  136.751
 15.2776  18544.4  135.089
 15.3196  18390.6  135.504
 15.3616  18227.6  134.665
 15.4036  18263.5  134.663
 15.4456  18559.5  135.4
 15.4876  18244.7  133.935
 15.5296  17878.3  132.867
 15.5716  17700.8  131.814
 15.6136  17779.7  132.431
 15.6556  20224.5  140.442
 15.6976  18099.7  133.155
 15.7396  17671.7  131.951
 15.7816  17623.1  131.288
 15.8236  17071.7  129.894
 15.8656  17247  130.36
 15.9076  17216.3  130.065
 15.9496  18679  138.375
 15.9916  17274.4  133.469
 16.0336  17394.3  130.838
 16.0756  17324.4  130.882
 16.1176  16918.7  129.424
 16.1596  17077.9  131.204
 16.2016  16563.4  127.988
 16.2436  16718.6  128.945
 16.2856  16748.2  128.587
 16.3276  16037.5  126.279
 16.3696  16584.4  128.234
 16.4116  16362.5  127.806
 16.4536  16440.8  127.926
 16.4956  17383.8  131.278
 16.5376  16594.2  128.447
 16.5796  16349.6  126.861
 16.6216  16342.3  127.105
 16.6636  16197  126.717
 16.7056  16262.8  126.838
 16.7476  16309.8  126.559
 16.7896  16487.3  127.986
 16.8316  16167.8  126.719
 16.8736  16615.7  128.726
 16.9156  16423.8  128.307
 16.9576  16081.5  127.751
 16.9996  16183.1  128.624
 17.0416  15882.6  125.827
 17.0836  15940  125.824
 17.1256  15788.8  125.234
 17.1676  16463.5  127.833
 17.2096  16240.9  126.857
 17.2516  16165.9  126.365
 17.2936  15463.9  123.934
 17.3356  15312.2  123.316
 17.3776  15114.3  122.693
 17.4196  15202.4  122.751
 17.4616  15318.1  123.124
 17.5036  15971.4  126.083
 17.5456  14964.4  122.69
 17.5876  15090.8  122.265
 17.6296  15065.2  121.985
 17.6716  15156.6  122.931
 17.7136  16031.6  126.568
 17.7556  15032  122.855
 17.7976  15322.5  123.757
 17.8396  15097.5  122.355
 17.8816  14724.1  121.384
 17.9236  14683  121.02
 17.9656  14718.2  121.674
 18.0076  15506.6  124.467
 18.0496  15952.1  125.355
 18.0916  20085.7  141.299
 18.1336  18016.4  133.923
 18.1756  15773.3  124.845
 18.2176  16003.9  125.977
 18.2596  14726.9  120.571
 18.3016  15359.1  123.398
 18.3436  15896  125.536
 18.3856  14988.1  122.039
 18.4276  14629.5  120.257
 18.4696  14829.8  121.159
 18.5116  14834.9  121.454
 18.5536  14430.7  120.155
 18.5956  14551.3  120.217
 18.6376  14636.7  120.974
 18.6796  14418.6  119.384
 18.7216  14466  120.067
 18.7636  14334.8  119.537
 18.8056  13787.5  117.153
 18.8476  13601.2  116.974
 18.8896  13753.1  116.965
 18.9316  14129.6  118.544
 18.9736  13887.5  117.218
 19.0156  14349.2  119.575
 19.0576  14439.5  118.791
 19.0996  14098.7  118.082
 19.1416  14142.9  118.675
 19.1836  13779.1  116.742
 19.2256  13615.4  116.269
 19.2676  13875.2  117.449
 19.3096  13697.9  116.942
 19.3516  13801.5  117.346
 19.3936  13921.8  117.746
 19.4356  13899.4  117.549
 19.4776  13701.5  116.792
 19.5196  13702.3  116.647
 19.5616  13747  117.097
 19.6036  13683.7  116.322
 19.6456  13914.9  117.417
 19.6876  14345.8  118.845
 19.7296  13938.1  117.621
 19.7716  13745  116.965
 19.8136  14028.1  118.371
 19.8556  14468.3  119.691
 19.8976  14786.7  121.053
 19.9396  14428.5  119.163
 19.9816  14425.5  119.399
 20.0236  14832  121.267
 20.0656  13767.9  116.836
 20.1076  13698.7  117.021
 20.1496  13437.4  115.886
 20.1916  13733.5  116.689
 20.2336  13648.6  116.239
 20.2756  13351.5  115.395
 20.3176  13246.6  114.703
 20.3596  13148  114.249
 20.4016  13250.4  114.5
 20.4436  13094  114.371
 20.4856  13206.8  114.665
 20.5276  13236  115.247
 20.5696  13268.4  114.848
 20.6116  13151.7  114.61
 20.6536  13122.8  114.005
 20.6956  13020.5  113.682
 20.7376  12962.7  113.637
 20.7796  12881.8  112.984
 20.8216  13023.2  113.317
 20.8636  13427.5  115.445
 20.9056  14225.4  118.748
 20.9476  13384.7  115.038
 20.9896  14026.8  117.629
 21.0316  13118  113.646
 21.0736  13341.2  115.136
 21.1156  13650.5  116.62
 21.1576  13195.1  114.71
 21.1996  12851  113.179
 21.2416  12973.8  113.55
 21.2836  13088.1  114.022
 21.3256  12895.6  113.263
 21.3676  12843.2  112.556
 21.4096  13342.9  115.062
 21.4516  12754.3  112.374
 21.4936  12561.6  111.777
 21.5356  12863.8  113.065
 21.5776  12789.2  112.564
 21.6196  12888  113.041
 21.6616  12860.8  113.008
 21.7036  12777.3  112.406
 21.7456  12539  111.436
 21.7876  12403.3  110.592
 21.8296  12442  110.619
 21.8716  12504.6  111.117
 21.9136  12619  111.821
 21.9556  12774.3  112.186
 21.9976  12619.7  111.536
 22.0396  12483.2  111.182
 22.0816  12544.4  111.977
 22.1236  12990.4  113.41
 22.1656  12593.7  111.8
 22.2076  12281.6  109.863
 22.2496  12313  110.033
 22.2916  12377.5  110.206
 22.3336  12453.6  111.262
 22.3756  12385.6  110.681
 22.4176  12216.4  109.778
 22.4596  11998.8  109.372
 22.5016  12225.4  109.91
 22.5436  12432.6  110.711
 22.5856  12452.6  111.047
 22.6276  12585.9  111.772
 22.6696  12128.4  110.076
 22.7116  12131.3  109.606
 22.7536  12294  110.314
 22.7956  12273.3  109.558
 22.8376  11900.3  108.39
 22.8796  12187.7  109.495
 22.9216  12178.6  109.991
 22.9636  12130.1  108.942
 23.0056  12023  108.588
 23.0476  12253.8  110.192
 23.0896  12553.3  110.909
 23.1316  12498.9  111.104
 23.1736  12303.9  113.146
 23.2156  12383.3  110.918
 23.2576  12590.8  111.99
 23.2996  12295.5  110.435
 23.3416  12487.9  111.836
 23.3836  12248.5  109.99
 23.4256  12581.9  111.605
 23.4676  12695.7  111.789
 23.5096  12619.3  112.102
 23.5516  12449  110.658
 23.5936  12409.3  111.389
 23.6356  12721.8  112.441
 23.6776  12379.9  111.13
 23.7196  12233.6  110.059
 23.7616  12415.1  110.784
 23.8036  12470.5  111.094
 23.8456  12254.9  109.669
 23.8876  12288.3  110.189
 23.9296  12089.9  109.77
 23.9716  12150.6  109.263
 24.0136  12353.5  111.074
 24.0556  11917.8  108.82
 24.0976  12030.3  109.148
 24.1396  11996  111.587
 24.1816  12260.5  111.233
 24.2236  12258.5  110.848
 24.2656  12137.1  109.77
 24.3076  12174  110.209
 24.3496  12192.8  110.166
 24.3916  12480.6  111.51
 24.4336  12055.7  109.802
 24.4756  12079.5  109.798
 24.5176  11963.7  108.892
 24.5596  11714  107.878
 24.6016  11794  108.536
 24.6436  11902.4  108.546
 24.6856  11734  107.508
 24.7276  11824.9  108.252
 24.7696  11870.5  108.576
 24.8116  11653.6  107.749
 24.8536  11605.6  107.539
 24.8956  11723.6  107.813
 24.9376  11542.5  106.909
 24.9796  11468.2  106.927
 25.0216  11546  107.406
 25.0636  11453  106.622
 25.1056  11242  106.338
 25.1476  11240.2  107.968
 25.1896  11269.9  106.595
 25.2316  11303.4  106.03
 25.2736  11290.3  105.616
 25.3156  11049.1  104.551
 25.3576  11008.2  104.796
 25.3996  11074.6  105.101
 25.4416  11094.1  105.163
 25.4836  10872.4  104.623
 25.5256  11005.6  104.625
 25.5676  11087.7  104.744
 25.6096  10865.8  104.271
 25.6516  10989.3  104.36
 25.6936  11045.4  104.947
 25.7356  10997.9  104.851
 25.7776  11005.2  104.485
 25.8196  10981.3  104.61
 25.8616  10989.6  104.58
 25.9036  11197.7  105.019
 25.9456  10798.9  103.725
 25.9876  10848.4  104.028
 26.0296  10881  103.695
 26.0716  10864.7  104.05
 26.1136  11181.2  105.486
 26.1556  11135.7  104.639
 26.1976  10880.8  104.372
 26.2396  10792.8  103.101
 26.2816  10773.3  103.617
 26.3236  10980  104.765
 26.3656  11048.5  104.811
 26.4076  10673.6  103.215
 26.4496  10934.5  104.055
 26.4916  11058.4  104.541
 26.5336  11435.5  106.657
 26.5756  11719  107.854
 26.6176  11155.6  105.249
 26.6596  11000.2  104.826
 26.7016  10716.2  103.23
 26.7436  10716  103.36
 26.7856  10414.1  101.877
 26.8276  10493.2  102.233
 26.8696  10462  101.946
 26.9116  10513.3  102.138
 26.9536  10429.8  101.782
 26.9956  10369.2  101.517
 27.0376  10394.2  101.864
 27.0796  10531.4  102.259
 27.1216  10672.7  102.986
 27.1636  10429.6  101.983
 27.2056  10430.7  101.88
 27.2476  10432.5  101.874
 27.2896  10258.4  101.143
 27.3316  10297.6  101.052
 27.3736  10130.1  100.496
 27.4156  10276.4  101.067
 27.4576  10436.4  102.065
 27.4996  10375.5  101.379
 27.5416  10372.4  101.662
 27.5836  10226.3  100.785
 27.6256  10207.5  100.876
 27.6676  10246.8  101.05
 27.7096  10266.4  101.033
 27.7516  10804.3  103.793
 27.7936  10973.1  104.772
 27.8356  10731.3  103.185
 27.8776  10646.1  102.854
 27.9196  10354.5  101.289
 27.9616  10590.4  102.641
 28.0036  10267.1  101.021
 28.0456  10067.5  100.178
 28.0876  10021.6  100.038
 28.1296  10079.5  100.154
 28.1716  10161.2  100.579
 28.2136  10108.9  100.288
 28.2556  10093.7  100.332
 28.2976  9932.51  99.5186
 28.3396  10066.4  99.9403
 28.3816  10090  100.069
 28.4236  10046.3  100.007
 28.4656  9855.75  99.0949
 28.5076  9761.4  98.2529
 28.5496  9872.2  99.0765
 28.5916  9862.58  98.8354
 28.6336  9869.87  99.2236
 28.6756  9841.26  98.2758
 28.7176  9871.57  98.9784
 28.7596  9703.41  98.0226
 28.8016  9763.44  98.3626
 28.8436  9668.84  98.1257
 28.8856  9761.38  98.4461
 28.9276  9898.21  99.3801
 28.9696  9688.44  97.9817
 29.0116  9582.21  97.6223
 29.0536  9532.9  97.5821
 29.0956  9810.63  98.6885
 29.1376  9577.54  97.4819
 29.1796  9690.11  98.1064
 29.2216  9609.15  97.5317
 29.2636  9683.72  97.9908
 29.3056  9681.98  97.7631
 29.3476  9640.89  98.0756
 29.3896  9565.96  97.81
 29.4316  9439.19  96.4907
 29.4736  9360.18  96.1467
 29.5156  9375.27  96.148
 29.5576  9520.14  97.6246
 29.5996  9345.09  95.9923
 29.6416  9441.48  96.595
 29.6836  9394.8  96.2935
 29.7256  9343.52  96.5871
 29.7676  9492.98  97.0173
 29.8096  9438.87  96.6859
 29.8516  9136.19  95.449
 29.8936  9299.05  96.3872
 29.9356  9357.94  96.4484
 29.9776  9316.4  96.3851
 30.0196  9428.69  96.3573
 30.0616  9368.99  96.4212
 30.1036  9360.52  96.2049
 30.1456  9195.08  95.5764
 30.1876  9250.1  95.8482
 30.2296  9210.92  95.591
 30.2716  9272.96  95.5488
 30.3136  9285.34  96.4668
 30.3556  9474.03  97.455
 30.3976  9458.57  98.873
 30.4396  9752.58  97.7367
 30.4816  9548.93  96.307
 30.5236  9709.25  97.1154
 30.5656  9436.22  96.3954
 30.6076  9426.66  95.7523
 30.6496  9472.28  96.398
 30.6916  9275.48  95.4825
 30.7336  9376.16  96.1449
 30.7756  9497.85  96.8434
 30.8176  9335.24  95.9305
 30.8596  9478.14  96.43
 30.9016  9428.15  96.5268
 30.9436  9353.19  95.885
 30.9856  9661.94  97.5728
 31.0276  9263.68  95.1802
 31.0696  9331.05  96.0754
 31.1116  9305.57  95.923
 31.1536  9335.93  95.9468
 31.1956  9293.4  95.8344
 31.2376  9159.44  95.1482
 31.2796  9248.86  95.1548
 31.3216  9324.24  95.4651
 31.3636  9268.17  95.88
 31.4056  9302.33  97.3764
 31.4476  9324.33  95.3958
 31.4896  9348.67  96.0159
 31.5316  9432.94  95.8495
 31.5736  10064.5  98.8345
 31.6156  9750.42  97.287
 31.6576  9627.95  96.7491
 31.6996  9524.44  95.8991
 31.7416  9350.62  96.1108
 31.7836  9445.09  95.5824
 31.8256  9446.5  95.8527
 31.8676  9401.64  95.6233
 31.9096  9220.98  95.0697
 31.9516  9165.13  94.9535
 31.9936  9090.69  94.3787
 32.0356  9207.62  95.0467
 32.0776  9240.72  95.0953
 32.1196  9303.69  95.538
 32.1616  9326.99  95.0929
 32.2036  9111.57  94.5127
 32.2456  9179.8  95.2451
 32.2876  9158.56  94.6283
 32.3296  9296.65  95.2917
 32.3716  8988.63  93.8091
 32.4136  8982.35  93.9807
 32.4556  9048.84  93.7162
 32.4976  9077.86  93.7806
 32.5396  9037.98  93.6428
 32.5816  8875.19  92.9221
 32.6236  8910.74  93.1555
 32.6656  9142.51  94.9143
 32.7076  8931.73  93.4717
 32.7496  8937.65  93.1696
 32.7916  8910.98  92.9948
 32.8336  8889.97  92.9752
 32.8756  9019.74  93.375
 32.9176  8922.05  93.3503
 32.9596  8931.24  93.4722
 33.0016  8997.33  93.5977
 33.0436  8784.83  92.6565
 33.0856  8800.92  92.8293
 33.1276  8805.34  92.5835
 33.1696  8861.08  92.703
 33.2116  8841.3  92.836
 33.2536  8984.14  93.5692
 33.2956  8772.52  92.5503
 33.3376  8782.06  92.3414
 33.3796  8812.47  92.7238
 33.4216  8744.79  91.955
 33.4636  8867.66  92.7589
 33.5056  8560.9  91.3802
 33.5476  8835.16  92.8169
 33.5896  8811.3  92.4788
 33.6316  8749.37  92.4636
 33.6736  8570.63  91.7536
 33.7156  8745.39  92.7143
 33.7576  8722.7  92.2418
 33.7996  8802.18  92.4148
 33.8416  8709.26  92.1193
 33.8836  8663.3  91.6511
 33.9256  8724.78  92.0356
 33.9676  8763.4  92.1339
 34.0096  8707.82  92.1577
 34.0516  8489.71  90.6372
 34.0936  8545.93  91.2039
 34.1356  8683.96  91.6755
 34.1776  8484.74  90.6173
 34.2196  8396.21  90.3282
 34.2616  8504.56  91.038
 34.3036  8612.61  91.8689
 34.3456  8508.62  91.0426
 34.3876  8693.43  92.0272
 34.4296  8587.84  91.1485
 34.4716  8751.15  92.1631
 34.5136  8720.38  92.1907
 34.5556  8440.28  90.9477
 34.5976  8684.9  92.0772
 34.6396  8533.19  90.9834
 34.6816  8696.29  91.9559
 34.7236  8538.44  90.8875
 34.7656  8620.97  91.5409
 34.8076  8473.21  91.0847
 34.8496  8423.97  90.665
 34.8916  8617.35  91.5679
 34.9336  8568.8  91.2855
 34.9756  8578.48  91.2553
 35.0176  8450.05  91.0995
 35.0596  8613.98  91.8046
 35.1016  8505.61  90.969
 35.1436  8623.3  91.2886
 35.1856  8432.51  90.3917
 35.2276  8461.15  90.721
 35.2696  8608.13  91.6935
 35.3116  8493.31  91.19
 35.3536  8512.3  90.9993
 35.3956  8459.07  90.4237
 35.4376  8421.13  90.7897
 35.4796  8571.98  91.6406
 35.5216  8521.74  91.3315
 35.5636  8172.83  90.173
 35.6056  8387.47  90.37
 35.6476  8396.22  90.3247
 35.6896  8474.7  90.8309
 35.7316  8394.32  90.3793
 35.7736  8314.61  90.1341
 35.8156  8429.78  90.7568
 35.8576  8392.72  90.8173
 35.8996  8413.79  90.8951
 35.9416  8434.48  90.5032
 35.9836  8447.4  90.9149
 36.0256  8481.99  91.118
 36.0676  8541.6  91.1871
 36.1096  8393.03  90.5277
 36.1516  8543.96  91.2445
 36.1936  8507.78  90.8908
 36.2356  8420.26  91.0763
 36.2776  8368.12  90.2719
 36.3196  8407.29  90.15
 36.3616  8347.54  89.9572
 36.4036  8271.78  89.618
 36.4456  8344.8  90.2232
 36.4876  8171.73  89.2154
 36.5296  8334.1  90.1408
 36.5716  8309.17  90.7831
 36.6136  8259.82  89.2849
 36.6556  8363.09  90.0452
 36.6976  8119.36  89.219
 36.7396  8093.6  88.8007
 36.7816  8045.72  88.9181
 36.8236  8167.6  89.5105
 36.8656  8065.1  89.0138
 36.9076  8111.25  89.1515
 36.9496  7994.98  88.4996
 36.9916  8149.69  88.981
 37.0336  8065.07  88.8312
 37.0756  8125.28  88.9534
 37.1176  7970.39  88.3688
 37.1596  7937.34  88.1937
 37.2016  7907.04  88.2448
 37.2436  8171.01  89.0227
 37.2856  8046.21  88.5889
 37.3276  7978.2  87.5801
 37.3696  7951.29  88.3021
 37.4116  7978.18  88.3604
 37.4536  8058.66  88.6746
 37.4956  7880.44  87.7312
 37.5376  8100.81  90.5428
 37.5796  8059.99  90.2408
 37.6216  7999.95  88.1875
 37.6636  8156.63  88.9404
 37.7056  8114.99  88.8938
 37.7476  8168.39  88.7364
 37.7896  7907.05  87.7978
 37.8316  7992.02  88.4228
 37.8736  8158.14  88.8602
 37.9156  8097.6  88.5248
 37.9576  8104.64  88.482
 37.9996  7942.57  87.3058
 38.0416  7971.03  88.2692
 38.0836  8120.75  88.9871
 38.1256  8068.99  88.6824
 38.1676  7954.54  88.165
 38.2096  8276.86  89.5569
 38.2516  8034.12  88.4377
 38.2936  8110.41  88.6609
 38.3356  7978.9  87.865
 38.3776  7878.89  87.567
 38.4196  8001.79  88.0981
 38.4616  7914.66  87.8644
 38.5036  8100.36  88.7283
 38.5456  7832.84  88.0639
 38.5876  7956.85  88.7861
 38.6296  7973.17  87.8619
 38.6716  8015.74  87.894
 38.7136  7865.89  87.0154
 38.7556  7965.87  88.0761
 38.7976  7998.75  88.1731
 38.8396  7814.21  87.6149
 38.8816  7739.81  86.9943
 38.9236  8045.07  88.4909
 38.9656  8020.34  88.2537
 39.0076  7954.61  87.3074
 39.0496  7972.7  87.9608
 39.0916  7889.46  87.1416
 39.1336  7950.26  87.8881
 39.1756  7892.48  87.6245
 39.2176  7868.03  88.0266
 39.2596  7943.21  88.3674
 39.3016  7875.43  87.5806
 39.3436  7792.42  87.5205
 39.3856  7953.88  87.8628
 39.4276  8002.45  88.6522
 39.4696  7871.33  87.5404
 39.5116  8040.89  89.0008
 39.5536  8051.04  89.4613
 39.5956  7896.02  87.7101
 39.6376  7947.06  87.998
 39.6796  7832.67  87.1079
 39.7216  7898.81  87.5696
 39.7636  7888.78  88.0696
 39.8056  7972.53  88.3341
 39.8476  7788.26  87.5561
 39.8896  8036  88.5716
 39.9316  7864.45  87.8568
 39.9736  7895.25  87.611
 40.0156  7815.12  86.9978
 40.0576  7955.15  88.118
 40.0996  7928.95  87.1689
 40.1416  7996.72  88.3328
 40.1836  7986.78  88.1672
 40.2256  7957.56  88.0479
 40.2676  7955.6  88.1327
 40.3096  7888.36  87.6928
 40.3516  7959.79  88.2
 40.3936  8106.36  88.5619
 40.4356  7866.19  87.4423
 40.4776  7910.79  88.0917
 40.5196  7970.9  88.5578
 40.5616  8075.76  88.7771
 40.6036  7916.45  88.1516
 40.6456  7913.67  87.7429
 40.6876  8008.6  88.2641
 40.7296  7887.2  87.7128
 40.7716  8020.9  88.5865
 40.8136  7797.99  87.2925
 40.8556  7940.1  88.2194
 40.8976  7972.13  88.3189
 40.9396  7959.85  88.5986
 40.9816  7848.11  87.2702
 41.0236  7960.26  87.6684
 41.0656  7993.71  88.3893
 41.1076  7959.01  87.9737
 41.1496  7973.41  87.9524
 41.1916  7923.16  87.9913
 41.2336  7941.54  88.105
 41.2756  7890.05  87.4211
 41.3176  7961.59  88.4331
 41.3596  7839.15  87.4846
 41.4016  7770.56  87.3471
 41.4436  7975.68  88.2859
 41.4856  7847.08  87.7308
 41.5276  7884.18  87.9597
 41.5696  7838.87  87.3397
 41.6116  7927.11  88.2159
 41.6536  7965.82  88.2844
 41.6956  8017.95  88.6387
 41.7376  7862.91  87.8011
 41.7796  7763.04  87.1313
 41.8216  8016.97  88.7788
 41.8636  7805.88  87.541
 41.9056  7937.83  88.0701
 41.9476  7850.97  87.8252
 41.9896  8026.3  88.4607
 42.0316  7893.84  87.8116
 42.0736  8051.46  88.793
 42.1156  7868.73  87.6056
 42.1576  7917.24  87.9824
 42.1996  7937.3  88.2333
 42.2416  7863.88  87.4031
 42.2836  7980.41  88.1757
 42.3256  7889.15  87.7792
 42.3676  7952.61  87.9271
 42.4096  7935.89  87.8084
 42.4516  7918.46  87.785
 42.4936  7744.41  86.8891
 42.5356  7776.55  87.2105
 42.5776  8025.71  88.5369
 42.6196  7754.25  87.0786
 42.6616  7690.76  86.8939
 42.7036  7873.2  87.2985
 42.7456  7881.05  87.6992
 42.7876  7785.1  87.2485
 42.8296  7893.97  87.7003
 42.8716  7765.39  87.1471
 42.9136  7784.61  87.0397
 42.9556  7776.62  87.1289
 42.9976  7821.31  87.3447
 43.0396  7793.95  86.9214
 43.0816  7712.98  86.8507
 43.1236  7720.93  86.9512
 43.1656  7786.13  87.1443
 43.2076  7823.29  87.4611
 43.2496  7759.39  86.9202
 43.2916  7773.49  87.3535
 43.3336  7871.85  87.7371
 43.3756  7829.03  87.2614
 43.4176  7627.01  86.2081
 43.4596  7762.91  86.8201
 43.5016  7756.27  87.1952
 43.5436  7717.92  86.8868
 43.5856  7693.95  86.7723
 43.6276  7713.1  86.7703
 43.6696  7604.6  86.412
 43.7116  7720.76  86.573
 43.7536  7752.42  87.253
 43.7956  7548.5  87.2965
 43.8376  7486.56  85.4666
 43.8796  7591.53  86.144
 43.9216  7511.78  85.611
 43.9636  7659.91  86.5592
 44.0056  7514.83  85.9623
 44.0476  7461.79  85.2915
 44.0896  7535.75  86.056
 44.1316  7521.66  85.5028
 44.1736  7592.68  86.0336
 44.2156  7493.33  85.3227
 44.2576  7624.88  86.3874
 44.2996  7571.45  86.06
 44.3416  7560.32  85.7541
 44.3836  7331.58  84.7711
 44.4256  7395.47  84.778
 44.4676  7454.16  85.2819
 44.5096  7346.21  84.8027
 44.5516  7506.05  85.6896
 44.5936  7433.34  85.2211
 44.6356  7612.98  85.9834
 44.6776  7482.35  85.5608
 44.7196  7386.03  85.3026
 44.7616  7559.32  87.64
 44.8036  7590.45  86.2438
 44.8456  7498.05  85.9232
 44.8876  7568.57  86.1662
 44.9296  7555.21  85.5411
 44.9716  7635.09  86.4234
 45.0136  7660.97  86.5037
 45.0556  7650.71  86.4314
 45.0976  7584.1  86.2051
 45.1396  7443.61  85.1626
 45.1816  7469.54  85.2554
 45.2236  7541.93  85.5707
 45.2656  7494.68  85.7923
 45.3076  7557.7  85.9336
 45.3496  7552.31  86.2208
 45.3916  7524.66  86.3326
 45.4336  7630.67  86.7802
 45.4756  7533.99  86.0607
 45.5176  7622.04  86.2011
 45.5596  7627.81  86.3389
 45.6016  7494.59  86.0175
 45.6436  7487.05  85.1501
 45.6856  7441.87  85.5505
 45.7276  7462.55  86.9809
 45.7696  7497.24  86.855
 45.8116  7433.94  85.9187
 45.8536  7473.13  86.0533
 45.8956  7544.84  85.8094
 45.9376  7562.52  85.3726
 45.9796  7471.18  85.538
 46.0216  7523.58  86.1867
 46.0636  7530.95  85.3573
 46.1056  7588.81  85.6816
 46.1476  7567.95  86.1566
 46.1896  7522.6  86.048
 46.2316  7397.55  85.1958
 46.2736  7445.54  85.8527
 46.3156  7439  85.3932
 46.3576  7497.85  85.9396
 46.3996  7422.27  85.6653
 46.4416  7468.52  85.5075
 46.4836  7312.81  84.9616
 46.5256  7583.29  86.4552
 46.5676  7576.41  86.5309
 46.6096  7507.84  86.0713
 46.6516  7404.58  84.5286
 46.6936  7619.38  86.2455
 46.7356  7720.93  86.9143
 46.7776  7436.61  86.1506
 46.8196  7418.67  85.6413
 46.8616  7321.59  85.0176
 46.9036  7338.48  84.7721
 46.9456  7376.49  84.6358
 46.9876  7431.59  85.0311
 47.0296  7354.29  85.2842
 47.0716  7304.3  84.8171
 47.1136  7373.86  84.899
 47.1556  7444.15  85.1694
 47.1976  7509.64  85.6293
 47.2396  7420.91  85.5165
 47.2816  7306.13  84.5516
 47.3236  7334.66  85.0935
 47.3656  7412.08  85.4687
 47.4076  7353.04  84.9255
 47.4496  7308.98  84.7602
 47.4916  7325.76  85.0606
 47.5336  7390.97  85.2468
 47.5756  7531.48  86.1741
 47.6176  7171.24  83.9849
 47.6596  7373.04  84.8642
 47.7016  7470.57  85.2431
 47.7436  7433.57  85.3747
 47.7856  7415.71  85.2961
 47.8276  7365.08  85.0597
 47.8696  7374.87  85.2021
 47.9116  7512.4  85.6995
 47.9536  7374.9  84.8485
 47.9956  7304.83  85.1618
 48.0376  7294.84  84.874
 48.0796  7337.68  85.2557
 48.1216  7270.77  84.6803
 48.1636  7395.07  84.9723
 48.2056  7331.2  84.8711
 48.2476  7455.37  85.8983
 48.2896  7492.34  86.0197
 48.3316  7422.42  85.55
 48.3736  7449.8  85.7367
 48.4156  7309.62  84.7721
 48.4576  7321.85  85.148
 48.4996  7436.07  85.2528
 48.5416  7496.23  85.938
 48.5836  7298.83  84.4666
 48.6256  7304.02  84.7065
 48.6676  7405.34  85.8138
 48.7096  7492.69  85.5689
 48.7516  7384.6  85.0988
 48.7936  7158.07  83.8436
 48.8356  7436.83  85.5178
 48.8776  7341.91  85.5514
 48.9196  7552.47  86.1244
 48.9616  7450.14  85.9202
 49.0036  7396.41  85.9743
 49.0456  7258.78  85.1402
 49.0876  7424.6  85.6344
 49.1296  7209.33  84.548
 49.1716  7215.15  84.4554
 49.2136  7439.88  85.681
 49.2556  7396.53  85.4652
 49.2976  7425.5  85.7056
 49.3396  7185.73  84.3641
 49.3816  7365.71  84.8353
 49.4236  7286.46  84.8074
 49.4656  7225.99  84.469
 49.5076  7422.7  85.3616
 49.5496  7211.21  84.1955
 49.5916  7321.56  84.7609
 49.6336  7313.93  84.9143
 49.6756  7279.11  84.9539
 49.7176  7291.26  84.9654
 49.7596  7266.31  84.5833
 49.8016  7386.13  85.1905
 49.8436  7182.31  84.3088
 49.8856  7191.7  84.3595
 49.9276  7207.98  84.5676
 49.9696  7282.44  84.9807
 50.0116  7242.27  84.8762
 50.0536  7240.53  84.8178
 50.0956  7212.86  84.7337
 50.1376  7277.62  84.8098
 50.1796  7202.27  84.6371
 50.2216  7184.42  84.5295
 50.2636  7275.62  84.6615
 50.3056  7208.36  84.4558
 50.3476  7268.87  84.83
 50.3896  7166.73  84.2029
 50.4316  7306.97  84.8557
 50.4736  7151.53  84.1655
 50.5156  7235.69  84.6476
 50.5576  7248.3  84.4865
 50.5996  7197.99  84.4772
 50.6416  7250.82  84.7068
 50.6836  7290.05  85.0066
 50.7256  7302.13  84.9931
 50.7676  7304.15  85.3387
 50.8096  7174.86  84.1016
 50.8516  7215.01  84.7572
 50.8936  7164.99  84.2442
 50.9356  7280.66  85.0314
 50.9776  7193.03  84.6808
 51.0196  7017.8  83.7612
 51.0616  7051.82  83.2816
 51.1036  7187  84.4419
 51.1456  7114.46  83.9255
 51.1876  7157.92  83.5074
 51.2296  7026.04  83.3645
 51.2716  6890.79  82.2746
 51.3136  7018.03  83.4982
 51.3556  6995.09  82.9788
 51.3976  7073.96  83.6001
 51.4396  6917.42  82.9816
 51.4816  7007.73  83.3723
 51.5236  7011.61  83.4846
 51.5656  6855.62  82.1435
 51.6076  6976.85  82.9519
 51.6496  6971.77  83.1158
 51.6916  6965.79  83.444
 51.7336  6920.71  83.2664
 51.7756  6968.82  83.2453
 51.8176  6887.81  82.8724
 51.8596  7020.01  83.6779
 51.9016  7070.26  83.5747
 51.9436  7070.27  85.1039
 51.9856  7061.87  85.4783
 52.0276  7167.84  84.5671
 52.0696  7178.5  84.7005
 52.1116  6898.12  83.1486
 52.1536  7112.64  84.3139
 52.1956  6964.02  82.8843
 52.2376  7239.66  84.684
 52.2796  7105.84  83.7157
 52.3216  6859.6  82.9413
 52.3636  6960.19  83.1137
 52.4056  6980.47  83.0929
 52.4476  6981.33  83.4584
 52.4896  6896.51  82.996
 52.5316  7126.54  84.4418
 52.5736  6874.71  82.6389
 52.6156  7042.92  84.0576
 52.6576  6973.48  83.0598
 52.6996  6861.95  83.3956
 52.7416  6862.93  83.2464
 52.7836  6847.93  83.0525
 52.8256  6974.78  83.0134
 52.8676  6808.48  82.6048
 52.9096  6963.3  83.6088
 52.9516  6915.21  83.7182
 52.9936  6975.26  84.4503
 53.0356  6940.11  83.2279
 53.0776  6930.45  83.448
 53.1196  6835.3  82.9931
 53.1616  6926.06  83.5987
 53.2036  6816.36  82.8938
 53.2456  6854.14  83.2299
 53.2876  6900.07  83.1973
 53.3296  6958.16  83.8792
 53.3716  6992.27  83.8242
 53.4136  6889.8  83.3645
 53.4556  6930.05  83.6386
 53.4976  6943.87  83.5503
 53.5396  6835.15  83.2953
 53.5816  6891.5  83.2754
 53.6236  6880.61  83.5646
 53.6656  7004.59  83.9069
 53.7076  6988.84  83.7682
 53.7496  7027.52  84.138
 53.7916  6847.1  83.1925
 53.8336  6887.81  83.3288
 53.8756  6786.3  83.2727
 53.9176  6806.31  82.7138
 53.9596  6644.36  82.4897
 54.0016  6595.71  81.5133
 54.0436  6519.2  81.2649
 54.0856  6730.16  81.9763
 54.1276  6620.81  81.523
 54.1696  6647.47  81.8448
 54.2116  6647.69  81.6057
 54.2536  6639.25  81.3628
 54.2956  6680.34  81.656
 54.3376  6640.35  81.9099
 54.3796  6612.13  81.6347
 54.4216  6611.68  81.6868
 54.4636  6653.44  81.8986
 54.5056  6656.86  81.7362
 54.5476  6610.57  81.787
 54.5896  6606.27  81.6119
 54.6316  6630.75  81.5916
 54.6736  6564.35  81.2632
 54.7156  6586.46  81.4362
 54.7576  6586.87  81.4166
 54.7996  6635.4  81.8633
 54.8416  6594.54  81.6671
 54.8836  6603.49  81.8056
 54.9256  6474.7  80.7764
 54.9676  6447.91  80.4759
 55.0096  6583.82  81.3429
 55.0516  6434.19  80.6617
 55.0936  6540.32  80.9899
 55.1356  6493.47  80.7301
 55.1776  6685.98  82.1618
 55.2196  6418.2  80.284
 55.2616  6687.77  82.1941
 55.3036  6384.78  80.4666
 55.3456  6360.94  80.4543
 55.3876  6370.68  80.2618
 55.4296  6345.22  80.0818
 55.4716  6463.51  80.8558
 55.5136  6433.56  80.4326
 55.5556  6597.68  81.5107
 55.5976  6400.68  80.3609
 55.6396  6569.74  81.372
 55.6816  6376.93  80.0189
 55.7236  6374.76  80.0669
 55.7656  6458.39  80.299
 55.8076  6457.87  80.3086
 55.8496  6383.61  80.1628
 55.8916  6304.23  79.8761
 55.9336  6570.86  81.3749
 55.9756  6427.4  80.3449
 56.0176  6355.19  80.0396
 56.0596  6412.43  80.4131
 56.1016  6316.86  79.8201
 56.1436  6254.25  79.6743
 56.1856  6268.06  79.5159
 56.2276  6527.06  81.1931
 56.2696  6347.22  80.0466
 56.3116  6441.82  81.0265
 56.3536  6351.76  80.1156
 56.3956  6379.62  80.2642
 56.4376  6344.38  80.0892
 56.4796  6224.07  79.154
 56.5216  6388.62  80.5827
 56.5636  6274.3  79.4034
 56.6056  6447.21  80.7365
 56.6476  6337.23  79.6561
 56.6896  6512.02  81.226
 56.7316  6372.26  80.2269
 56.7736  6321.39  79.9479
 56.8156  6311.64  79.8877
 56.8576  6153.93  78.8214
 56.8996  6293.36  79.6214
 56.9416  6216.16  79.4492
 56.9836  6360.63  79.8923
 57.0256  6205.42  79.2137
 57.0676  6395.1  80.5183
 57.1096  6287.1  79.6359
 57.1516  6271.25  79.5868
 57.1936  6217.58  78.9909
 57.2356  6150.4  78.9018
 57.2776  6295.55  79.8011
 57.3196  6228.89  79.7051
 57.3616  6282.43  79.539
 57.4036  6292.91  79.6748
 57.4456  6303.53  79.7244
 57.4876  6348.52  79.8704
 57.5296  6221.88  79.4034
 57.5716  6162.18  79.0314
 57.6136  6138.12  78.7041
 57.6556  6243.13  79.5077
 57.6976  6280.77  79.5689
 57.7396  6075.38  78.5955
 57.7816  6119.99  79.2696
 57.8236  6243.92  79.8532
 57.8656  6136.09  78.8301
 57.9076  6170.39  79.0505
 57.9496  6135.18  79.1936
 57.9916  6244.92  79.4031
 58.0336  6122.29  78.9156
 58.0756  6171.09  78.858
 58.1176  6208.49  79.0905
 58.1596  6045.66  78.6293
 58.2016  6065.77  77.9725
 58.2436  6073.3  78.4303
 58.2856  5959.02  77.6114
 58.3276  5917.23  77.7064
 58.3696  5930.81  77.55
 58.4116  5994.76  77.8323
 58.4536  5966.31  77.5349
 58.4956  5843.38  76.9087
 58.5376  5957.42  77.2293
 58.5796  5860.18  77.014
 58.6216  5911.99  77.1733
 58.6636  5934.24  77.5264
 58.7056  5884.84  77.0639
 58.7476  5809.05  77.0019
 58.7896  5875.11  77.0868
 58.8316  5974.31  77.7305
 58.8736  6043.33  78.19
 58.9156  5910.56  77.3689
 58.9576  5884.28  77.5138
 58.9996  6006.98  77.5708
 59.0416  5958.97  77.6186
 59.0836  5996.65  77.7711
 59.1256  5871.68  77.6589
 59.1676  5828.88  77.6794
 59.2096  5800.35  76.8082
 59.2516  6016.79  77.8101
 59.2936  5876.85  77.2235
 59.3356  5809.29  76.6585
 59.3776  5901.32  77.4303
 59.4196  5773.37  76.5241
 59.4616  5969.76  77.6751
 59.5036  5817.66  76.7137
 59.5456  5981.55  77.4819
 59.5876  5987.98  77.7137
 59.6296  5770.64  76.358
 59.6716  5769.99  76.4104
 59.7136  5867.55  77.0421
 59.7556  5892.41  77.3399
 59.7976  5785.72  76.3842
 59.8396  5843.17  76.6585
 59.8816  5892.96  77.5233
 59.9236  5921.73  77.3593
 59.9656  5816.56  76.9252
 60.0076  5943.1  77.1199
 60.0496  5856.54  77.0521
 60.0916  5992.07  77.3593
 60.1336  5765.47  76.9642
 60.1756  5930.2  79.2293
 60.1996  0.0000000E+00  0.0000000E+00