File: docs/examples/opeando_xrd/IS17_D/Data/IS17_D/17_Da_f00078.xye
# /beamlines/bl04/projects/cycle2025-II/20250340211-lsimonelli/DATA/IS17_D/17_Da_f00078.xye : mythproc.py merge -s 0.006 -l 0.5 -f /beamlines/bl04/inhouse/ff/FlatField/ff_20Nov2024rod8mm60s_17keV.raw -b True -c true -o xye /beamlines/bl04/projects/cycle2025-II/20250340211-lsimonelli/DATA/IS17_D/17_Da_00078.dat
# IsMon = [6792928, 6791317, 6798856]  IsPos = [-1.5000, -2.4884, -3.4988]
# Wave = 0.4962  CalPath /beamlines/bl04/projects/cycle2025-II/20250340211-lsimonelli/DATA/Align/Si_Pos1_25keV_f00001.cal
# Date = 2025-09-24_15:17:59 Dt = 4.8000  Bin = 0.0060  <imon> = 6794367 +/- 3242 (Min/Max) 6791317 / 6798856
# icurr 253.0390  mocoIn 1.7257E-05  mocoOut 0.8099  i15 7.11095e+06  imon 6.79437e+06  i7 5.3333  iEMpd_timer 4.8000  iEMpd_1 3.3743E-08  iEMpd_2 7.7654E-08  iEMpd_3 1.5757E-08  iEMpd_4 4.5641E-08  iEMhp_timer 4.8000  iEMhp_1 4.9421E-06  iEMhp_2 -2.5330E-08  iEMhp_3 -2.4224E-08  iEMhp_4 -2.0452E-08
#      9776
 1.5856  39572.9  204.291
 1.6276  46407.2  217.433
 1.6696  53171.6  231.92
 1.7116  61626.4  250.167
 1.7536  71359.3  268.051
 1.7956  76426  278.097
 1.8376  72578  271.435
 1.8796  60540.3  246.091
 1.9216  48484.6  221.099
 1.9636  41450.5  204.109
 2.0056  36760.7  190.988
 2.0476  34022.4  185.751
 2.0896  32969.7  181.783
 2.1316  31821.6  177.731
 2.1736  30465.6  175.283
 2.2156  31088.6  175.645
 2.2576  29594.1  171.987
 2.2996  28686.1  169.948
 2.3416  28977.2  169.441
 2.3836  28340.2  167.675
 2.4256  27395.9  165.395
 2.4676  27407.5  165.196
 2.5096  27505  165.543
 2.5516  32486.5  184.103
 2.5936  134095  366.447
 2.6356  28881.3  170.788
 2.6776  26249.2  161.709
 2.7196  25346  159.416
 2.7616  25238.1  158.854
 2.8036  24764.5  157.526
 2.8456  24781.4  158.185
 2.8876  24219.3  156.267
 2.9296  23865.5  155.24
 2.9716  23509.3  153.582
 3.0136  23525.9  153.699
 3.0556  23459.6  153.872
 3.0976  23541.6  153.092
 3.1396  23352.2  153.175
 3.1816  23012.4  151.999
 3.2236  22655.9  150.814
 3.2656  23041.4  151.146
 3.3076  22584.3  151.06
 3.3496  23059.2  151.598
 3.3916  23279.8  152.146
 3.4336  23736.3  154.2
 3.4756  23944.2  154.79
 3.5176  25069.2  158.188
 3.5596  24785.5  160.213
 3.6016  24980.5  157.944
 3.6436  24376.7  157.121
 3.6856  23738.4  153.372
 3.7276  22932.5  151.821
 3.7696  22728.6  151.122
 3.8116  22343.6  149.931
 3.8536  22387.6  150.002
 3.8956  22422.7  149.956
 3.9376  23088.5  152.421
 3.9796  22046.7  148.46
 4.0216  22431.7  148.805
 4.0636  22420.6  150.217
 4.1056  22406.9  149.823
 4.1476  22521.6  150.517
 4.1896  22574.6  150.551
 4.2316  22936.9  151.578
 4.2736  23449.6  153.058
 4.3156  23625.3  153.846
 4.3576  24320.5  156.035
 4.3996  24647.8  157.344
 4.4416  25174.8  158.594
 4.4836  26861.6  163.987
 4.5256  26247.2  162.701
 4.5676  25997.7  162.176
 4.6096  26407.7  162.48
 4.6516  27063.8  163.831
 4.6936  27095.3  164.724
 4.7356  28230.9  167.979
 4.7776  27516.7  165.67
 4.8196  26981  164.695
 4.8616  26571.1  162.936
 4.9036  26218.2  161.59
 4.9456  26403.7  162.807
 4.9876  26090.9  161.741
 5.0296  25892.5  160.934
 5.0716  25647.9  160.938
 5.1136  25724.4  160.896
 5.1556  26236.9  161.964
 5.1976  34277.4  185.114
 5.2396  26774.9  163.309
 5.2816  26773.9  163.769
 5.3236  26479.4  162.571
 5.3656  26210.1  162.653
 5.4076  25986  162.107
 5.4496  26099.9  161.95
 5.4916  26153.7  161.877
 5.5336  26233.6  162.13
 5.5756  25987.7  161.399
 5.6176  26206.9  161.521
 5.6596  26629.5  163.636
 5.7016  26645.8  163.106
 5.7436  26878.2  164.088
 5.7856  26665.2  163.496
 5.8276  27157.5  164.72
 5.8696  27278.7  165.152
 5.9116  27191  165.594
 5.9536  27312.5  165.718
 5.9956  27688.8  166.222
 6.0376  27655.5  166.754
 6.0796  27961.8  167.508
 6.1216  27980  167.761
 6.1636  28197.6  167.483
 6.2056  28287.4  168.411
 6.2476  28457.5  168.613
 6.2896  28720.5  169.252
 6.3316  28428.3  168.565
 6.3736  28594.6  168.948
 6.4156  28862.5  169.69
 6.4576  28865.8  169.252
 6.4996  29079.8  170.355
 6.5416  29186.5  170.804
 6.5836  29397.6  171.651
 6.6256  29142.7  170.47
 6.6676  29695.1  171.649
 6.7096  29667.5  172.421
 6.7516  30116.4  173.374
 6.7936  31130.9  175.676
 6.8356  31693.7  177.351
 6.8776  31226.5  176.845
 6.9196  30653.2  175.614
 6.9616  30968.3  175.972
 7.0036  31352  176.702
 7.0456  31412.1  176.173
 7.0876  31485.3  177.982
 7.1296  31379.5  176.903
 7.1716  31559  176.936
 7.2136  31089.7  175.41
 7.2556  31299.8  176.16
 7.2976  31494.8  177.203
 7.3396  31226.5  176.668
 7.3816  31416.1  177.411
 7.4236  31874.7  177.991
 7.4656  31673.6  176.919
 7.5076  32403.3  179.077
 7.5496  32076.3  178.695
 7.5916  31840.5  178.081
 7.6336  32906  180.934
 7.6756  32570.6  179.86
 7.7176  32901.6  181.091
 7.7596  32886.5  182.282
 7.8016  38655.4  199.992
 7.8436  33873.4  183.856
 7.8856  34067.6  183.995
 7.9276  34701.6  186.076
 7.9696  34777.1  186.609
 8.0116  35621.7  187.398
 8.0536  36203.3  189.18
 8.0956  39461.1  198.752
 8.1376  36711.3  191.162
 8.1796  36616.5  191.473
 8.2216  37926.5  193.573
 8.2636  38981.9  196.504
 8.3056  38144.6  195.147
 8.3476  40513.3  200.432
 8.3896  39117.2  197.035
 8.4316  38192.1  194.856
 8.4736  38317.9  194.634
 8.5156  37772.4  193.523
 8.5576  37819.7  194.646
 8.5996  37671  193.108
 8.6416  37560.3  194.111
 8.6836  37374.4  193.426
 8.7256  38092.5  194.747
 8.7676  40760.2  204.489
 8.8096  40225.8  200.312
 8.8516  37352.4  192.699
 8.8936  39930.5  199.055
 8.9356  36974  191.898
 8.9776  37002.6  192.076
 9.0196  36598.9  190.701
 9.0616  37243.4  191.83
 9.1036  39780.5  199.515
 9.1456  36664  190.865
 9.1876  36399.9  190.139
 9.2296  36323.5  189.326
 9.2716  35583.9  187.463
 9.3136  35634.4  187.582
 9.3556  36021.3  188.581
 9.3976  34395.1  184.81
 9.4396  35070.6  186.499
 9.4816  34558.9  185.003
 9.5236  34280.1  184.157
 9.5656  34348.6  184.666
 9.6076  34066.8  184.426
 9.6496  33886.8  183.872
 9.6916  34231.7  184.768
 9.7336  33820.9  183.445
 9.7756  33854.7  184.665
 9.8176  32895.7  181.708
 9.8596  33071  180.641
 9.9016  32469.9  178.984
 9.9436  32856.8  179.796
 9.9856  32824.2  180.099
 10.0276  31764.6  178.271
 10.0696  32215.1  178.566
 10.1116  31696.8  177.39
 10.1536  30885.2  174.773
 10.1956  30681.8  174.291
 10.2376  30179.2  172.362
 10.2796  30399.3  173.119
 10.3216  30394.6  173.238
 10.3636  30147.2  172.695
 10.4056  32913.6  180.88
 10.4476  33529.1  182.152
 10.4896  37753.6  192.668
 10.5316  34260.8  183.941
 10.5736  30086.5  173.13
 10.6156  29294.3  170.601
 10.6576  35968.3  187.438
 10.6996  29585.7  170.67
 10.7416  28345  167.3
 10.7836  30133.5  173.189
 10.8256  27904.3  167.083
 10.8676  28123.6  167.278
 10.9096  28029.1  167.022
 10.9516  27642.9  164.795
 10.9936  28559  167.7
 11.0356  27982.1  166.652
 11.0776  29287.6  169.778
 11.1196  28945  169.569
 11.1616  27112.9  163.805
 11.2036  28224.2  166.966
 11.2456  30067.3  173.101
 11.2876  26527.7  162.307
 11.3296  26725.7  162.81
 11.3716  27376.9  164.495
 11.4136  26721.4  163.389
 11.4556  26948.8  163.734
 11.4976  28172.6  166.364
 11.5396  28548.4  167.644
 11.5816  26433  161.763
 11.6236  26062.2  160.857
 11.6656  26016.4  159.873
 11.7076  25428.2  158.885
 11.7496  25922.8  164.376
 11.7916  25945.9  159.748
 11.8336  25027.6  157.77
 11.8756  25711.2  159.447
 11.9176  25022  156.963
 11.9596  24779  156.386
 12.0016  24603.7  156.617
 12.0436  24770.2  156.564
 12.0856  24332.5  155.701
 12.1276  24452.2  155.993
 12.1696  24352.8  154.82
 12.2116  24808.8  156.254
 12.2536  28243.2  167.586
 12.2956  25012.4  157.061
 12.3376  24473.2  155.576
 12.3796  24428.7  155.885
 12.4216  24462.7  155.214
 12.4636  25700.7  160.028
 12.5056  24090.3  154.218
 12.5476  24349.5  154.567
 12.5896  24170.2  154.634
 12.6316  23891  153.898
 12.6736  23943  154.545
 12.7156  24110.2  154.951
 12.7576  23925.7  154.591
 12.7996  24239.3  154.247
 12.8416  24423.7  155.892
 12.8836  25351.1  158.649
 12.9256  24767.4  155.824
 12.9676  24934.1  156.77
 13.0096  24409.5  156.215
 13.0516  24649.9  156.012
 13.0936  24536.4  155.771
 13.1356  24775.1  155.793
 13.1776  24785.1  156.82
 13.2196  24569.1  155.792
 13.2616  24544  156.02
 13.3036  24362.3  155.582
 13.3456  24464.8  156.097
 13.3876  24924  156.842
 13.4296  24470.9  155.561
 13.4716  24993.3  156.819
 13.5136  24575.9  155.659
 13.5556  24923  157.377
 13.5976  24777.9  157.052
 13.6396  25269  157.968
 13.6816  24486.1  155.87
 13.7236  25464.4  158.721
 13.7656  24755.3  157.033
 13.8076  26315.6  160.643
 13.8496  24703.9  156.438
 13.8916  24670.8  157.157
 13.9336  24346.9  155.341
 13.9756  24225.2  154.303
 14.0176  24280.6  155.165
 14.0596  25445.2  158.816
 14.1016  23842  154.12
 14.1436  23525.6  152.237
 14.1856  23616.3  152.821
 14.2276  23592.8  153.232
 14.2696  24096.4  154.699
 14.3116  23134.2  151.475
 14.3536  22507.5  149.585
 14.3956  22672.4  149.877
 14.4376  22968  150.613
 14.4796  22895.5  150.37
 14.5216  22317.1  149.255
 14.5636  22895.8  150.739
 14.6056  22513.9  149.04
 14.6476  22316.3  147.622
 14.6896  21873.3  146.693
 14.7316  21292  145.745
 14.7736  21356.4  145.128
 14.8156  21310.2  144.999
 14.8576  21410.1  145.187
 14.8996  21192.4  145.663
 14.9416  20503.3  143.273
 14.9836  20859.9  144.47
 15.0256  20448.6  141.961
 15.0676  20320.9  141.838
 15.1096  20265.1  141.378
 15.1516  19907.1  140.697
 15.1936  19954  140.272
 15.2356  19618.1  139.366
 15.2776  19599.1  138.881
 15.3196  19514.2  139.592
 15.3616  19139.6  137.989
 15.4036  19123.2  137.806
 15.4456  19607.6  139.181
 15.4876  19130.1  137.153
 15.5296  18771.7  136.159
 15.5716  18734.9  135.614
 15.6136  18572.9  135.363
 15.6556  20936.8  142.9
 15.6976  18848.4  135.897
 15.7396  18652  135.556
 15.7816  18552.9  134.709
 15.8236  18061.9  133.609
 15.8656  18055.1  133.385
 15.9076  17851.8  132.457
 15.9496  18422.2  137.414
 15.9916  17596  134.724
 16.0336  17459.5  131.091
 16.0756  17667.5  132.169
 16.1176  17286.4  130.647
 16.1596  17185.8  131.609
 16.2016  17332.4  130.903
 16.2436  17193.8  130.774
 16.2856  17043.8  129.744
 16.3276  16728  128.945
 16.3696  16802.1  129.059
 16.4116  16343.7  127.754
 16.4536  16818.6  129.368
 16.4956  17532.1  131.817
 16.5376  16850  129.407
 16.5796  16680.8  128.119
 16.6216  16549.8  127.92
 16.6636  17000  129.79
 16.7056  16470.3  127.633
 16.7476  16295.5  126.481
 16.7896  16579.3  128.334
 16.8316  16332  127.339
 16.8736  16850.2  129.617
 16.9156  16684.2  129.297
 16.9576  16313.7  128.688
 16.9996  16497.9  129.891
 17.0416  16398.4  127.873
 17.0836  16059.9  126.299
 17.1256  15938.3  125.826
 17.1676  16640.4  128.572
 17.2096  16332.6  127.25
 17.2516  16261.6  127.05
 17.2936  15676.6  124.772
 17.3356  15389.4  123.631
 17.3776  15475  124.165
 17.4196  15527.6  124.073
 17.4616  15546  124.062
 17.5036  16320.4  127.478
 17.5456  15180.1  123.598
 17.5876  15182.3  122.653
 17.6296  15159.4  122.356
 17.6716  15337.9  123.666
 17.7136  15865.2  125.925
 17.7556  15069.5  123.023
 17.7976  15355  123.921
 17.8396  15108.6  122.418
 17.8816  14975.7  122.428
 17.9236  14862.6  121.771
 17.9656  15273.5  123.979
 18.0076  15876.3  125.95
 18.0496  15920.8  125.236
 18.0916  20294.7  142.018
 18.1336  18391.4  135.296
 18.1756  16086.6  126.063
 18.2176  16764.9  128.923
 18.2596  15035.2  121.836
 18.3016  15784.7  125.093
 18.3436  16163.9  126.604
 18.3856  15424.5  123.797
 18.4276  15095.4  122.136
 18.4696  15193.6  122.627
 18.5116  15202.8  122.969
 18.5536  14903.6  122.105
 18.5956  14821.4  121.324
 18.6376  15197.1  123.279
 18.6796  14667.3  120.43
 18.7216  15082.5  122.616
 18.7636  14627.7  120.734
 18.8056  14231  119.031
 18.8476  14240.2  119.689
 18.8896  14263.1  119.124
 18.9316  14570.8  120.381
 18.9736  14287.4  118.908
 19.0156  14716.6  121.1
 19.0576  14536.2  119.197
 19.0996  14448.6  119.556
 19.1416  14342  119.509
 19.1836  14089.6  118.055
 19.2256  13964.8  117.741
 19.2676  14126.5  118.514
 19.3096  14141  118.818
 19.3516  14121.2  118.525
 19.3936  14255.9  119.172
 19.4356  14163.4  118.651
 19.4776  14178.4  118.809
 19.5196  14031.2  118.042
 19.5616  14120.9  118.671
 19.6036  13994.3  117.631
 19.6456  14208  118.655
 19.6876  14753.7  120.545
 19.7296  14104.6  118.323
 19.7716  14044.5  118.238
 19.8136  14187.9  119.045
 19.8556  14738.3  120.801
 19.8976  14914.6  121.588
 19.9396  14581.6  119.788
 19.9816  14865.1  121.2
 20.0236  15510  124.028
 20.0656  14333  119.222
 20.1076  13851.9  117.66
 20.1496  13763.2  117.293
 20.1916  14032.3  117.905
 20.2336  14007.6  117.781
 20.2756  13609  116.516
 20.3176  13543.5  115.984
 20.3596  13728.4  116.751
 20.4016  13767.7  116.72
 20.4436  13697.9  116.976
 20.4856  13415  115.564
 20.5276  13507.7  116.417
 20.5696  13398.1  115.506
 20.6116  13430.9  115.825
 20.6536  13219.3  114.414
 20.6956  13245.1  114.652
 20.7376  13347  115.324
 20.7796  13255.1  114.609
 20.8216  13403.7  114.963
 20.8636  13642.8  116.35
 20.9056  14911.5  121.597
 20.9476  13373.8  114.994
 20.9896  14680.1  120.341
 21.0316  13465.1  115.144
 21.0736  13695.6  116.659
 21.1156  13996.1  118.088
 21.1576  13581.4  116.384
 21.1996  13160.7  114.544
 21.2416  13225.1  114.656
 21.2836  13449.8  115.581
 21.3256  13095.1  114.136
 21.3676  13312.5  114.625
 21.4096  13675.9  116.555
 21.4516  13138.4  114.063
 21.4936  12970.3  113.589
 21.5356  13150.2  114.311
 21.5776  13109.7  113.968
 21.6196  13431.2  115.394
 21.6616  13263.3  114.76
 21.7036  13090.5  113.786
 21.7456  12925.6  113.145
 21.7876  12790.5  112.301
 21.8296  12815.5  112.268
 21.8716  12879.8  112.791
 21.9136  12991.7  113.474
 21.9556  13391.4  114.87
 21.9976  12906.7  112.787
 22.0396  12732.6  112.281
 22.0816  12990  113.948
 22.1236  13478.7  115.519
 22.1656  13029.7  113.694
 22.2076  13003  113.052
 22.2496  12817.9  112.282
 22.2916  13015.9  113.017
 22.3336  13128.8  114.253
 22.3756  12858.3  112.78
 22.4176  12760.4  112.204
 22.4596  12569.6  111.937
 22.5016  12864.5  112.736
 22.5436  12904.1  112.787
 22.5856  13040.7  113.645
 22.6276  12723.9  112.399
 22.6696  12841.6  113.27
 22.7116  12657.6  111.973
 22.7536  12817  112.638
 22.7956  12869.8  112.206
 22.8376  12665.1  111.817
 22.8796  12682  111.701
 22.9216  12848.2  112.973
 22.9636  12808  111.949
 23.0056  12901.8  112.496
 23.0476  12958.3  113.323
 23.0896  13156.6  113.543
 23.1316  13101.2  113.756
 23.1736  12676  114.862
 23.2156  12890  113.14
 23.2576  12895.9  113.312
 23.2996  12763.4  112.508
 23.3416  12684.6  112.688
 23.3836  12653.1  111.778
 23.4256  12715.5  112.175
 23.4676  12669.3  111.656
 23.5096  12750.4  112.7
 23.5516  12621.9  111.412
 23.5936  12741.9  112.838
 23.6356  12899.5  113.212
 23.6776  12699.6  112.532
 23.7196  12636.9  112.061
 23.7616  12846  112.663
 23.8036  12619.5  111.729
 23.8456  12596.1  111.18
 23.8876  12333.4  110.38
 23.9296  12298.1  110.701
 23.9716  12479.2  110.714
 24.0136  12570.1  112.015
 24.0556  12415.5  111.052
 24.0976  12240.5  110.076
 24.1396  12156.8  112.359
 24.1816  12353.5  111.678
 24.2236  12251.5  110.836
 24.2656  12305.4  110.549
 24.3076  12194.2  110.297
 24.3496  12274.9  110.557
 24.3916  12323.8  110.825
 24.4336  12195.5  110.456
 24.4756  12078.1  109.785
 24.5176  12083.8  109.464
 24.5596  11867.1  108.797
 24.6016  11636.5  107.829
 24.6436  11908.4  108.561
 24.6856  12071.2  109.068
 24.7276  12100.1  109.524
 24.7696  11979.2  109.086
 24.8116  11852.4  108.694
 24.8536  11732.6  108.137
 24.8956  11670.1  107.582
 24.9376  11653.4  107.682
 24.9796  11531.8  107.238
 25.0216  11555.3  107.455
 25.0636  11836  108.4
 25.1056  11418.2  107.182
 25.1476  11452.4  108.996
 25.1896  11422.3  107.331
 25.2316  11638.1  107.585
 25.2736  11444.7  106.354
 25.3156  11349.2  105.975
 25.3576  11267.7  106.02
 25.3996  11417.6  106.698
 25.4416  11317.9  106.221
 25.4836  11288.1  106.611
 25.5256  11359.1  106.302
 25.5676  11362.5  106.047
 25.6096  11232  106.015
 25.6516  11350.4  106.067
 25.6936  11151.9  105.447
 25.7356  11276.8  106.17
 25.7776  11467.3  106.729
 25.8196  11208.1  105.685
 25.8616  11200  105.561
 25.9036  11451  106.207
 25.9456  11135.1  105.337
 25.9876  11068.3  104.942
 26.0296  11271.5  105.552
 26.0716  11065.9  105.005
 26.1136  11266.7  105.889
 26.1556  11535.6  106.501
 26.1976  10999.9  104.939
 26.2396  11217.4  105.101
 26.2816  11013.4  104.771
 26.3236  11152.8  105.594
 26.3656  11151.1  105.3
 26.4076  11136.2  105.45
 26.4496  11577.8  106.961
 26.4916  11291.6  105.661
 26.5336  11027  104.747
 26.5756  11195.6  105.412
 26.6176  11296.7  105.929
 26.6596  10916  104.437
 26.7016  10788.4  103.591
 26.7436  10652.6  103.067
 26.7856  10564.1  102.617
 26.8276  10722  103.337
 26.8696  10772.4  103.455
 26.9116  10743  103.252
 26.9536  10721.3  103.195
 26.9956  10799.8  103.604
 27.0376  10494.7  102.333
 27.0796  10839.7  103.745
 27.1216  10803.2  103.646
 27.1636  10658.5  103.116
 27.2056  10712  103.253
 27.2476  10447.1  101.97
 27.2896  10522.7  102.447
 27.3316  10475.9  101.933
 27.3736  10580.5  102.711
 27.4156  10445.2  101.889
 27.4576  10648.6  103.116
 27.4996  10527.3  102.118
 27.5416  10435  101.987
 27.5836  10550.1  102.363
 27.6256  10850.8  103.971
 27.6676  10703.6  103.291
 27.7096  10426.1  101.81
 27.7516  11146.2  105.428
 27.7936  10852.9  104.205
 27.8356  10814.2  103.623
 27.8776  10576.4  102.528
 27.9196  10568.1  102.333
 27.9616  10666.9  103.004
 28.0036  10508.4  102.215
 28.0456  10279.2  101.224
 28.0876  10406.1  101.939
 28.1296  10324.9  101.381
 28.1716  10433.1  101.919
 28.2136  10269.9  101.085
 28.2556  10173.2  100.725
 28.2976  10126  100.473
 28.3396  10351.3  101.34
 28.3816  10263.3  100.935
 28.4236  10488.6  102.194
 28.4656  10139.8  100.516
 28.5076  10133.9  100.117
 28.5496  10150  100.466
 28.5916  10105  100.048
 28.6336  10065.9  100.203
 28.6756  10154.7  99.8344
 28.7176  10149.8  100.36
 28.7596  9989.68  99.4658
 28.8016  9884.21  98.9821
 28.8436  9938.19  99.4881
 28.8856  9994.61  99.6203
 28.9276  10037.5  100.069
 28.9696  9853.61  98.8149
 29.0116  9858.24  99.023
 29.0536  9759.44  98.7279
 29.0956  10011.8  99.7035
 29.1376  9841.05  98.8209
 29.1796  9807.79  98.707
 29.2216  9840.1  98.7041
 29.2636  9857.33  98.8709
 29.3056  9813.2  98.4341
 29.3476  9938.13  99.5854
 29.3896  9999.59  99.9792
 29.4316  10034.9  99.4949
 29.4736  9859.56  98.676
 29.5156  9820.59  98.4076
 29.5576  9829.14  99.2067
 29.5996  9821.07  98.4117
 29.6416  9740.83  98.1275
 29.6836  9999.31  99.3471
 29.7256  9733.59  98.5872
 29.7676  9886.52  99.0072
 29.8096  9777.4  98.4071
 29.8516  9664.1  98.1606
 29.8936  9739.61  98.6496
 29.9356  9790.13  98.6569
 29.9776  9665.81  98.1822
 30.0196  9909.75  98.7909
 30.0616  9848.95  98.8666
 30.1036  9733.85  98.1169
 30.1456  9638.47  97.8525
 30.1876  9685.37  98.0902
 30.2296  9729.76  98.2377
 30.2716  9771.58  98.0961
 30.3136  9742.65  98.8202
 30.3556  9769.23  98.968
 30.3976  9696.68  100.143
 30.4396  9837.84  98.157
 30.4816  9648.5  96.7873
 30.5236  9601.13  96.5871
 30.5656  9476.1  96.596
 30.6076  9719.97  97.5935
 30.6496  9732.54  97.7083
 30.6916  9596.02  97.1077
 30.7336  9675.82  97.6703
 30.7756  9516.81  96.9578
 30.8176  9560.32  97.0928
 30.8596  9596.95  97.0428
 30.9016  9540.39  96.6368
 30.9436  9530.67  96.8052
 30.9856  9565.57  97.093
 31.0276  9589.25  96.8024
 31.0696  9483.74  96.8586
 31.1116  9423.7  96.5314
 31.1536  9741.61  98.0203
 31.1956  9599.35  97.3972
 31.2376  9413.12  96.4542
 31.2796  9386.58  95.858
 31.3216  9457.68  96.163
 31.3636  9402.88  96.5952
 31.4056  9392.31  97.8587
 31.4476  9362.71  95.6004
 31.4896  9398.2  96.2864
 31.5316  9650.02  96.9545
 31.5736  10096.2  98.9946
 31.6156  9894.75  98.0141
 31.6576  9665.41  96.9674
 31.6996  9670.1  96.6572
 31.7416  9505.64  96.7682
 31.7836  9516.23  95.9651
 31.8256  9465.54  95.9797
 31.8676  9397.12  95.6341
 31.9096  9338.46  95.5485
 31.9516  9314.27  95.7324
 31.9936  9219.79  95.071
 32.0356  9367.5  95.894
 32.0776  9443.39  96.1642
 32.1196  9222.69  95.0344
 32.1616  9330.5  95.1321
 32.2036  9153.87  94.7374
 32.2456  9365.92  96.2161
 32.2876  9237.78  95.0443
 32.3296  9073.82  94.1666
 32.3716  9160.27  94.7089
 32.4136  9296.18  95.6064
 32.4556  9382.11  95.4356
 32.4976  9283.93  94.8744
 32.5396  9098.22  93.9532
 32.5816  9124.7  94.2098
 32.6236  9227.07  94.8122
 32.6656  9289.54  95.6799
 32.7076  9106.05  94.3807
 32.7496  9125.61  94.1501
 32.7916  9136.52  94.1612
 32.8336  9147.15  94.3179
 32.8756  9260.28  94.6124
 32.9176  9148.74  94.5332
 32.9596  9147.21  94.595
 33.0016  9141.75  94.3651
 33.0436  9195.47  94.8083
 33.0856  9044.7  94.1028
 33.1276  9042.78  93.8365
 33.1696  9157.56  94.2576
 33.2116  9201.92  94.7228
 33.2536  9068.6  94.0327
 33.2956  9158.64  94.582
 33.3376  8921.53  93.1602
 33.3796  9084.45  94.1436
 33.4216  9065.1  93.6241
 33.4636  9072.17  93.8198
 33.5056  8916.53  93.255
 33.5476  8976.78  93.5625
 33.5896  9057.18  93.7444
 33.6316  8859.45  93.0368
 33.6736  8766.72  92.7853
 33.7156  8927.91  93.6851
 33.7576  8937.21  93.3606
 33.7996  9121.56  94.0671
 33.8416  8815.51  92.6749
 33.8836  8932.5  93.062
 33.9256  8887.01  92.8847
 33.9676  9010.61  93.4233
 34.0096  8746.07  92.3615
 34.0516  8727.4  91.9002
 34.0936  8794.23  92.5191
 34.1356  8913.79  92.8806
 34.1776  8789.4  92.2432
 34.2196  8627.22  91.5684
 34.2616  8698.16  92.0828
 34.3036  8753.38  92.6201
 34.3456  8712.46  92.1589
 34.3876  8797.57  92.6635
 34.4296  8772.42  92.1245
 34.4716  8828.13  92.5601
 34.5136  8794.7  92.5945
 34.5556  8732.79  92.5202
 34.5976  8772.68  92.5697
 34.6396  8762.45  92.1962
 34.6816  8788.53  92.4501
 34.7236  8707.9  91.8036
 34.7656  8775.03  92.352
 34.8076  8630.77  91.9148
 34.8496  8683.05  92.04
 34.8916  8704.32  92.0376
 34.9336  8874.81  92.8942
 34.9756  8740.65  92.1394
 35.0176  8739.14  92.6374
 35.0596  8647.43  91.9767
 35.1016  8666.14  91.841
 35.1436  8686.71  91.6305
 35.1856  8637.14  91.4999
 35.2276  8648.36  91.7302
 35.2696  8679  92.0918
 35.3116  8670.9  92.1397
 35.3536  8606.74  91.5441
 35.3956  8566.65  91.0022
 35.4376  8522.88  91.3266
 35.4796  8713.35  92.3985
 35.5216  8576.39  91.6246
 35.5636  8375.67  91.2934
 35.6056  8590.64  91.4653
 35.6476  8599.03  91.4084
 35.6896  8676.74  91.9167
 35.7316  8583.23  91.3804
 35.7736  8534.99  91.3295
 35.8156  8544.25  91.3774
 35.8576  8531.8  91.5712
 35.8996  8648.66  92.147
 35.9416  8769.99  92.2644
 35.9836  8501.61  91.3207
 36.0256  8604.77  91.7914
 36.0676  8508.61  91.0441
 36.1096  8479.31  91.0154
 36.1516  8529.05  91.1712
 36.1936  8571.86  91.2385
 36.2356  8499.92  91.5072
 36.2776  8505.06  90.9965
 36.3196  8631.21  91.3506
 36.3616  8467.66  90.6045
 36.4036  8510.43  90.8952
 36.4456  8469.75  90.9024
 36.4876  8380.74  90.3526
 36.5296  8504.16  91.0525
 36.5716  8499.67  91.8212
 36.6136  8723.17  91.7578
 36.6556  8721.23  91.9502
 36.6976  8515.33  91.3688
 36.7396  8405.79  90.5195
 36.7816  8476.02  91.268
 36.8236  8436.81  90.9854
 36.8656  8373.13  90.7117
 36.9076  8342.84  90.4274
 36.9496  8388.72  90.6488
 36.9916  8395.5  90.3198
 37.0336  8533.91  91.3736
 37.0756  8397.9  90.4379
 37.1176  8210.5  89.6944
 37.1596  8292.42  90.1473
 37.2016  8249.56  90.1404
 37.2436  8393.43  90.2341
 37.2856  8366.56  90.3557
 37.3276  8423.27  89.9917
 37.3696  8224.59  89.8215
 37.4116  8499.21  91.1959
 37.4536  8303.3  90.0152
 37.4956  8376.86  90.4433
 37.5376  8342.49  91.8492
 37.5796  8219.23  91.1225
 37.6216  8111.95  88.7753
 37.6636  8102.58  88.638
 37.7056  8134.43  88.9973
 37.7476  8222.18  89.0124
 37.7896  8212.95  89.4553
 37.8316  8009.45  88.5242
 37.8736  8255.59  89.3825
 37.9156  8173.19  88.9426
 37.9576  8038.94  88.1012
 37.9996  8033.67  87.7817
 38.0416  8059.53  88.7429
 38.0836  8266.05  89.773
 38.1256  8280.16  89.8058
 38.1676  8226.45  89.6508
 38.2096  8198  89.1223
 38.2516  8314.85  89.9544
 38.2936  8223.33  89.266
 38.3356  8191.4  88.9871
 38.3776  8109.22  88.8318
 38.4196  8300.56  89.7204
 38.4616  8123.19  88.9995
 38.5036  8184.2  89.17
 38.5456  8073.81  89.4168
 38.5876  8103.26  89.6197
 38.6296  8094.61  88.5443
 38.6716  8005.66  87.8552
 38.7136  7933.93  87.4027
 38.7556  8024.23  88.4052
 38.7976  8012.99  88.2738
 38.8396  8080.5  89.1084
 38.8816  7924.55  88.0196
 38.9236  7968.79  88.077
 38.9656  7989.99  88.1106
 39.0076  7891.06  86.974
 39.0496  8108.39  88.7057
 39.0916  8049.11  88.0278
 39.1336  7940.72  87.8484
 39.1756  7937.39  87.8983
 39.2176  7923.23  88.3532
 39.2596  8139.57  89.4684
 39.3016  8028.74  88.4284
 39.3436  7907.53  88.1819
 39.3856  8045.49  88.392
 39.4276  8095.83  89.1629
 39.4696  8128.54  88.9704
 39.5116  7904.55  88.2436
 39.5536  8135.67  89.9477
 39.5956  8187.83  89.3252
 39.6376  8128.84  88.9947
 39.6796  7996.44  88.0189
 39.7216  8085.5  88.5953
 39.7636  8033.2  88.8946
 39.8056  8063.18  88.8256
 39.8476  8057.44  89.0602
 39.8896  8083.92  88.8299
 39.9316  7952.03  88.3581
 39.9736  8153.44  89.032
 40.0156  7966.12  87.8279
 40.0576  7991.04  88.3279
 40.0996  8184.74  88.5609
 40.1416  8096.22  88.8791
 40.1836  8095.45  88.7499
 40.2256  8046.05  88.5397
 40.2676  7939.88  88.1171
 40.3096  8109.85  88.9154
 40.3516  8117.68  89.0744
 40.3936  8079.04  88.4202
 40.4356  8074.95  88.5975
 40.4776  8164.31  89.3354
 40.5196  8209.32  89.8737
 40.5616  8152.9  89.2048
 40.6036  8049.63  88.8947
 40.6456  8170.45  89.1536
 40.6876  8213.78  89.3682
 40.7296  8138.43  89.107
 40.7716  8142.59  89.2556
 40.8136  8059.68  88.7542
 40.8556  8025.68  88.6985
 40.8976  8040.47  88.6962
 40.9396  7965.53  88.6371
 40.9816  8182.44  89.1093
 41.0236  8136.04  88.6299
 41.0656  8073.75  88.8388
 41.1076  8104.88  88.7782
 41.1496  8075.85  88.5273
 41.1916  8091.33  88.9426
 41.2336  7996.38  88.4034
 41.2756  8028.62  88.1868
 41.3176  8079.27  89.084
 41.3596  8095.04  88.8894
 41.4016  8059.88  88.9551
 41.4436  8087.87  88.9013
 41.4856  8101.83  89.1472
 41.5276  7933.51  88.2302
 41.5696  8059.03  88.5576
 41.6116  7966.37  88.4442
 41.6536  8001.31  88.4957
 41.6956  8210.8  89.6266
 41.7376  8000.95  88.5751
 41.7796  7949.62  88.1682
 41.8216  8132.47  89.4214
 41.8636  8051.63  88.9126
 41.9056  7956.19  88.1702
 41.9476  8103.72  89.2206
 41.9896  8062.87  88.6627
 42.0316  8094.15  88.9149
 42.0736  8020.78  88.6565
 42.1156  7967.67  88.1695
 42.1576  8002.64  88.4626
 42.1996  8113.63  89.2197
 42.2416  8033.48  88.3542
 42.2836  7852.94  87.4692
 42.3256  8018.48  88.5011
 42.3676  7999.47  88.1997
 42.4096  7958.54  87.9311
 42.4516  7995.03  88.2288
 42.4936  7925.17  87.9061
 42.5356  8052.73  88.7468
 42.5776  8044.95  88.6426
 42.6196  8072.79  88.8593
 42.6616  7932.78  88.2528
 42.7036  8054.35  88.2992
 42.7456  7978.77  88.2459
 42.7876  7949.11  88.1821
 42.8296  7891.23  87.6873
 42.8716  7994.92  88.4258
 42.9136  7856.74  87.4046
 42.9556  7947.83  88.0871
 42.9976  7993.01  88.3074
 43.0396  7967.74  87.8855
 43.0816  7832.07  87.5189
 43.1236  7809.85  87.4526
 43.1656  7909.18  87.8362
 43.2076  7841.51  87.5529
 43.2496  7813.26  87.21
 43.2916  7902.68  88.0854
 43.3336  7924.11  88.0414
 43.3756  7781.21  86.9963
 43.4176  7658.97  86.3931
 43.4596  7726.46  86.6259
 43.5016  7845.92  87.7039
 43.5436  7769.01  87.1758
 43.5856  7743.87  87.0511
 43.6276  7720.53  86.8224
 43.6696  7706  86.9894
 43.7116  7878.53  87.4592
 43.7536  7814.06  87.596
 43.7956  7729.31  88.2953
 43.8376  7867.5  87.6283
 43.8796  7691.85  86.7142
 43.9216  7660.77  86.4575
 43.9636  7750.2  87.0636
 44.0056  7757.95  87.3485
 44.0476  7693.61  86.6062
 44.0896  7706.34  87.0309
 44.1316  7839.22  87.2872
 44.1736  7611.36  86.1354
 44.2156  7832.94  87.2425
 44.2576  7774.37  87.2321
 44.2996  7727.52  86.9539
 44.3416  7676.34  86.3999
 44.3836  7591.49  86.2655
 44.4256  7536.84  85.5901
 44.4676  7664.42  86.4812
 44.5096  7605.92  86.2932
 44.5516  7542.19  85.8894
 44.5936  7499.56  85.6062
 44.6356  7666.92  86.2908
 44.6776  7506.59  85.7058
 44.7196  7556.46  86.284
 44.7616  7554.74  87.6217
 44.8036  7624.22  86.6236
 44.8456  7532.15  86.1022
 44.8876  7547.77  86.0408
 44.9296  7688.86  86.294
 44.9716  7536.79  85.8679
 45.0136  7655.25  86.4617
 45.0556  7662.67  86.5944
 45.0976  7526.53  85.88
 45.1396  7481.58  85.3742
 45.1816  7409.62  84.8966
 45.2236  7526.95  85.4706
 45.2656  7376.23  85.1021
 45.3076  7371.31  84.866
 45.3496  7406.9  85.3669
 45.3916  7453.52  85.9102
 45.4336  7412.82  85.5222
 45.4756  7393.08  85.2686
 45.5176  7431.4  85.1067
 45.5596  7441.33  85.2749
 45.6016  7414.38  85.5436
 45.6436  7536.01  85.4162
 45.6856  7353.28  85.0246
 45.7276  7353.98  86.3566
 45.7696  7447.84  86.5708
 45.8116  7418.38  85.8553
 45.8536  7391.37  85.5922
 45.8956  7535.29  85.7667
 45.9376  7391.99  84.4137
 45.9796  7490.6  85.6619
 46.0216  7575.3  86.4924
 46.0636  7528.48  85.3645
 46.1056  7498.21  85.1776
 46.1476  7353.14  84.9398
 46.1896  7459.93  85.7009
 46.2316  7424.55  85.3676
 46.2736  7362.94  85.2219
 46.3156  7351.4  84.9035
 46.3576  7347.48  85.0817
 46.3996  7306.21  84.9995
 46.4416  7398.12  85.0911
 46.4836  7277.37  84.7678
 46.5256  7393.47  85.3812
 46.5676  7391.5  85.4815
 46.6096  7394.61  85.4383
 46.6516  7517.12  85.1745
 46.6936  7457.62  85.3322
 46.7356  7365.35  84.8916
 46.7776  7237.58  84.9911
 46.8196  7385.72  85.5995
 46.8616  7205.41  84.3408
 46.9036  7189.71  83.9186
 46.9456  7170.48  83.4385
 46.9876  7183.02  83.6011
 47.0296  7221.17  84.5023
 47.0716  7174.31  84.059
 47.1136  7219.97  84.0076
 47.1556  7310.43  84.3993
 47.1976  7252.32  84.2125
 47.2396  7226.94  84.3885
 47.2816  7194.9  83.9078
 47.3236  7226.84  84.4569
 47.3656  7237.74  84.4624
 47.4076  7264.75  84.3378
 47.4496  7128.55  83.7107
 47.4916  7101.89  83.7374
 47.5336  7244.08  84.3989
 47.5756  7285.83  84.7517
 47.6176  7106.54  83.6011
 47.6596  7137.78  83.5122
 47.7016  7271.79  84.0933
 47.7436  7176.62  83.8864
 47.7856  7224.45  84.1876
 47.8276  7168.54  83.9051
 47.8696  7116.36  83.6907
 47.9116  7189.97  83.8386
 47.9536  7173.18  83.6766
 47.9956  7128.72  84.1288
 48.0376  7142.66  83.9913
 48.0796  7159.58  84.2039
 48.1216  7257.57  84.6118
 48.1636  7270.35  84.2531
 48.2056  7247.19  84.3833
 48.2476  7164.2  84.2091
 48.2896  7079.71  83.6149
 48.3316  7120.17  83.7911
 48.3736  6984.72  83.021
 48.4156  7009.92  83.016
 48.4576  7068.91  83.6652
 48.4996  7100.22  83.3126
 48.5416  7231.01  84.3985
 48.5836  7032.65  82.9093
 48.6256  7057.42  83.2609
 48.6676  7075.03  83.8805
 48.7096  7064.53  83.0826
 48.7516  7113.57  83.5273
 48.7936  6942.44  82.5758
 48.8356  7103.45  83.5767
 48.8776  6980.89  83.4304
 48.9196  7179.35  83.964
 48.9616  6978.46  83.1621
 49.0036  7065.16  84.0248
 49.0456  6956.07  83.3539
 49.0876  7106.89  83.78
 49.1296  6912.47  82.7949
 49.1716  6890.82  82.5367
 49.2136  7101.52  83.716
 49.2556  7006.15  83.187
 49.2976  7027.09  83.3772
 49.3396  6900.73  82.6797
 49.3816  7066.26  83.0895
 49.4236  6947.83  82.8152
 49.4656  6875.2  82.3981
 49.5076  6979.35  82.7722
 49.5496  6954.48  82.6879
 49.5916  7071.24  83.2949
 49.6336  6866.92  82.2878
 49.6756  6956.47  83.0428
 49.7176  6980.49  83.1312
 49.7596  6908.4  82.4717
 49.8016  6958.27  82.689
 49.8436  6872.98  82.4792
 49.8856  6917.15  82.745
 49.9276  6865.63  82.5414
 49.9696  6939.53  82.9665
 50.0116  6980.52  83.3393
 50.0536  6899.82  82.8064
 50.0956  6850.99  82.5832
 50.1376  6884.5  82.4741
 50.1796  6827.45  82.4086
 50.2216  6838.4  82.4597
 50.2636  6817.81  81.9671
 50.3056  6753.03  81.7535
 50.3476  6880.02  82.5345
 50.3896  6825.96  82.1756
 50.4316  6941.96  82.7111
 50.4736  6781.34  81.9669
 50.5156  6901.52  82.6763
 50.5576  6879.79  82.3101
 50.5996  6756.6  81.8487
 50.6416  6787.81  81.9664
 50.6836  6792.61  82.0548
 50.7256  6887.98  82.5522
 50.7676  6755.08  82.0769
 50.8096  6789.38  81.8134
 50.8516  6767.87  82.0962
 50.8936  6722.84  81.5993
 50.9356  6854.62  82.5105
 50.9776  6781.65  82.2159
 51.0196  6695.72  81.8261
 51.0616  6730.91  81.3767
 51.1036  6791.05  82.0829
 51.1456  6734  81.6613
 51.1876  6753  81.1146
 51.2296  6746.93  81.7029
 51.2716  6670.55  80.9434
 51.3136  6700.68  81.5941
 51.3556  6630.25  80.784
 51.3976  6626.87  80.9203
 51.4396  6586.5  80.9779
 51.4816  6714.91  81.6135
 51.5236  6627  81.1683
 51.5656  6631.7  80.7957
 51.6076  6697.2  81.2865
 51.6496  6716.6  81.5781
 51.6916  6608.79  81.2897
 51.7336  6646.03  81.5943
 51.7756  6648.34  81.3178
 51.8176  6507.14  80.5434
 51.8596  6512.44  80.5986
 51.9016  6754.37  81.6918
 51.9436  6626.86  82.3723
 51.9856  6500.93  82.0014
 52.0276  6601.06  81.1478
 52.0696  6659.27  81.5688
 52.1116  6615.66  81.4151
 52.1536  6668.89  81.5842
 52.1956  6711.29  81.3495
 52.2376  6720.81  81.5874
 52.2796  6664.48  81.0492
 52.3216  6444.55  80.3872
 52.3636  6525.23  80.4675
 52.4056  6497.59  80.1544
 52.4476  6546.12  80.8209
 52.4896  6412.4  80.0409
 52.5316  6490.4  80.5766
 52.5736  6625.87  81.1293
 52.6156  6526.13  80.896
 52.6576  6565.66  80.5877
 52.6996  6327.49  80.0691
 52.7416  6492.56  80.9529
 52.7836  6635.36  81.7261
 52.8256  6583.94  80.6364
 52.8676  6443.63  80.3424
 52.9096  6433.04  80.3591
 52.9516  6480.03  81.0226
 52.9936  6459.51  81.2962
 53.0356  6319.58  79.4333
 53.0776  6382.93  80.0884
 53.1196  6360.83  80.0761
 53.1616  6481.46  80.8808
 53.2036  6325.07  79.8571
 53.2456  6363.24  80.1982
 53.2876  6368.25  79.934
 53.3296  6340.33  80.0825
 53.3716  6494.58  80.791
 53.4136  6339.45  79.9694
 53.4556  6340.36  80.0103
 53.4976  6270.9  79.42
 53.5396  6414.51  80.7108
 53.5816  6464.81  80.6657
 53.6236  6345.67  80.2573
 53.6656  6376.17  80.0827
 53.7076  6410.93  80.2555
 53.7496  6369.93  80.1184
 53.7916  6430.11  80.6256
 53.8336  6356.64  80.0611
 53.8756  6255.91  79.9712
 53.9176  6363.57  80.0072
 53.9596  6320.18  80.4672
 54.0016  6309.85  79.7553
 54.0436  6302.74  79.9133
 54.0856  6384.34  79.8623
 54.1276  6389.88  80.0949
 54.1696  6272.11  79.523
 54.2116  6361.32  79.8483
 54.2536  6367.18  79.6984
 54.2956  6326.26  79.4912
 54.3376  6343.31  80.0785
 54.3796  6325.54  79.8714
 54.4216  6295.77  79.7177
 54.4636  6268.9  79.5089
 54.5056  6340.91  79.7878
 54.5476  6345.95  80.1543
 54.5896  6393.52  80.2801
 54.6316  6362.64  79.9501
 54.6736  6322.77  79.7766
 54.7156  6284.73  79.5589
 54.7576  6202.61  79.037
 54.7996  6272.96  79.6299
 54.8416  6401.61  80.4707
 54.8836  6266.8  79.7367
 54.9256  6211.15  79.1347
 54.9676  6329.59  79.7396
 55.0096  6303.04  79.6436
 55.0516  6304.32  79.8757
 55.0936  6239.8  79.1063
 55.1356  6234.5  79.1154
 55.1776  6278.69  79.663
 55.2196  6311.65  79.65
 55.2616  6250.14  79.4786
 55.3036  6222.37  79.459
 55.3456  6220.05  79.5868
 55.3876  6291.8  79.7961
 55.4296  6330.73  80.017
 55.4716  6190.43  79.1592
 55.5136  6271.46  79.4357
 55.5556  6288.51  79.6124
 55.5976  6250.53  79.4289
 55.6396  6306.7  79.6528
 55.6816  6176.94  78.7884
 55.7236  6363.25  80.0049
 55.7656  6385.42  79.9029
 55.8076  6307.7  79.3976
 55.8496  6213.2  79.2324
 55.8916  6195.8  79.2189
 55.9336  6218.39  79.1718
 55.9756  6281.22  79.4592
 56.0176  6239.92  79.351
 56.0596  6216.92  79.1907
 56.1016  6220.46  79.2175
 56.1436  6145.89  79.0082
 56.1856  6267.46  79.5272
 56.2276  6217.95  79.2691
 56.2696  6215.71  79.2264
 56.3116  6191.64  79.4763
 56.3536  6228.03  79.3638
 56.3956  6246.23  79.4733
 56.4376  6103.18  78.5842
 56.4796  6203.8  79.0366
 56.5216  6183.21  79.2766
 56.5636  6254.25  79.3212
 56.6056  6244.17  79.4928
 56.6476  6231.14  79.0349
 56.6896  6188.14  79.2112
 56.7316  6242.92  79.4625
 56.7736  6275.72  79.6738
 56.8156  6276.69  79.6784
 56.8576  6260.36  79.5169
 56.8996  6270.88  79.5155
 56.9416  6257.12  79.7393
 56.9836  6103.81  78.2738
 57.0256  6181.41  79.0821
 57.0676  6137.9  78.929
 57.1096  6279.28  79.6194
 57.1516  6228.94  79.3541
 57.1936  6212.97  79.0058
 57.2356  6222.38  79.3873
 57.2776  6180.69  79.0819
 57.3196  6249.75  79.8936
 57.3616  6214.15  79.1563
 57.4036  6286.84  79.6773
 57.4456  6165.59  78.8756
 57.4876  6267.99  79.3869
 57.5296  6178.41  79.1504
 57.5716  6190.17  79.2167
 57.6136  6197.31  79.0834
 57.6556  6246.5  79.5357
 57.6976  6307.73  79.7435
 57.7396  6046.36  78.4491
 57.7816  6123.81  79.3094
 57.8236  6146.87  79.2463
 57.8656  6172.71  79.0741
 57.9076  6151.13  78.9585
 57.9496  6176.17  79.4762
 57.9916  6083.12  78.3932
 58.0336  6205.58  79.4536
 58.0756  6203.26  79.0467
 58.1176  6073.29  78.2354
 58.1596  6129.25  79.1656
 58.2016  6314.05  79.5496
 58.2436  6243.35  79.5243
 58.2856  6242.87  79.4347
 58.3276  6070.89  78.7125
 58.3696  6153.58  78.9933
 58.4116  6214.55  79.2491
 58.4536  6210.84  79.1135
 58.4956  6107.92  78.6331
 58.5376  6293.33  79.3831
 58.5796  6112.13  78.6465
 58.6216  6180.58  78.9098
 58.6636  6270.18  79.691
 58.7056  6177.78  78.9631
 58.7476  6158.53  79.2885
 58.7896  6222.19  79.3361
 58.8316  6137.14  78.7951
 58.8736  6308.24  79.8804
 58.9156  6122.4  78.751
 58.9576  6216.18  79.6663
 58.9996  6325.44  79.6015
 59.0416  6345.7  80.088
 59.0836  6207.57  79.1401
 59.1256  6054.78  78.8636
 59.1676  6175.53  79.9533
 59.2096  6250.07  79.7157
 59.2516  6429.61  80.4205
 59.2936  6292.15  79.8909
 59.3356  6363.2  80.2153
 59.3776  6356.43  80.3459
 59.4196  6234.45  79.505
 59.4616  6241.4  79.4082
 59.5036  6254.95  79.5305
 59.5456  6399.43  80.1281
 59.5876  6254.23  79.4082
 59.6296  6131.42  78.6944
 59.6716  6143.07  78.8276
 59.7136  6217.99  79.2949
 59.7556  6051.67  78.3638
 59.7976  6273.01  79.5213
 59.8396  6258.25  79.3201
 59.8816  6125.92  79.0264
 59.9236  6265.57  79.559
 59.9656  6179.26  79.2729
 60.0076  6224.46  78.9099
 60.0496  6257.17  79.6289
 60.0916  6205.96  78.7135
 60.1336  6124.13  79.3075
 60.1756  6222.5  81.1437
 60.1996  0.0000000E+00  0.0000000E+00