File: docs/examples/opeando_xrd/IS17_D/Data/IS17_D/17_Da_f00077.xye
# /beamlines/bl04/projects/cycle2025-II/20250340211-lsimonelli/DATA/IS17_D/17_Da_f00077.xye : mythproc.py merge -s 0.006 -l 0.5 -f /beamlines/bl04/inhouse/ff/FlatField/ff_20Nov2024rod8mm60s_17keV.raw -b True -c true -o xye /beamlines/bl04/projects/cycle2025-II/20250340211-lsimonelli/DATA/IS17_D/17_Da_00077.dat
# IsMon = [6786550, 6788084, 6791041]  IsPos = [-1.4999, -2.4884, -3.4988]
# Wave = 0.4962  CalPath /beamlines/bl04/projects/cycle2025-II/20250340211-lsimonelli/DATA/Align/Si_Pos1_25keV_f00001.cal
# Date = 2025-09-24_15:01:20 Dt = 4.8000  Bin = 0.0060  <imon> = 6788558 +/- 1864 (Min/Max) 6786550 / 6791041
# icurr 252.2823  mocoIn 1.7208E-05  mocoOut 0.8067  i15 7.10334e+06  imon 6.78856e+06  i7 8.0000  iEMpd_timer 4.8000  iEMpd_1 3.3927E-08  iEMpd_2 7.7953E-08  iEMpd_3 1.5876E-08  iEMpd_4 4.7113E-08  iEMhp_timer 4.8000  iEMhp_1 4.9268E-06  iEMhp_2 -2.5471E-08  iEMhp_3 -2.4931E-08  iEMhp_4 -2.1676E-08
#      9776
 1.5856  39510.8  204.139
 1.6276  46434.7  217.506
 1.6696  52775.5  231.064
 1.7116  61479.9  249.88
 1.7536  71319.6  267.988
 1.7956  75869.2  277.094
 1.8376  71847.9  270.078
 1.8796  60228.4  245.458
 1.9216  48456.9  221.045
 1.9636  40556.5  201.396
 2.0056  36591.4  190.556
 2.0476  33888.2  185.392
 2.0896  32526.3  180.564
 2.1316  31628.8  177.199
 2.1736  29816.3  173.412
 2.2156  30377.4  173.631
 2.2576  29287.2  171.098
 2.2996  28389.4  169.074
 2.3416  28691.8  168.615
 2.3836  28216.5  167.316
 2.4256  27216.9  164.861
 2.4676  27297.2  164.87
 2.5096  27272.3  164.849
 2.5516  33141.3  185.929
 2.5936  152993  391.389
 2.6356  29315.8  172.055
 2.6776  26046.2  161.071
 2.7196  25339.7  159.385
 2.7616  25208.3  158.752
 2.8036  24738.8  157.438
 2.8456  24657.3  157.777
 2.8876  24239.8  156.314
 2.9296  23752  154.859
 2.9716  23494.5  153.522
 3.0136  23229.4  152.717
 3.0556  23269  153.237
 3.0976  23186  151.922
 3.1396  22754.6  151.19
 3.1816  22738.6  151.078
 3.2236  22582.1  150.561
 3.2656  22504  149.358
 3.3076  22668.7  151.331
 3.3496  22690.3  150.365
 3.3916  23106.3  151.567
 3.4336  23592.4  153.721
 3.4756  23868.3  154.544
 3.5176  24703.8  157.023
 3.5596  24713.4  159.434
 3.6016  24921.2  157.756
 3.6436  24053.6  156.07
 3.6856  23546.9  152.736
 3.7276  22705.6  151.06
 3.7696  22544.2  150.705
 3.8116  22125.4  149.195
 3.8536  22299.5  149.713
 3.8956  22300.6  149.546
 3.9376  22911.3  151.835
 3.9796  22067  148.529
 4.0216  22104.3  147.707
 4.0636  22132.7  149.251
 4.1056  22045.5  148.608
 4.1476  22285.3  149.727
 4.1896  22483.1  150.246
 4.2316  22663.6  150.672
 4.2736  23131.9  152.018
 4.3156  23456.5  153.301
 4.3576  24038  155.127
 4.3996  24469.8  156.769
 4.4416  25261.1  158.864
 4.4836  26590.3  163.149
 4.5256  26024.3  162.013
 4.5676  25817.9  161.615
 4.6096  26376.4  162.02
 4.6516  27098.7  163.936
 4.6936  26943.5  164.265
 4.7356  28293.1  168.164
 4.7776  27220.4  164.774
 4.8196  26674.3  163.764
 4.8616  26334.8  162.201
 4.9036  26051.3  161.077
 4.9456  26449.2  162.944
 4.9876  25784.6  160.789
 5.0296  25636.9  160.139
 5.0716  25455.7  160.339
 5.1136  25623.3  160.588
 5.1556  26040.3  161.352
 5.1976  35476.9  188.309
 5.2396  26860.6  163.571
 5.2816  26392.3  162.6
 5.3236  26676.5  163.173
 5.3656  25952  161.852
 5.4076  25650.6  161.056
 5.4496  25856.2  161.189
 5.4916  25911.6  161.128
 5.5336  26107.4  161.734
 5.5756  25751.7  160.669
 5.6176  26073.9  161.106
 5.6596  26293.1  162.755
 5.7016  26342.5  162.176
 5.7436  26459.8  162.804
 5.7856  26558  163.163
 5.8276  26773.9  163.552
 5.8696  26919.1  164.167
 5.9116  26916.2  164.753
 5.9536  27102.1  165.079
 5.9956  27315.1  165.098
 6.0376  27545  166.421
 6.0796  27685.8  166.677
 6.1216  27702.5  166.928
 6.1636  28098.5  167.19
 6.2056  28140.4  167.967
 6.2476  27944.4  167.265
 6.2896  28372.7  168.223
 6.3316  28326.8  168.266
 6.3736  28310.7  168.108
 6.4156  28445.6  168.409
 6.4576  28804.2  169.07
 6.4996  28783.2  169.479
 6.5416  28840.1  169.788
 6.5836  29540.9  172.066
 6.6256  28740.5  169.292
 6.6676  29538.8  171.197
 6.7096  29138.5  170.878
 6.7516  29674.7  172.097
 6.7936  30978.3  175.255
 6.8356  31567.6  177
 6.8776  31133.2  176.581
 6.9196  30399.5  174.885
 6.9616  30957  175.933
 7.0036  31279  176.495
 7.0456  31398.4  176.134
 7.0876  31213.2  177.289
 7.1296  31152.9  176.264
 7.1716  31225.3  176.005
 7.2136  31224.3  175.788
 7.2556  31416.9  176.488
 7.2976  31149.6  176.228
 7.3396  31392.6  177.13
 7.3816  31230  176.882
 7.4236  31609.3  177.249
 7.4656  31705.3  177.007
 7.5076  31904.3  177.692
 7.5496  31714.7  177.692
 7.5916  31816.8  178.015
 7.6336  32665.7  180.272
 7.6756  32275.3  179.041
 7.7176  32762.7  180.702
 7.7596  32914.7  182.364
 7.8016  38876.4  200.567
 7.8436  34104.5  184.479
 7.8856  33895.2  183.527
 7.9276  34698.8  186.076
 7.9696  34687.8  186.366
 8.0116  35670.8  187.524
 8.0536  36230.7  189.246
 8.0956  39681.6  199.291
 8.1376  36463.2  190.506
 8.1796  36779.4  191.887
 8.2216  37637.3  192.833
 8.2636  39292.5  197.281
 8.3056  37705.7  194.029
 8.3476  40260.7  199.804
 8.3896  38973.9  196.67
 8.4316  37698.3  193.588
 8.4736  38054.3  193.965
 8.5156  37624.3  193.14
 8.5576  37565.1  193.977
 8.5996  37491.4  192.642
 8.6416  37296.4  193.415
 8.6836  37183.8  192.941
 8.7256  38059.1  194.653
 8.7676  40800.4  204.583
 8.8096  41051  202.372
 8.8516  37474.2  192.967
 8.8936  39643.9  198.337
 8.9356  36668.3  191.129
 8.9776  37237.3  192.701
 9.0196  36558.7  190.613
 9.0616  36919.7  191.006
 9.1036  39864.4  199.741
 9.1456  36825.5  191.306
 9.1876  36215.4  189.673
 9.2296  36182.1  188.977
 9.2716  35374.7  186.93
 9.3136  35824.4  188.097
 9.3556  36000.4  188.544
 9.3976  34043.9  183.876
 9.4396  34803.8  185.807
 9.4816  34195.9  184.044
 9.5236  34152.5  183.832
 9.5656  34275.1  184.49
 9.6076  33815.9  183.771
 9.6496  33738.1  183.485
 9.6916  33654.3  183.221
 9.7336  33793.3  183.387
 9.7756  33930.2  185.015
 9.8176  33150.5  182.397
 9.8596  32765.6  179.792
 9.9016  32746.6  179.732
 9.9436  32464.3  178.867
 9.9856  32568.3  179.365
 10.0276  31659.9  177.964
 10.0696  32046.8  178.089
 10.1116  31372.3  176.463
 10.1536  31037.3  175.687
 10.1956  30233  172.996
 10.2376  29962.1  171.734
 10.2796  30221.7  172.599
 10.3216  29892.1  171.915
 10.3636  29950  172.117
 10.4056  33570.2  182.65
 10.4476  33467.2  181.968
 10.4896  38956.6  195.692
 10.5316  34276.5  184.341
 10.5736  30008.7  172.892
 10.6156  29378.9  170.839
 10.6576  37085.7  190.315
 10.6996  29197.4  169.534
 10.7416  28630.5  168.117
 10.7836  30193.5  173.351
 10.8256  27790.1  166.738
 10.8676  27932.9  166.702
 10.9096  27781  166.284
 10.9516  27307.5  163.796
 10.9936  28521.5  167.596
 11.0356  27903.5  166.418
 11.0776  29526.6  170.469
 11.1196  29303.8  170.601
 11.1616  27031.2  163.548
 11.2036  28491.7  167.752
 11.2456  30671.6  174.819
 11.2876  26623  162.601
 11.3296  26936.8  163.449
 11.3716  27294.9  164.218
 11.4136  26512.6  162.75
 11.4556  26957.9  163.769
 11.4976  28433.8  167.134
 11.5396  28757.8  168.243
 11.5816  26404.3  161.684
 11.6236  25924.9  160.426
 11.6656  25799.9  159.206
 11.7076  25280.6  158.422
 11.7496  26258.3  165.426
 11.7916  26141.3  160.348
 11.8336  25201.5  158.32
 11.8756  25544.8  158.932
 11.9176  25182.2  157.451
 11.9596  24493.7  155.477
 12.0016  24621.2  156.671
 12.0436  24452.8  155.561
 12.0856  24195.1  155.259
 12.1276  24393.4  155.802
 12.1696  24458.5  155.155
 12.2116  24830.1  156.322
 12.2536  28131.1  167.283
 12.2956  25032.1  157.121
 12.3376  24547.3  155.811
 12.3796  24571.2  156.351
 12.4216  24369.2  154.919
 12.4636  25870.5  160.556
 12.5056  24160.5  154.43
 12.5476  24142.1  153.914
 12.5896  24004.2  154.095
 12.6316  23667  153.174
 12.6736  23886.4  154.368
 12.7156  24177.7  155.167
 12.7576  23903  154.528
 12.7996  24318.9  154.501
 12.8416  24431.1  155.919
 12.8836  25509.1  159.142
 12.9256  24750.2  155.764
 12.9676  24923.8  156.737
 13.0096  24378  156.119
 13.0516  24551.2  155.698
 13.0936  24316.5  155.357
 13.1356  24819  155.934
 13.1776  24950.8  157.329
 13.2196  24618.9  155.952
 13.2616  24564.3  156.082
 13.3036  24405.4  155.557
 13.3456  24331.7  155.669
 13.3876  24868.7  156.67
 13.4296  24485.9  155.608
 13.4716  24769.7  156.116
 13.5136  24753.3  156.214
 13.5556  24696.7  156.654
 13.5976  24652.1  156.655
 13.6396  25214  157.791
 13.6816  24612.5  156.39
 13.7236  25296.9  158.194
 13.7656  24784.8  157.127
 13.8076  25857.8  159.242
 13.8496  24624.5  156.003
 13.8916  24624.5  157.007
 13.9336  24296.8  155.183
 13.9756  24219.7  154.29
 14.0176  24147.8  154.732
 14.0596  25495.5  158.965
 14.1016  23817.3  154.042
 14.1436  23215.4  151.228
 14.1856  23435  152.232
 14.2276  23536.4  153.05
 14.2696  24014.9  154.44
 14.3116  23150.9  151.527
 14.3536  22485.5  149.52
 14.3956  22626.1  149.713
 14.4376  22711.5  149.775
 14.4796  22708.6  149.753
 14.5216  22173.1  148.774
 14.5636  23016.3  151.139
 14.6056  22307.9  148.365
 14.6476  22061.2  146.773
 14.6896  21776.8  146.365
 14.7316  21189.2  145.399
 14.7736  21253.5  144.775
 14.8156  21124.7  144.366
 14.8576  21026.3  143.88
 14.8996  20994.8  144.984
 14.9416  20372.2  142.821
 14.9836  20473.4  143.13
 15.0256  20222.5  141.174
 15.0676  20226.2  141.503
 15.1096  19986.5  140.4
 15.1516  19786  140.258
 15.1936  19597.6  139.012
 15.2356  19722.5  139.734
 15.2776  19472.8  138.43
 15.3196  19317.2  138.884
 15.3616  19147.4  138.02
 15.4036  18906.1  137.02
 15.4456  19746.3  139.67
 15.4876  18940.5  136.47
 15.5296  18768.1  136.138
 15.5716  18326.8  134.128
 15.6136  18443  134.877
 15.6556  21507  144.829
 15.6976  18889.8  136.038
 15.7396  18601.5  135.375
 15.7816  18431.6  134.268
 15.8236  17957.2  133.224
 15.8656  18022.2  133.26
 15.9076  17870.9  132.527
 15.9496  18598.1  138.074
 15.9916  17560.8  134.61
 16.0336  17379.2  130.8
 16.0756  17603.9  131.948
 16.1176  17254.3  130.7
 16.1596  16825.4  130.238
 16.2016  17117.8  130.105
 16.2436  16924.7  129.762
 16.2856  17035  129.722
 16.3276  16489  128.041
 16.3696  16744  128.848
 16.4116  16482.4  128.296
 16.4536  16559.4  128.376
 16.4956  17587.8  132.039
 16.5376  16899.8  129.614
 16.5796  16492.2  127.398
 16.6216  16466.8  127.61
 16.6636  16713.3  128.708
 16.7056  16500.3  127.764
 16.7476  16525.5  127.386
 16.7896  16546.2  128.218
 16.8316  16212.7  126.887
 16.8736  16696  129.025
 16.9156  16539.1  128.753
 16.9576  16165.9  128.099
 16.9996  16378.7  129.423
 17.0416  16087.7  126.644
 17.0836  15893.8  125.635
 17.1256  15941.8  125.841
 17.1676  16659.5  128.631
 17.2096  16152.5  126.537
 17.2516  16038.2  125.869
 17.2936  15753.8  125.078
 17.3356  15158.3  122.696
 17.3776  15403.1  123.866
 17.4196  15505.4  123.97
 17.4616  15535  124.004
 17.5036  16535.2  128.311
 17.5456  15101.5  123.267
 17.5876  15033.2  122.04
 17.6296  15185.5  122.478
 17.6716  15339.9  123.67
 17.7136  15993.4  126.424
 17.7556  14973.6  122.622
 17.7976  15513.9  124.552
 17.8396  15145.4  122.557
 17.8816  14873  121.993
 17.9236  14556.1  120.499
 17.9656  15158.7  123.506
 18.0076  15798.1  125.644
 18.0496  16220.8  126.41
 18.0916  23029.5  151.155
 18.1336  18507.9  135.737
 18.1756  16140  126.26
 18.2176  16917  129.517
 18.2596  14930.7  121.41
 18.3016  15736.7  124.906
 18.3436  16103.3  126.358
 18.3856  15168.5  122.777
 18.4276  14913.6  121.409
 18.4696  15132.6  122.398
 18.5116  15255.4  123.174
 18.5536  14920.5  122.184
 18.5956  14816  121.306
 18.6376  15188.4  123.238
 18.6796  14807.8  120.989
 18.7216  15021.3  122.363
 18.7636  14577.2  120.528
 18.8056  14283.5  119.251
 18.8476  14096.9  119.087
 18.8896  14107.8  118.476
 18.9316  14576.7  120.409
 18.9736  14294.1  118.935
 19.0156  14613.9  120.674
 19.0576  14556.3  119.279
 19.0996  14350.8  119.152
 19.1416  14258.3  119.164
 19.1836  14095.3  118.08
 19.2256  13760.2  116.877
 19.2676  14117.3  118.478
 19.3096  14097.1  118.635
 19.3516  13952.5  117.988
 19.3936  14261.2  119.189
 19.4356  14069.5  118.255
 19.4776  13972.6  117.937
 19.5196  13941.5  117.662
 19.5616  14141.9  118.757
 19.6036  13929.9  117.361
 19.6456  14126.5  118.313
 19.6876  14620.2  119.998
 19.7296  13964.9  117.734
 19.7716  13963.1  117.889
 19.8136  14281.3  119.439
 19.8556  14600.4  120.234
 19.8976  14759.3  120.954
 19.9396  14624.8  119.975
 19.9816  14879.7  121.259
 20.0236  15373.1  123.479
 20.0656  14265.1  118.939
 20.1076  13930.5  117.997
 20.1496  13805.2  117.473
 20.1916  13882.6  117.323
 20.2336  13906.1  117.353
 20.2756  13426.6  115.73
 20.3176  13466.7  115.652
 20.3596  13607.9  116.237
 20.4016  13532.4  115.719
 20.4436  13584.3  116.49
 20.4856  13432.2  115.64
 20.5276  13372.8  115.837
 20.5696  13306.5  115.006
 20.6116  13381.6  115.613
 20.6536  13499.5  115.625
 20.6956  13362.2  115.157
 20.7376  13305.2  115.139
 20.7796  13207  114.406
 20.8216  13326.8  114.623
 20.8636  13537.9  115.908
 20.9056  14878  121.455
 20.9476  13482.6  115.461
 20.9896  14682.6  120.348
 21.0316  13473.6  115.174
 21.0736  13702.8  116.687
 21.1156  14144.4  118.713
 21.1576  13462.5  115.871
 21.1996  13370.2  115.454
 21.2416  13080  114.026
 21.2836  13354.4  115.179
 21.3256  13090.5  114.123
 21.3676  13260.4  114.401
 21.4096  13637.4  116.333
 21.4516  13170.7  114.203
 21.4936  12905.5  113.303
 21.5356  13162.6  114.368
 21.5776  13157.4  114.178
 21.6196  13233.6  114.545
 21.6616  13117.5  114.132
 21.7036  12947  113.165
 21.7456  12948.6  113.245
 21.7876  12715.8  111.974
 21.8296  12650.2  111.543
 21.8716  12820.5  112.527
 21.9136  12942.2  113.256
 21.9556  13264.9  114.33
 21.9976  12889.5  112.715
 22.0396  12828.6  112.696
 22.0816  12902.9  113.571
 22.1236  13349.5  114.963
 22.1656  12923.5  113.23
 22.2076  12921.2  112.691
 22.2496  12890.8  112.592
 22.2916  12874.1  112.395
 22.3336  13059.5  113.942
 22.3756  12946.1  113.162
 22.4176  12592.4  111.461
 22.4596  12541.7  111.82
 22.5016  12908.8  112.925
 22.5436  12857.4  112.589
 22.5856  12977.5  113.367
 22.6276  12581.1  111.762
 22.6696  12481.6  111.667
 22.7116  12660  111.974
 22.7536  12669.7  111.991
 22.7956  12875.6  112.228
 22.8376  12597.6  111.523
 22.8796  12693.7  111.75
 22.9216  12684.9  112.257
 22.9636  12631.7  111.173
 23.0056  12750.9  111.833
 23.0476  12999.8  113.502
 23.0896  12984.5  112.801
 23.1316  13227.7  114.301
 23.1736  12551.3  114.29
 23.2156  12771.3  112.642
 23.2576  12778.4  112.815
 23.2996  12586.8  111.74
 23.3416  12561.8  112.155
 23.3836  12522.1  111.205
 23.4256  12602.4  111.677
 23.4676  12769.3  112.118
 23.5096  12784.9  112.863
 23.5516  12386.2  110.379
 23.5936  12649  112.447
 23.6356  12963.4  113.501
 23.6776  12588  112.051
 23.7196  12529.6  111.376
 23.7616  12717.9  112.12
 23.8036  12593.8  111.623
 23.8456  12481.3  110.688
 23.8876  12389.3  110.634
 23.9296  12167.9  110.126
 23.9716  12490.5  110.759
 24.0136  12412.1  111.315
 24.0556  12379.9  110.906
 24.0976  12130.6  109.583
 24.1396  12131.3  112.232
 24.1816  12316.7  111.51
 24.2236  12074.7  110.025
 24.2656  12204.2  110.083
 24.3076  12190.3  110.277
 24.3496  12456.2  111.357
 24.3916  12198.1  110.253
 24.4336  12038.9  109.737
 24.4756  11997.2  109.416
 24.5176  11902.8  108.633
 24.5596  11872.7  108.62
 24.6016  11738.3  108.293
 24.6436  11975.8  108.873
 24.6856  11957.6  108.545
 24.7276  11923.3  108.706
 24.7696  11897.9  108.707
 24.8116  11793.4  108.402
 24.8536  11760.7  108.249
 24.8956  11625  107.367
 24.9376  11854.3  108.357
 24.9796  11641  107.737
 25.0216  11427.2  106.849
 25.0636  11663.8  107.604
 25.1056  11554.8  107.811
 25.1476  11474.8  109.105
 25.1896  11567  108.004
 25.2316  11524.1  107.063
 25.2736  11525.9  106.726
 25.3156  11388.2  106.161
 25.3576  11276.8  106.062
 25.3996  11239.9  105.872
 25.4416  11382.8  106.527
 25.4836  11290.5  106.619
 25.5256  11279.7  105.928
 25.5676  11386.5  106.153
 25.6096  11156.1  105.654
 25.6516  11234.8  105.522
 25.6936  11186.7  105.612
 25.7356  11124.5  105.451
 25.7776  11245.1  105.622
 25.8196  11075  105.057
 25.8616  11096.5  105.083
 25.9036  11557.8  106.699
 25.9456  11090  105.117
 25.9876  10867.5  104.121
 26.0296  11171.8  105.078
 26.0716  11067.9  105.01
 26.1136  11357.4  106.317
 26.1556  11549.4  106.569
 26.1976  10991.1  104.893
 26.2396  11195.4  105.01
 26.2816  11099.9  105.183
 26.3236  11300.2  106.289
 26.3656  11051  104.833
 26.4076  10996.7  104.783
 26.4496  11536.5  106.796
 26.4916  11180.1  105.147
 26.5336  10898.2  104.134
 26.5756  11152.1  105.204
 26.6176  11257.9  105.748
 26.6596  10884.2  104.285
 26.7016  10792.3  103.606
 26.7436  10663.6  103.12
 26.7856  10590.5  102.744
 26.8276  10629.7  102.889
 26.8696  10706.7  103.137
 26.9116  10857.9  103.806
 26.9536  10589.8  102.556
 26.9956  10627.4  102.774
 27.0376  10504.2  102.39
 27.0796  10711.3  103.127
 27.1216  10734.9  103.318
 27.1636  10589.9  102.781
 27.2056  10672.8  103.065
 27.2476  10676.3  103.082
 27.2896  10513.1  102.4
 27.3316  10478.2  101.946
 27.3736  10533.9  102.479
 27.4156  10239.9  100.89
 27.4576  10571.4  102.735
 27.4996  10595.5  102.451
 27.5416  10548.9  102.542
 27.5836  10368.1  101.476
 27.6256  10775.4  103.62
 27.6676  10646.7  103.02
 27.7096  10386.5  101.608
 27.7516  11309.7  106.192
 27.7936  10927.1  104.563
 27.8356  10781.5  103.47
 27.8776  10506.5  102.191
 27.9196  10498.7  101.994
 27.9616  10705.7  103.19
 28.0036  10571.3  102.523
 28.0456  10224.4  100.951
 28.0876  10332.9  101.578
 28.1296  10225.3  100.89
 28.1716  10344.4  101.485
 28.2136  10266.2  101.067
 28.2556  10217  100.935
 28.2976  10119.2  100.442
 28.3396  10330.6  101.241
 28.3816  10190.3  100.574
 28.4236  10603.4  102.752
 28.4656  9978.52  99.7153
 28.5076  9929.97  99.1115
 28.5496  10098.8  100.211
 28.5916  10036.7  99.7107
 28.6336  9985.57  99.7952
 28.6756  10159.1  99.852
 28.7176  10094.6  100.091
 28.7596  9791.22  98.4733
 28.8016  9996.81  99.5364
 28.8436  10033.4  99.9636
 28.8856  10031.5  99.8046
 28.9276  10060.7  100.187
 28.9696  9977.18  99.4342
 29.0116  9884.78  99.153
 29.0536  9785.01  98.861
 29.0956  9993.06  99.6174
 29.1376  9849.3  98.859
 29.1796  9758.62  98.4499
 29.2216  9712.98  98.0638
 29.2636  9846.23  98.8084
 29.3056  9685.55  97.7905
 29.3476  9882.37  99.3061
 29.3896  9903.31  99.4973
 29.4316  9889.3  98.7678
 29.4736  9808.67  98.4247
 29.5156  9932.66  98.9602
 29.5576  9819.5  99.1513
 29.5996  9854.65  98.5779
 29.6416  9691.67  97.879
 29.6836  9917.52  98.9364
 29.7256  9786.95  98.852
 29.7676  9883.38  98.9882
 29.8096  9687.92  97.9568
 29.8516  9579.32  97.7325
 29.8936  9706.32  98.477
 29.9356  9836.57  98.8887
 29.9776  9692.91  98.3184
 30.0196  9861.71  98.5492
 30.0616  9926.65  99.255
 30.1036  9671.12  97.7934
 30.1456  9646.44  97.9
 30.1876  9628.06  97.7909
 30.2296  9626.32  97.7245
 30.2716  9603.51  97.2469
 30.3136  9703.42  98.6145
 30.3556  9701.79  98.6274
 30.3976  9491.49  99.0549
 30.4396  9819.72  98.0734
 30.4816  9645.58  96.787
 30.5236  9583.16  96.494
 30.5656  9592.06  97.195
 30.6076  9597.48  96.6474
 30.6496  9567.62  96.885
 30.6916  9438.91  96.3207
 30.7336  9529.01  96.9363
 30.7756  9422.42  96.4851
 30.8176  9477.02  96.6788
 30.8596  9505.68  96.5943
 30.9016  9370.35  96.2444
 30.9436  9601.3  97.1752
 30.9856  9573.3  97.139
 31.0276  9487.05  96.3016
 31.0696  9371.21  96.2897
 31.1116  9355.11  96.1881
 31.1536  9565.55  97.1411
 31.1956  9514.3  96.974
 31.2376  9152.74  95.117
 31.2796  9434.33  96.1086
 31.3216  9498.22  96.3724
 31.3636  9329  96.2122
 31.4056  9384.82  97.813
 31.4476  9427.23  95.923
 31.4896  9327.18  95.9158
 31.5316  9551.91  96.4522
 31.5736  10235.1  99.6478
 31.6156  9747.22  97.2704
 31.6576  9706.52  97.1695
 31.6996  9614.94  96.3763
 31.7416  9607.39  97.4185
 31.7836  9561.55  96.1858
 31.8256  9283.73  95.0458
 31.8676  9416.81  95.7254
 31.9096  9137.72  94.65
 31.9516  9290.64  95.6015
 31.9936  9131.1  94.6003
 32.0356  9262.81  95.3475
 32.0776  9354.54  95.7018
 32.1196  9252.62  95.2731
 32.1616  9273.85  94.8305
 32.2036  9127.53  94.5965
 32.2456  9226.35  95.4895
 32.2876  9311.05  95.4166
 32.3296  9092.98  94.2589
 32.3716  9161.38  94.7105
 32.4136  9181.86  95.0256
 32.4556  9318.28  95.1057
 32.4976  9283.53  94.8222
 32.5396  9119.23  94.065
 32.5816  9029.96  93.7188
 32.6236  9083.73  94.0724
 32.6656  9152.44  94.9685
 32.7076  9017.48  93.923
 32.7496  9063.36  93.8293
 32.7916  9020.63  93.5662
 32.8336  9122.89  94.191
 32.8756  9104.07  93.8127
 32.9176  9096.2  94.2525
 32.9596  9060.53  94.1437
 33.0016  9058.42  93.9283
 33.0436  9141.2  94.5306
 33.0856  9055.97  94.1493
 33.1276  9089.89  94.0702
 33.1696  9114.97  94.0455
 33.2116  9139.52  94.3963
 33.2536  9073.68  94.0605
 33.2956  9009.31  93.8076
 33.3376  8966.74  93.3241
 33.3796  9099.39  94.2232
 33.4216  9049.54  93.5566
 33.4636  8907.91  92.9686
 33.5056  8820  92.7479
 33.5476  8893.59  93.1299
 33.5896  8966.02  93.2745
 33.6316  8778.47  92.6139
 33.6736  8857.47  93.2749
 33.7156  8884.62  93.4601
 33.7576  8922.49  93.2811
 33.7996  9108.01  94.0027
 33.8416  8776.66  92.4649
 33.8836  8947.39  93.1351
 33.9256  8843.27  92.6592
 33.9676  9005.79  93.4024
 34.0096  8659.94  91.9041
 34.0516  8692.71  91.7153
 34.0936  8772.31  92.3965
 34.1356  8831.48  92.4515
 34.1776  8788.93  92.2395
 34.2196  8695.67  91.9264
 34.2616  8756.05  92.3833
 34.3036  8654.14  92.0972
 34.3456  8785.96  92.5443
 34.3876  8624.15  91.6542
 34.4296  8734.49  91.9227
 34.4716  8852.92  92.698
 34.5136  8672.14  91.943
 34.5556  8634.78  92.0037
 34.5976  8770.11  92.5254
 34.6396  8712  91.9241
 34.6816  8747.74  92.2355
 34.7236  8730.95  91.9267
 34.7656  8710.14  92.0099
 34.8076  8629.69  91.9042
 34.8496  8675.91  92.0097
 34.8916  8668.29  91.8365
 34.9336  8765.28  92.3155
 34.9756  8604.13  91.3886
 35.0176  8758.88  92.738
 35.0596  8534.18  91.3692
 35.1016  8679.29  91.9102
 35.1436  8768.96  92.066
 35.1856  8494.19  90.7381
 35.2276  8589.49  91.4185
 35.2696  8567.54  91.4966
 35.3116  8621.28  91.8754
 35.3536  8556.38  91.2413
 35.3956  8553.8  90.9347
 35.4376  8580.48  91.637
 35.4796  8561.27  91.5944
 35.5216  8564.55  91.5637
 35.5636  8274.32  90.7409
 35.6056  8603  91.5294
 35.6476  8594.37  91.3824
 35.6896  8618.21  91.6052
 35.7316  8568.29  91.3061
 35.7736  8457.88  90.9155
 35.8156  8424.7  90.733
 35.8576  8462.77  91.1904
 35.8996  8606.56  91.9244
 35.9416  8735.17  92.095
 35.9836  8444.58  90.9146
 36.0256  8486.28  91.1603
 36.0676  8541.04  91.2046
 36.1096  8463.55  90.9307
 36.1516  8555.24  91.3109
 36.1936  8394.89  90.2953
 36.2356  8459.8  91.2865
 36.2776  8495.49  90.9597
 36.3196  8459.36  90.4372
 36.3616  8320.55  89.8213
 36.4036  8447.65  90.562
 36.4456  8454.86  90.8171
 36.4876  8305.93  89.949
 36.5296  8483.02  90.9418
 36.5716  8424.33  91.4169
 36.6136  8646.56  91.3436
 36.6556  8561.11  91.1094
 36.6976  8319.27  90.3136
 36.7396  8341.94  90.1699
 36.7816  8376.6  90.731
 36.8236  8429.53  90.9441
 36.8656  8218.11  89.8584
 36.9076  8370.02  90.5697
 36.9496  8325.39  90.3082
 36.9916  8297.86  89.7919
 37.0336  8482.41  91.0964
 37.0756  8394.67  90.4215
 37.1176  8141.82  89.3166
 37.1596  8338.01  90.3928
 37.2016  8290.33  90.3624
 37.2436  8495.51  90.7797
 37.2856  8253.74  89.7335
 37.3276  8377.16  89.7421
 37.3696  8210.89  89.7361
 37.4116  8430.24  90.8273
 37.4536  8118.29  89.0052
 37.4956  8247.86  89.7514
 37.5376  8245.46  91.3006
 37.5796  8222.33  91.1361
 37.6216  8004.3  88.1981
 37.6636  8042.86  88.3172
 37.7056  8226.45  89.5084
 37.7476  8189.85  88.8481
 37.7896  8110.23  88.9055
 37.8316  7944.04  88.1677
 37.8736  8074.81  88.4057
 37.9156  8136.76  88.7528
 37.9576  8058.46  88.2217
 37.9996  7969.45  87.4461
 38.0416  8085.62  88.8949
 38.0836  8214.47  89.5037
 38.1256  8126.01  88.98
 38.1676  8113.58  89.0456
 38.2096  8225.52  89.2842
 38.2516  8259.55  89.6665
 38.2936  8180.48  89.0418
 38.3356  8201.73  89.0711
 38.3776  8024.51  88.3715
 38.4196  8232.83  89.3629
 38.4616  8050.58  88.6029
 38.5036  8129.74  88.8883
 38.5456  8097.05  89.5535
 38.5876  8131.36  89.7752
 38.6296  8080.39  88.4638
 38.6716  8004.78  87.8425
 38.7136  8033.23  87.9413
 38.7556  7995.3  88.2357
 38.7976  8050.16  88.4803
 38.8396  7853.48  87.8425
 38.8816  7967.23  88.2511
 38.9236  7778.49  87.0124
 38.9656  7978.61  88.0393
 39.0076  8007.3  87.6057
 39.0496  7959.28  87.8873
 39.0916  7959.62  87.5328
 39.1336  7939.14  87.8333
 39.1756  7957.85  88.0037
 39.2176  7944.58  88.4594
 39.2596  8034.54  88.8826
 39.3016  7994.84  88.232
 39.3436  7952.72  88.4269
 39.3856  8056.13  88.444
 39.4276  8013.02  88.7081
 39.4696  7952.11  87.9913
 39.5116  7935.96  88.4174
 39.5536  8095.66  89.7258
 39.5956  8071.74  88.6855
 39.6376  8029.12  88.4497
 39.6796  8021.45  88.1537
 39.7216  8041.85  88.3623
 39.7636  8009.48  88.7549
 39.8056  8016.39  88.5743
 39.8476  7912.21  88.2521
 39.8896  8002.7  88.3827
 39.9316  7975.99  88.4886
 39.9736  8104.22  88.7636
 40.0156  7981.22  87.9097
 40.0576  8113.38  88.9995
 40.0996  8009.25  87.6086
 40.1416  8055.13  88.6566
 40.1836  8073.6  88.6439
 40.2256  8114.17  88.9134
 40.2676  7893.4  87.8011
 40.3096  8110.4  88.9115
 40.3516  8112.51  89.038
 40.3936  8153.71  88.8252
 40.4356  8063.35  88.5353
 40.4776  8090.15  89.0933
 40.5196  8124.92  89.4112
 40.5616  8039.27  88.5808
 40.6036  7986.21  88.5406
 40.6456  8071.41  88.6113
 40.6876  8177.92  89.1889
 40.7296  8133.05  89.0815
 40.7716  8120.21  89.1402
 40.8136  7993.72  88.3845
 40.8556  7991.66  88.5091
 40.8976  8100.17  89.0248
 40.9396  8015.66  88.917
 40.9816  8029.27  88.2721
 41.0236  8055.22  88.1892
 41.0656  8225.43  89.6697
 41.1076  8234.59  89.4803
 41.1496  8122.74  88.7844
 41.1916  7993.32  88.4006
 41.2336  8035.74  88.6173
 41.2756  8082.59  88.4775
 41.3176  7964.02  88.4476
 41.3596  8035.19  88.5705
 41.4016  8086.52  89.1061
 41.4436  8106  89.0012
 41.4856  8113.99  89.2111
 41.5276  7968.98  88.4284
 41.5696  8015.37  88.3192
 41.6116  7927.22  88.2274
 41.6536  7992.23  88.4438
 41.6956  8043.2  88.7862
 41.7376  8086.48  89.0458
 41.7796  7984.13  88.3631
 41.8216  8089.25  89.1827
 41.8636  8052.89  88.9204
 41.9056  7966.31  88.2288
 41.9476  7996.58  88.636
 41.9896  8025.45  88.4618
 42.0316  8038.85  88.6121
 42.0736  8002.02  88.5219
 42.1156  7968.71  88.174
 42.1576  8046.48  88.6987
 42.1996  7986.91  88.5157
 42.2416  8013.16  88.2421
 42.2836  7898.29  87.718
 42.3256  7921.82  87.9673
 42.3676  7988.36  88.1381
 42.4096  8084.86  88.6285
 42.4516  7956.37  88.01
 42.4936  7930.76  87.939
 42.5356  7836.76  87.5417
 42.5776  8026.23  88.5418
 42.6196  8032.66  88.6354
 42.6616  7889.7  88.0086
 42.7036  7943.1  87.6825
 42.7456  7862.19  87.5989
 42.7876  7925  88.04
 42.8296  7945.84  87.9897
 42.8716  7874.75  87.7619
 42.9136  7866.79  87.5032
 42.9556  7976.66  88.2495
 42.9976  7943.04  88.0261
 43.0396  7814.06  87.0358
 43.0816  7893.2  87.8532
 43.1236  7794.13  87.3641
 43.1656  7798.04  87.213
 43.2076  7863.63  87.681
 43.2496  7791.31  87.0943
 43.2916  7843.57  87.7552
 43.3336  7871.19  87.7461
 43.3756  7838.01  87.3182
 43.4176  7791.26  87.1366
 43.4596  7727.93  86.6359
 43.5016  7842.72  87.6855
 43.5436  7807.4  87.3836
 43.5856  7834.96  87.565
 43.6276  7764.36  87.0686
 43.6696  7680.6  86.8521
 43.7116  7898.97  87.5724
 43.7536  7826.77  87.6654
 43.7956  7679.2  88.0165
 43.8376  7850.12  87.5183
 43.8796  7686.97  86.6869
 43.9216  7796.32  87.2161
 43.9636  7696.93  86.7662
 44.0056  7715  87.1019
 44.0476  7597.89  86.0695
 44.0896  7590.58  86.3729
 44.1316  7643.09  86.1933
 44.1736  7655.81  86.3925
 44.2156  7763.55  86.8473
 44.2576  7707.4  86.8628
 44.2996  7669.6  86.6172
 44.3416  7644.86  86.2375
 44.3836  7490.14  85.6897
 44.4256  7586.44  85.8776
 44.4676  7578.34  85.992
 44.5096  7502.95  85.7057
 44.5516  7556.13  85.9785
 44.5936  7514.97  85.6932
 44.6356  7711.45  86.5407
 44.6776  7447.03  85.3604
 44.7196  7579.01  86.4183
 44.7616  7494.4  87.2683
 44.8036  7456.87  85.4728
 44.8456  7556.23  86.2465
 44.8876  7511.01  85.841
 44.9296  7618.16  85.9034
 44.9716  7448.15  85.3687
 45.0136  7510.49  85.6551
 45.0556  7536.01  85.7792
 45.0976  7598.04  86.2815
 45.1396  7496.8  85.4769
 45.1816  7449.5  85.1361
 45.2236  7589.33  85.8311
 45.2656  7290.35  84.6181
 45.3076  7552.11  85.9105
 45.3496  7405.07  85.3675
 45.3916  7477.32  86.0561
 45.4336  7433.41  85.6519
 45.4756  7425.46  85.45
 45.5176  7485.67  85.4216
 45.5596  7560.75  85.9689
 45.6016  7357.41  85.2223
 45.6436  7384.36  84.5631
 45.6856  7389.24  85.2421
 45.7276  7298.02  86.019
 45.7696  7368.45  86.1103
 45.8116  7496.22  86.2984
 45.8536  7336.07  85.2647
 45.8956  7450.43  85.2767
 45.9376  7411.04  84.5127
 45.9796  7376.72  84.9991
 46.0216  7449.77  85.7699
 46.0636  7550.51  85.4845
 46.1056  7452.15  84.9094
 46.1476  7505  85.8061
 46.1896  7358.99  85.1184
 46.2316  7268.95  84.4649
 46.2736  7325.41  85.1592
 46.3156  7418.3  85.2827
 46.3576  7429.01  85.5466
 46.3996  7259.07  84.7223
 46.4416  7387.68  85.0483
 46.4836  7274.26  84.7438
 46.5256  7435.95  85.619
 46.5676  7300.71  84.9505
 46.6096  7318.9  84.9844
 46.6516  7372.99  84.3474
 46.6936  7345.22  84.6793
 46.7356  7422.71  85.221
 46.7776  7220.52  84.8911
 46.8196  7258.35  84.7161
 46.8616  7149.87  84.0176
 46.9036  7167.25  83.7894
 46.9456  7193.03  83.5733
 46.9876  7152.52  83.4218
 47.0296  7242.81  84.6326
 47.0716  7171.17  84.04
 47.1136  7283.72  84.3733
 47.1556  7097.99  83.1586
 47.1976  7234.22  84.0387
 47.2396  7233.27  84.4268
 47.2816  7170.97  83.7676
 47.3236  7105  83.7356
 47.3656  7218.97  84.3476
 47.4076  7145.28  83.7112
 47.4496  7126.54  83.6984
 47.4916  7130.98  83.9088
 47.5336  7187.4  84.0668
 47.5756  7268.18  84.6582
 47.6176  7063.69  83.3516
 47.6596  7132.15  83.4671
 47.7016  7175.95  83.5481
 47.7436  7149.76  83.7323
 47.7856  7196.36  84.0209
 47.8276  7101.19  83.5168
 47.8696  7197.39  84.1681
 47.9116  7087.26  83.2343
 47.9536  7091.19  83.1983
 47.9956  7005.34  83.3952
 48.0376  6979.95  83.0195
 48.0796  7207.05  84.4907
 48.1216  7150.01  83.9758
 48.1636  7266.9  84.2354
 48.2056  7049.19  83.2229
 48.2476  7198.56  84.4068
 48.2896  7076.24  83.5982
 48.3316  7061.46  83.4404
 48.3736  6917.34  82.6232
 48.4156  6942.92  82.6228
 48.4576  6972.03  83.085
 48.4996  7142.85  83.5599
 48.5416  7126.77  83.7907
 48.5836  7051.26  83.0221
 48.6256  7103.93  83.5322
 48.6676  7128.07  84.1846
 48.7096  7062.22  83.07
 48.7516  7058.66  83.2055
 48.7936  6904.63  82.3511
 48.8356  7006.19  83.0051
 48.8776  7083.2  84.0366
 48.9196  7176.74  83.9511
 48.9616  6975.48  83.1465
 49.0036  7105.01  84.2583
 49.0456  6900.07  83.0184
 49.0876  7047.01  83.4248
 49.1296  6898.55  82.7096
 49.1716  6954.06  82.9116
 49.2136  7012.47  83.1828
 49.2556  6971.18  82.9729
 49.2976  7028.98  83.3849
 49.3396  6940.43  82.9141
 49.3816  7041.65  82.9513
 49.4236  7004.72  83.153
 49.4656  6893.79  82.5087
 49.5076  6932.11  82.4909
 49.5496  6900.04  82.3624
 49.5916  7050.25  83.1692
 49.6336  6940.07  82.7135
 49.6756  7018.09  83.4212
 49.7176  6936.21  82.8705
 49.7596  6928.94  82.5975
 49.8016  6889.99  82.2842
 49.8436  6929.82  82.8102
 49.8856  6917.75  82.7419
 49.9276  6870.87  82.5716
 49.9696  6869.09  82.5434
 50.0116  6891.61  82.7899
 50.0536  6846.83  82.4879
 50.0956  6775.74  82.1273
 50.1376  6859.23  82.3291
 50.1796  6769.03  82.0561
 50.2216  6852.12  82.5459
 50.2636  6849.07  82.1531
 50.3056  6798.91  82.0223
 50.3476  6801.61  82.0632
 50.3896  6892.93  82.5825
 50.4316  6829.62  82.0402
 50.4736  6743.61  81.739
 50.5156  6818.37  82.175
 50.5576  6852.44  82.1486
 50.5996  6735.54  81.7186
 50.6416  6765.64  81.8321
 50.6836  6753.67  81.8209
 50.7256  6755.92  81.7605
 50.7676  6803.25  82.3629
 50.8096  6789.56  81.817
 50.8516  6747.16  81.9755
 50.8936  6666.82  81.262
 50.9356  6803.15  82.1968
 50.9776  6793.37  82.2903
 51.0196  6564.71  81.0183
 51.0616  6670.67  81.0018
 51.1036  6706.14  81.567
 51.1456  6735.05  81.6598
 51.1876  6808.76  81.4488
 51.2296  6657.55  81.1676
 51.2716  6638.51  80.7457
 51.3136  6587.56  80.8942
 51.3556  6660.84  80.9729
 51.3976  6694.67  81.3293
 51.4396  6582.42  80.9327
 51.4816  6620.94  81.0387
 51.5236  6612.56  81.0717
 51.5656  6692.99  81.1698
 51.6076  6667.37  81.0924
 51.6496  6706.95  81.5224
 51.6916  6547.24  80.8964
 51.7336  6683.44  81.8272
 51.7756  6615.54  81.107
 51.8176  6618.66  81.2373
 51.8596  6613.58  81.2219
 51.9016  6713.24  81.4354
 51.9436  6554.74  81.9086
 51.9856  6501.77  82.0075
 52.0276  6682.99  81.6576
 52.0696  6609.38  81.2751
 52.1116  6567.22  81.1236
 52.1536  6544.05  80.8741
 52.1956  6626.41  80.83
 52.2376  6758.7  81.8215
 52.2796  6629.68  80.8512
 52.3216  6429.48  80.2997
 52.3636  6594.78  80.9043
 52.4056  6591.83  80.7415
 52.4476  6614.73  81.2496
 52.4896  6487.55  80.5172
 52.5316  6508.28  80.6946
 52.5736  6573.56  80.8189
 52.6156  6450.56  80.4261
 52.6576  6600.17  80.8069
 52.6996  6376.79  80.3856
 52.7416  6449.87  80.6973
 52.7836  6509.91  80.9534
 52.8256  6526.74  80.2822
 52.8676  6249.54  79.1274
 52.9096  6538.46  81.0213
 52.9516  6471.9  80.983
 52.9936  6424.73  81.0725
 53.0356  6402.6  79.9492
 53.0776  6319.33  79.6833
 53.1196  6293.64  79.6475
 53.1616  6292.51  79.6851
 53.2036  6272.74  79.5151
 53.2456  6284.27  79.6875
 53.2876  6394.96  80.0965
 53.3296  6402.98  80.4709
 53.3716  6419.36  80.3188
 53.4136  6505.99  81.0107
 53.4556  6389.72  80.3152
 53.4976  6242.83  79.2336
 53.5396  6268.68  79.7867
 53.5816  6388.22  80.1793
 53.6236  6188.99  79.2541
 53.6656  6410.06  80.2843
 53.7076  6443.47  80.4514
 53.7496  6364.88  80.085
 53.7916  6458.29  80.7957
 53.8336  6273.88  79.5354
 53.8756  6177.26  79.4587
 53.9176  6266.81  79.3852
 53.9596  6353.6  80.6892
 54.0016  6253.21  79.3922
 54.0436  6337.21  80.1365
 54.0856  6413.87  80.0477
 54.1276  6366.94  79.9524
 54.1696  6394.21  80.2979
 54.2116  6355.06  79.8078
 54.2536  6339.96  79.5292
 54.2956  6368.52  79.7508
 54.3376  6299.64  79.8032
 54.3796  6350.19  80.0214
 54.4216  6481.11  80.8881
 54.4636  6337.74  79.949
 54.5056  6326.18  79.6975
 54.5476  6343.41  80.1411
 54.5896  6312.1  79.7696
 54.6316  6373.35  80.0175
 54.6736  6397.55  80.2384
 54.7156  6294.76  79.6157
 54.7576  6208.09  79.0657
 54.7996  6352.58  80.1163
 54.8416  6273.17  79.6602
 54.8836  6098.44  78.6604
 54.9256  6230.61  79.2552
 54.9676  6296.31  79.5273
 55.0096  6262.72  79.3825
 55.0516  6281.55  79.7371
 55.0936  6280.4  79.3622
 55.1356  6282.47  79.4215
 55.1776  6217.37  79.2712
 55.2196  6318.81  79.6988
 55.2616  6301.65  79.8023
 55.3036  6164.11  79.0849
 55.3456  6279.93  79.9731
 55.3876  6189.98  79.1424
 55.4296  6281.9  79.7081
 55.4716  6315.01  79.9536
 55.5136  6226.39  79.1495
 55.5556  6245.18  79.3383
 55.5976  6263.01  79.5051
 55.6396  6255.54  79.4071
 55.6816  6277.73  79.4244
 55.7236  6344.35  79.8802
 55.7656  6330.46  79.5568
 55.8076  6340.77  79.6045
 55.8496  6161.55  78.7888
 55.8916  6207.35  79.2883
 55.9336  6284.61  79.5909
 55.9756  6249.19  79.26
 56.0176  6210.5  79.1643
 56.0596  6211.96  79.1574
 56.1016  6224.56  79.2401
 56.1436  6113.51  78.7969
 56.1856  6261.37  79.4877
 56.2276  6183.34  79.0496
 56.2696  6115.37  78.5842
 56.3116  6117.79  79.0018
 56.3536  6278.43  79.6836
 56.3956  6159.64  78.9183
 56.4376  6235.42  79.4372
 56.4796  6241.54  79.2742
 56.5216  6179.25  79.2541
 56.5636  6204.45  79.0056
 56.6056  6170.72  79.0214
 56.6476  6234.22  79.0542
 56.6896  6218.87  79.4065
 56.7316  6169.71  79.0028
 56.7736  6255.5  79.5424
 56.8156  6224.25  79.3492
 56.8576  6118.59  78.6118
 56.8996  6266.11  79.4893
 56.9416  6239.33  79.624
 56.9836  6086.69  78.1525
 57.0256  6177.54  79.0623
 57.0676  6169.92  79.1358
 57.1096  6188.98  79.0459
 57.1516  6256.51  79.5393
 57.1936  6180.62  78.8024
 57.2356  6248.31  79.5538
 57.2776  6189.51  79.1385
 57.3196  6222.4  79.7196
 57.3616  6111.38  78.4983
 57.4036  6264.34  79.5374
 57.4456  6223.9  79.248
 57.4876  6120.39  78.4444
 57.5296  6091.54  78.5938
 57.5716  6156.56  79.0034
 57.6136  6176.01  78.9471
 57.6556  6167.51  79.0291
 57.6976  6258.35  79.4373
 57.7396  6114.19  78.8876
 57.7816  6050.62  78.8316
 57.8236  6125.14  79.1082
 57.8656  6159.57  78.9875
 57.9076  6134.9  78.8542
 57.9496  6179.67  79.5004
 57.9916  6105.8  78.5356
 58.0336  6174.27  79.2451
 58.0756  6155.06  78.7696
 58.1176  6223.29  79.1906
 58.1596  6099.72  78.966
 58.2016  6296.45  79.4374
 58.2436  6087.77  78.5294
 58.2856  6217.71  79.2773
 58.3276  6102.79  78.9155
 58.3696  6134.63  78.8733
 58.4116  6234.01  79.3733
 58.4536  6216.58  79.1492
 58.4956  6031.56  78.1356
 58.5376  6290.3  79.3603
 58.5796  6194.24  79.1775
 58.6216  6159.87  78.7786
 58.6636  6181.04  79.1191
 58.7056  6242.94  79.3766
 58.7476  6162.9  79.3149
 58.7896  6121.06  78.6858
 58.8316  6127.43  78.7263
 58.8736  6140.63  78.8172
 58.9156  6073.02  78.4304
 58.9576  6193.51  79.5228
 58.9996  6338.77  79.6745
 59.0416  6330.79  79.9879
 59.0836  6200.89  79.0909
 59.1256  6055.05  78.8648
 59.1676  6105.62  79.4928
 59.2096  6263.7  79.8144
 59.2516  6367.94  80.0457
 59.2936  6105.9  78.7113
 59.3356  6137.86  78.7938
 59.3776  6189.12  79.2931
 59.4196  6227.34  79.4724
 59.4616  6143.37  78.7938
 59.5036  5992.94  77.8567
 59.5456  6396.34  80.1206
 59.5876  6288.77  79.6389
 59.6296  6183.67  79.0407
 59.6716  6151.79  78.8952
 59.7136  6227.73  79.3687
 59.7556  6155.83  79.047
 59.7976  6193.6  79.028
 59.8396  6124.96  78.4824
 59.8816  6182.61  79.403
 59.9236  6336.64  80.0207
 59.9656  6034.79  78.3501
 60.0076  6123.44  78.2785
 60.0496  6209.95  79.3389
 60.0916  6296.84  79.2994
 60.1336  6270.87  80.2639
 60.1756  6152.59  80.6984
 60.1996  0.0000000E+00  0.0000000E+00