File: docs/examples/opeando_xrd/IS17_D/Data/IS17_D/17_Db_f00134.xye
# /beamlines/bl04/projects/cycle2025-II/20250340211-lsimonelli/DATA/IS17_D/17_Db_f00134.xye : mythproc.py merge -s 0.006 -l 0.5 -f /beamlines/bl04/inhouse/ff/FlatField/ff_20Nov2024rod8mm60s_17keV.raw -b True -c true -o xye /beamlines/bl04/projects/cycle2025-II/20250340211-lsimonelli/DATA/IS17_D/17_Db_00134.dat
# IsMon = [6771036, 6775393, 6776536]  IsPos = [-1.4999, -2.4884, -3.4988]
# Wave = 0.4962  CalPath /beamlines/bl04/projects/cycle2025-II/20250340211-lsimonelli/DATA/Align/Si_Pos1_25keV_f00001.cal
# Date = 2025-09-25_07:02:29 Dt = 4.8000  Bin = 0.0060  <imon> = 6774322 +/- 2370 (Min/Max) 6771036 / 6776536
# icurr 252.0047  mocoIn 1.7197E-05  mocoOut 0.8071  i15 7.09679e+06  imon 6.77432e+06  i7 6.0000  iEMpd_timer 4.8000  iEMpd_1 3.5885E-08  iEMpd_2 7.8415E-08  iEMpd_3 1.8096E-08  iEMpd_4 4.9523E-08  iEMhp_timer 4.8000  iEMhp_1 4.9237E-06  iEMhp_2 -2.5943E-08  iEMhp_3 -2.5385E-08  iEMhp_4 -2.2516E-08
#      9776
 1.5856  45002.7  217.885
 1.6276  51412.9  228.89
 1.6696  56730.6  239.589
 1.7116  63447.5  253.871
 1.7536  71911.5  269.123
 1.7956  75299.7  276.078
 1.8376  72665.9  271.637
 1.8796  62486.8  250.04
 1.9216  52081.7  229.185
 1.9636  44618.7  211.261
 2.0056  40408.4  200.267
 2.0476  37805  195.832
 2.0896  36276.5  190.707
 2.1316  35163.1  186.855
 2.1736  33714.7  184.418
 2.2156  34302.8  184.526
 2.2576  33227.4  182.263
 2.2996  31728.3  178.757
 2.3416  31844.5  177.655
 2.3836  31238.9  176.066
 2.4256  30615.4  174.868
 2.4676  29769.7  172.191
 2.5096  29938  172.734
 2.5516  30997.8  179.727
 2.5936  63596.5  252.307
 2.6356  29034.9  171.213
 2.6776  27844.7  166.565
 2.7196  27435.5  165.827
 2.7616  27332.8  165.299
 2.8036  26737.4  163.659
 2.8456  26886.2  164.755
 2.8876  26034.4  161.981
 2.9296  25903.9  161.703
 2.9716  25622.3  160.321
 3.0136  25095.1  158.722
 3.0556  25404  160.094
 3.0976  25553.6  159.466
 3.1396  25169.2  158.99
 3.1816  24860.2  157.954
 3.2236  24450.8  156.643
 3.2656  24165.7  154.765
 3.3076  24383.5  156.942
 3.3496  24426.1  155.991
 3.3916  24936.9  157.447
 3.4336  25013.3  158.274
 3.4756  25613.6  160.107
 3.5176  26445.1  162.436
 3.5596  26107.1  163.847
 3.6016  26175.5  161.67
 3.6436  25336.1  160.162
 3.6856  24876  157.01
 3.7276  24068.6  155.517
 3.7696  23788.6  154.8
 3.8116  23322  153.17
 3.8536  23673.6  154.257
 3.8956  23610  153.862
 3.9376  23904.6  155.095
 3.9796  23278.6  152.535
 4.0216  23620  152.68
 4.0636  23450.7  153.61
 4.1056  23311.3  152.806
 4.1476  23670  154.3
 4.1896  23699.9  154.245
 4.2316  23921.6  154.795
 4.2736  24457.3  156.31
 4.3156  24466.5  156.565
 4.3576  25100  158.479
 4.3996  25389.5  159.673
 4.4416  26094.3  161.462
 4.4836  26712.5  163.522
 4.5256  27182.8  165.577
 4.5676  26868.1  164.86
 4.6096  27468.3  165.348
 4.6516  27676.9  165.66
 4.6936  27781.1  166.805
 4.7356  28366.8  168.378
 4.7776  27818.3  166.567
 4.8196  27748  167.022
 4.8616  27111  164.575
 4.9036  27023.3  164.047
 4.9456  26739.3  163.831
 4.9876  26313.6  162.424
 5.0296  26447  162.673
 5.0716  26113.2  162.385
 5.1136  26662.6  163.81
 5.1556  26713.2  163.417
 5.1976  29813.1  172.626
 5.2396  27241.2  164.715
 5.2816  27399.2  165.679
 5.3236  27318.2  165.116
 5.3656  26681.2  164.109
 5.4076  26539.1  163.807
 5.4496  26670.3  163.701
 5.4916  26870.3  164.074
 5.5336  26634  163.357
 5.5756  26793.6  163.879
 5.6176  26895.7  163.615
 5.6596  27232.5  165.641
 5.7016  27063.3  164.376
 5.7436  27243  165.2
 5.7856  27244.3  165.269
 5.8276  27460.9  165.632
 5.8696  28047.8  167.575
 5.9116  27666.2  167.032
 5.9536  28041.4  167.907
 5.9956  28425.7  168.431
 6.0376  28044.9  167.923
 6.0796  28386.5  168.77
 6.1216  28329.9  168.799
 6.1636  28613.1  168.701
 6.2056  28471.4  168.949
 6.2476  28577.4  169.142
 6.2896  29024  170.138
 6.3316  29121.7  170.604
 6.3736  29018.9  170.191
 6.4156  29182.3  170.561
 6.4576  29082.3  169.883
 6.4996  29028.2  170.188
 6.5416  29423.2  171.479
 6.5836  29368.3  171.555
 6.6256  29424.9  171.287
 6.6676  30216.8  173.136
 6.7096  30052.5  173.536
 6.7516  30341.4  174.02
 6.7936  30761  174.623
 6.8356  31102.7  175.681
 6.8776  30960  176.078
 6.9196  30847.7  176.166
 6.9616  31252.6  176.755
 7.0036  31807.7  177.969
 7.0456  31640.1  176.803
 7.0876  31530.9  178.185
 7.1296  31748.2  177.924
 7.1716  31716.2  177.377
 7.2136  31458.1  176.428
 7.2556  31623.8  177.055
 7.2976  31658.6  177.645
 7.3396  31521.5  177.484
 7.3816  31539.3  177.743
 7.4236  32024.1  178.403
 7.4656  32161.4  178.243
 7.5076  32230.3  178.576
 7.5496  32011.3  178.51
 7.5916  32394.6  179.617
 7.6336  32914.4  180.949
 7.6756  33015.7  181.074
 7.7176  33407.4  182.476
 7.7596  33181.4  183.087
 7.8016  35494.9  191.681
 7.8436  33514.2  182.858
 7.8856  33616.1  182.75
 7.9276  34203.4  184.736
 7.9696  34436.2  185.679
 8.0116  35213  186.308
 8.0536  35504.1  187.329
 8.0956  36218.7  190.392
 8.1376  36043.9  189.401
 8.1796  36143  190.196
 8.2216  37230.1  191.776
 8.2636  37518.9  192.769
 8.3056  37018.2  192.245
 8.3476  38238.1  194.705
 8.3896  37664.5  193.319
 8.4316  37849.9  193.967
 8.4736  37789.4  193.28
 8.5156  37251.1  192.175
 8.5576  37194.2  193
 8.5996  36984.7  191.331
 8.6416  37071.8  192.821
 8.6836  36679.1  191.626
 8.7256  37615.6  193.506
 8.7676  38213.1  198.019
 8.8096  38700  196.524
 8.8516  37647.1  193.394
 8.8936  37963.6  194.165
 8.9356  37376.8  193
 8.9776  37426.9  193.204
 9.0196  37413.2  192.844
 9.0616  37236.9  191.876
 9.1036  37752.4  194.394
 9.1456  36291.2  189.908
 9.1876  36594.1  190.654
 9.2296  36183.1  189.009
 9.2716  36213.9  189.136
 9.3136  36312.1  189.39
 9.3556  36677.6  190.313
 9.3976  35297.2  187.235
 9.4396  35297.6  187.121
 9.4816  35291.7  186.971
 9.5236  35191.8  186.599
 9.5656  34513  185.14
 9.6076  33925.4  184.084
 9.6496  34161.7  184.605
 9.6916  33789.1  183.547
 9.7336  34704.2  185.806
 9.7756  33931.9  184.997
 9.8176  33816.7  184.201
 9.8596  33642  182.151
 9.9016  33336.6  181.319
 9.9436  33228.2  180.939
 9.9856  33077.3  180.802
 10.0276  32380.7  179.973
 10.0696  32645.3  179.732
 10.1116  31812  177.688
 10.1536  31513.1  177.007
 10.1956  31063.6  175.353
 10.2376  31286.4  175.492
 10.2796  31007.9  174.806
 10.3216  30656.3  174.108
 10.3636  30582.6  173.917
 10.4056  31218.6  176.132
 10.4476  31688.9  177.057
 10.4896  33377.6  181.129
 10.5316  31737.2  177.374
 10.5736  29856.5  172.461
 10.6156  29836.8  172.16
 10.6576  32552.7  178.24
 10.6996  29515.1  170.484
 10.7416  28657.3  168.207
 10.7836  28858.3  169.464
 10.8256  28004.4  167.37
 10.8676  28105.9  167.204
 10.9096  28080  167.166
 10.9516  27485.6  164.315
 10.9936  28005  166.083
 11.0356  27855.4  166.262
 11.0776  28234.4  166.699
 11.1196  27916.3  166.544
 11.1616  26830.7  162.936
 11.2036  27565.3  164.996
 11.2456  28062.1  167.21
 11.2876  27137.8  164.168
 11.3296  26867.3  163.251
 11.3716  27498.5  164.832
 11.4136  27378.6  165.381
 11.4556  27699.2  165.997
 11.4976  28210.4  166.475
 11.5396  27690.8  165.106
 11.5816  26617.9  162.323
 11.6236  26170.4  161.177
 11.6656  26360  160.917
 11.7076  25590.9  159.384
 11.7496  25673.1  163.69
 11.7916  25956.7  159.756
 11.8336  25082.8  157.939
 11.8756  25175.8  157.779
 11.9176  25116.4  157.265
 11.9596  25099.4  157.393
 12.0016  24773.9  157.133
 12.0436  24847.2  156.824
 12.0856  24431.9  156.004
 12.1276  24479.4  156.105
 12.1696  24655.4  155.772
 12.2116  24586.6  155.55
 12.2536  25323.7  158.685
 12.2956  24386.1  155.067
 12.3376  24623.9  156.051
 12.3796  24487.4  156.098
 12.4216  24430.5  155.105
 12.4636  24509.1  156.304
 12.5056  24167.8  154.471
 12.5476  24215.6  154.136
 12.5896  23864.8  153.649
 12.6316  24221.2  154.961
 12.6736  24002.7  154.747
 12.7156  24358.7  155.73
 12.7576  24267.4  155.698
 12.7996  24139.4  153.904
 12.8416  24299.2  155.477
 12.8836  24510  155.983
 12.9256  24724.5  155.696
 12.9676  24599.1  155.693
 13.0096  24636.2  156.947
 13.0516  24648.9  156.001
 13.0936  24707.1  156.612
 13.1356  24813  155.893
 13.1776  24614.3  156.292
 13.2196  24747  156.347
 13.2616  24332.6  155.348
 13.3036  24493.4  155.823
 13.3456  24305.6  155.564
 13.3876  24900.8  156.743
 13.4296  24492.9  155.624
 13.4716  24790.7  156.183
 13.5136  24738.3  156.141
 13.5556  24661  156.539
 13.5976  24572.4  156.431
 13.6396  24814.3  156.543
 13.6816  24866.7  157.183
 13.7236  25291.9  158.109
 13.7656  26767.1  163.119
 13.8076  27565.3  164.131
 13.8496  27023.5  163.217
 13.8916  25023.8  158.213
 13.9336  24327  155.244
 13.9756  24128.4  153.989
 14.0176  24049  154.425
 14.0596  24222  154.908
 14.1016  24035.7  154.746
 14.1436  24052.1  153.932
 14.1856  23251.2  151.626
 14.2276  23620.6  153.323
 14.2696  23588.6  153.063
 14.3116  22898.4  150.709
 14.3536  22555.7  149.747
 14.3956  22546.2  149.435
 14.4376  22701.5  149.743
 14.4796  22658.8  149.6
 14.5216  22302.8  149.208
 14.5636  22119.9  148.167
 14.6056  22362.8  148.531
 14.6476  21941.7  146.375
 14.6896  21874.9  146.702
 14.7316  21371.3  146.034
 14.7736  21236.2  144.71
 14.8156  21232.2  144.711
 14.8576  21137.3  144.25
 14.8996  20747.5  144.116
 14.9416  20370.1  142.814
 14.9836  20316.7  142.605
 15.0256  19853  139.874
 15.0676  19774.6  139.907
 15.1096  19783.4  139.678
 15.1516  19348  138.688
 15.1936  19302.1  137.952
 15.2356  19018.5  137.211
 15.2776  19107.1  137.122
 15.3196  18689.4  136.599
 15.3616  18648.4  136.208
 15.4036  18430.8  135.268
 15.4456  18955.3  136.832
 15.4876  18387.9  134.458
 15.5296  18395.3  134.771
 15.5716  18134.2  133.414
 15.6136  18171.9  133.88
 15.6556  18526.3  134.414
 15.6976  18161.6  133.383
 15.7396  17759.4  132.277
 15.7816  17821.7  132.029
 15.8236  17559.7  131.738
 15.8656  17720.6  132.137
 15.9076  17557.5  131.341
 15.9496  18251.4  136.789
 15.9916  17780.2  135.41
 16.0336  17977.3  133.014
 16.0756  17658.2  132.145
 16.1176  17459  131.468
 16.1596  17097  131.279
 16.2016  17133.8  130.172
 16.2436  17102.1  130.432
 16.2856  16898.5  129.17
 16.3276  16582.9  128.404
 16.3696  16878.9  129.364
 16.4116  16724.2  129.213
 16.4536  16961.2  129.938
 16.4956  17326.4  131.065
 16.5376  16821.4  129.326
 16.5796  16664.1  128.076
 16.6216  16768.3  128.738
 16.6636  16514.5  127.956
 16.7056  16778  128.835
 16.7476  16873.6  128.727
 16.7896  16639.6  128.573
 16.8316  16659.9  128.64
 16.8736  16763.5  129.298
 16.9156  16615.2  129.05
 16.9576  16432.4  129.133
 16.9996  16374.5  129.378
 17.0416  16411.3  127.903
 17.0836  16447.8  127.812
 17.1256  16174.7  126.75
 17.1676  16319  127.269
 17.2096  16298.8  127.095
 17.2516  16201  126.499
 17.2936  15984.1  126.002
 17.3356  15840.9  125.421
 17.3776  15647.5  124.843
 17.4196  15689  124.696
 17.4616  15820.5  125.13
 17.5036  15655.2  124.845
 17.5456  15178.4  123.566
 17.5876  15324.2  123.202
 17.6296  15504.3  123.754
 17.6716  15423.3  124.012
 17.7136  15724.6  125.357
 17.7556  15292  123.913
 17.7976  15428.2  124.173
 17.8396  15193.3  122.735
 17.8816  15097  122.912
 17.9236  14980.4  122.221
 17.9656  15010.9  122.872
 18.0076  15187.5  123.185
 18.0496  15319.6  122.835
 18.0916  16904.2  129.619
 18.1336  16343.7  127.556
 18.1756  15468.1  123.632
 18.2176  15256.8  122.999
 18.2596  14839.2  121.023
 18.3016  15086  122.298
 18.3436  15338.2  123.315
 18.3856  15066.7  122.362
 18.4276  14924  121.451
 18.4696  15025.8  121.957
 18.5116  14806.4  121.342
 18.5536  14747.4  121.456
 18.5956  14626.1  120.525
 18.6376  14545.1  120.59
 18.6796  14654.4  120.349
 18.7216  14646.5  120.818
 18.7636  14509.6  120.259
 18.8056  14272.6  119.192
 18.8476  14158.1  119.337
 18.8896  14270.8  119.143
 18.9316  14379.3  119.577
 18.9736  14265.1  118.803
 19.0156  14256.7  119.188
 19.0576  14562.6  119.299
 19.0996  14409.1  119.39
 19.1416  14365.1  119.609
 19.1836  14209.8  118.557
 19.2256  14108.3  118.355
 19.2676  14282.1  119.159
 19.3096  14187.7  119.015
 19.3516  14125.8  118.716
 19.3936  14149  118.706
 19.4356  14338.7  119.389
 19.4776  14113.2  118.534
 19.5196  14108.1  118.363
 19.5616  14124.3  118.692
 19.6036  13996.5  117.644
 19.6456  14089.5  118.15
 19.6876  14279.2  118.573
 19.7296  14339  119.304
 19.7716  14227.4  119.004
 19.8136  14566.6  120.625
 19.8556  14844.5  121.232
 19.8976  14941.4  121.684
 19.9396  14819  120.769
 19.9816  14787.7  120.89
 20.0236  14608.1  120.337
 20.0656  14194.2  118.631
 20.1076  14158.7  118.966
 20.1496  13821.3  117.539
 20.1916  13955.3  117.628
 20.2336  13856.9  117.136
 20.2756  13666.4  116.756
 20.3176  13507.6  115.819
 20.3596  13416.4  115.412
 20.4016  13533.3  115.706
 20.4436  13466.3  115.98
 20.4856  13528.4  116.056
 20.5276  13403.6  115.976
 20.5696  13518.3  115.92
 20.6116  13217.4  114.895
 20.6536  13220.8  114.426
 20.6956  13192.1  114.432
 20.7376  13176.7  114.574
 20.7796  13283.8  114.734
 20.8216  13299.7  114.516
 20.8636  13461  115.589
 20.9056  13628.7  116.24
 20.9476  13320.8  114.772
 20.9896  13652.7  116.049
 21.0316  13300.2  114.436
 21.0736  13382.6  115.316
 21.1156  13366.5  115.407
 21.1576  13303.2  115.162
 21.1996  13196.6  114.701
 21.2416  13113.7  114.166
 21.2836  13087.2  114.016
 21.3256  13131.8  114.301
 21.3676  13186.7  114.071
 21.4096  13193.9  114.421
 21.4516  12959.2  113.273
 21.4936  12804.2  112.851
 21.5356  13120.6  114.188
 21.5776  13047  113.701
 21.6196  12901.4  113.104
 21.6616  12940  113.354
 21.7036  12894.2  112.92
 21.7456  12893.3  112.988
 21.7876  12780.6  112.264
 21.8296  12819.3  112.278
 21.8716  12799.8  112.423
 21.9136  12996  113.484
 21.9556  12960.1  113.002
 21.9976  12690.4  111.845
 22.0396  12754.3  112.383
 22.0816  12856.6  113.366
 22.1236  12950.2  113.225
 22.1656  12755.4  112.515
 22.2076  12572.5  111.157
 22.2496  12468.6  110.725
 22.2916  12454.7  110.541
 22.3336  12556.9  111.72
 22.3756  12419.1  110.829
 22.4176  12445  110.793
 22.4596  12279.2  110.641
 22.5016  12515.7  111.206
 22.5436  12541.8  111.196
 22.5856  12712.5  112.199
 22.6276  12735.3  112.431
 22.6696  12412.2  111.355
 22.7116  12420.9  110.902
 22.7536  12452.3  111.021
 22.7956  12541.3  110.751
 22.8376  12234.2  109.9
 22.8796  12358.9  110.261
 22.9216  12491.9  111.396
 22.9636  12478.2  110.492
 23.0056  12449.2  110.494
 23.0476  12593  111.707
 23.0896  12819.4  112.078
 23.1316  12645.1  111.751
 23.1736  12588.4  114.453
 23.2156  12654.7  112.132
 23.2576  12806  112.943
 23.2996  12656.4  112.047
 23.3416  12709.3  112.825
 23.3836  12757.3  112.25
 23.4256  12987.6  113.39
 23.4676  12693  111.786
 23.5096  12748.4  112.693
 23.5516  12745.2  111.975
 23.5936  12784.8  113.059
 23.6356  13007.2  113.703
 23.6776  12725.3  112.669
 23.7196  12508.3  111.279
 23.7616  12757.2  112.299
 23.8036  12755.9  112.361
 23.8456  12460.1  110.593
 23.8876  12557.4  111.394
 23.9296  12536.2  111.786
 23.9716  12434.7  110.534
 24.0136  12564.9  112.021
 24.0556  12308.3  110.587
 24.0976  12263.9  110.205
 24.1396  12129.3  112.195
 24.1816  12361.5  111.683
 24.2236  12329.8  111.168
 24.2656  12278  110.401
 24.3076  12357.3  111.034
 24.3496  12309.4  110.693
 24.3916  12125.9  109.921
 24.4336  12210.8  110.504
 24.4756  12191.5  110.306
 24.5176  11944.4  108.816
 24.5596  11849.7  108.487
 24.6016  11862.1  108.843
 24.6436  12000.1  108.994
 24.6856  11899.4  108.272
 24.7276  11824.9  108.256
 24.7696  11851.8  108.493
 24.8116  11766.1  108.276
 24.8536  11678.5  107.879
 24.8956  11801  108.168
 24.9376  11874.5  108.428
 24.9796  11705.2  108.028
 25.0216  11676.4  108.01
 25.0636  11756.9  108.032
 25.1056  11442.2  107.273
 25.1476  11358.2  108.492
 25.1896  11394.7  107.182
 25.2316  11359.3  106.294
 25.2736  11263.1  105.492
 25.3156  11299.4  105.739
 25.3576  11290.1  106.128
 25.3996  11225.6  105.815
 25.4416  11306.6  106.166
 25.4836  11113.6  105.772
 25.5256  11179.6  105.45
 25.5676  11162.6  105.095
 25.6096  10947.4  104.656
 25.6516  11151.3  105.129
 25.6936  11307.9  106.184
 25.7356  11092.9  105.305
 25.7776  11199.4  105.405
 25.8196  11093.2  105.142
 25.8616  11137.9  105.28
 25.9036  11217  105.108
 25.9456  11065  104.995
 25.9876  10836.7  103.971
 26.0296  11118.1  104.821
 26.0716  11115.1  105.245
 26.1136  11251.8  105.815
 26.1556  11166.2  104.785
 26.1976  10878.1  104.362
 26.2396  11047.7  104.316
 26.2816  10966.7  104.545
 26.3236  10980.5  104.76
 26.3656  11118.8  105.15
 26.4076  10915  104.378
 26.4496  11075.8  104.737
 26.4916  11228.9  105.351
 26.5336  11319.6  106.115
 26.5756  11733.2  107.919
 26.6176  11071.7  104.848
 26.6596  10882.8  104.255
 26.7016  10849.2  103.869
 26.7436  11027.4  104.857
 26.7856  10652.4  103.042
 26.8276  10733.5  103.39
 26.8696  10843  103.787
 26.9116  10822  103.624
 26.9536  10598.5  102.596
 26.9956  10557.3  102.431
 27.0376  10637.2  103.05
 27.0796  10676.1  102.958
 27.1216  10752.3  103.389
 27.1636  10389.9  101.785
 27.2056  10590.5  102.654
 27.2476  10664  103.006
 27.2896  10472.4  102.183
 27.3316  10483.4  101.957
 27.3736  10395.6  101.806
 27.4156  10478.8  102.059
 27.4576  10340.1  101.588
 27.4996  10494.3  101.955
 27.5416  10475.4  102.173
 27.5836  10422.1  101.745
 27.6256  10317.6  101.405
 27.6676  10378  101.701
 27.7096  10304.4  101.223
 27.7516  10557  102.6
 27.7936  10797.8  103.918
 27.8356  10627.9  102.682
 27.8776  10624.7  102.759
 27.9196  10375.6  101.392
 27.9616  10404.9  101.744
 28.0036  10288  101.13
 28.0456  10143.8  100.554
 28.0876  10193.1  100.887
 28.1296  10236.3  100.932
 28.1716  10263.3  101.091
 28.2136  10212.7  100.802
 28.2556  10234.3  101.027
 28.2976  10029.5  99.9993
 28.3396  10029.1  99.7532
 28.3816  10219.6  100.698
 28.4236  10151.8  100.531
 28.4656  9963.38  99.6361
 28.5076  9912.84  99.0253
 28.5496  10037.1  99.894
 28.5916  10131.2  100.176
 28.6336  10055.5  100.148
 28.6756  9879.81  98.455
 28.7176  10030.9  99.7747
 28.7596  9904.54  99.038
 28.8016  9942.14  99.2615
 28.8436  9801.73  98.7998
 28.8856  9948.13  99.3816
 28.9276  9945.01  99.6205
 28.9696  9802.26  98.5511
 29.0116  9791.08  98.6818
 29.0536  9747.67  98.6744
 29.0956  9799.66  98.6291
 29.1376  9902.56  99.1237
 29.1796  9853.78  98.9305
 29.2216  9870.81  98.8553
 29.2636  9874.85  98.951
 29.3056  9826.75  98.4818
 29.3476  9642.39  98.0802
 29.3896  9788.3  98.9393
 29.4316  9773.01  98.177
 29.4736  9567.95  97.2076
 29.5156  9680.1  97.7002
 29.5576  9564.42  97.8478
 29.5996  9512.21  96.8316
 29.6416  9513.61  96.9701
 29.6836  9521.84  96.9404
 29.7256  9426.76  97.0148
 29.7676  9520.84  97.157
 29.8096  9281.34  95.8747
 29.8516  9252.03  96.0496
 29.8936  9395.62  96.8853
 29.9356  9446.94  96.9059
 29.9776  9378.31  96.7017
 30.0196  9580.39  97.1279
 30.0616  9459.89  96.8858
 30.1036  9470.23  96.7686
 30.1456  9360.87  96.4354
 30.1876  9446.18  96.8552
 30.2296  9393.75  96.5341
 30.2716  9346.98  95.9341
 30.3136  9376.81  96.9403
 30.3556  9531.09  97.7435
 30.3976  9661.65  99.928
 30.4396  9929.59  98.6159
 30.4816  9657.72  96.8541
 30.5236  9728.37  97.2114
 30.5656  9685  97.6286
 30.6076  9661.64  96.9539
 30.6496  9524.43  96.6626
 30.6916  9404.47  96.1376
 30.7336  9620.21  97.389
 30.7756  9519  96.9552
 30.8176  9672.8  97.6614
 30.8596  9545.25  96.7584
 30.9016  9458.07  96.6662
 30.9436  9510.98  96.7031
 30.9856  9728.52  97.9154
 31.0276  9512.48  96.4473
 31.0696  9430.61  96.5835
 31.1116  9404.86  96.4291
 31.1536  9411.73  96.3283
 31.1956  9381.1  96.2768
 31.2376  9216.61  95.4543
 31.2796  9425.37  96.0619
 31.3216  9521.74  96.4931
 31.3636  9400.94  96.5644
 31.4056  9412.55  97.9333
 31.4476  9455.86  96.0649
 31.4896  9452.49  96.5548
 31.5316  9475.63  96.0661
 31.5736  9828.23  97.6658
 31.6156  9748.44  97.278
 31.6576  9566.84  96.449
 31.6996  9743.29  96.9938
 31.7416  9439.98  96.5698
 31.7836  9455.73  95.6347
 31.8256  9486.22  96.0574
 31.8676  9535.32  96.295
 31.9096  9354.2  95.7585
 31.9516  9216.01  95.2179
 31.9936  9287.06  95.3992
 32.0356  9466.93  96.371
 32.0776  9398.04  95.9194
 32.1196  9460.11  96.3396
 32.1616  9456.01  95.7565
 32.2036  9368.47  95.8313
 32.2456  9326.13  95.9963
 32.2876  9281.47  95.2663
 32.3296  9257.09  95.0978
 32.3716  9094.88  94.3652
 32.4136  9029.93  94.239
 32.4556  9220.61  94.6037
 32.4976  9185.78  94.3319
 32.5396  9127.98  94.0956
 32.5816  9126.07  94.2255
 32.6236  9093.63  94.1063
 32.6656  9173.32  95.0749
 32.7076  9026.35  93.9664
 32.7496  9045.67  93.7371
 32.7916  9114.92  94.0566
 32.8336  8982.41  93.461
 32.8756  9144.48  94.0105
 32.9176  9020.76  93.8714
 32.9596  9069.4  94.1971
 33.0016  8982.81  93.5156
 33.0436  9142.86  94.5065
 33.0856  9045.17  94.1124
 33.1276  8922.12  93.2036
 33.1696  9033.56  93.6065
 33.2116  9077.97  94.0747
 33.2536  9167.77  94.5311
 33.2956  9027.04  93.8943
 33.3376  9017.38  93.5732
 33.3796  9034.83  93.8867
 33.4216  8934.07  92.9428
 33.4636  8964.66  93.2668
 33.5056  8856.26  92.9413
 33.5476  8953.88  93.4271
 33.5896  8929.45  93.0984
 33.6316  8903.87  93.2788
 33.6736  8765  92.7923
 33.7156  8833.65  93.1884
 33.7576  8873.56  93.0371
 33.7996  8902.87  92.9488
 33.8416  8740.91  92.2838
 33.8836  8691.47  91.7977
 33.9256  8989.4  93.4241
 33.9676  8953.94  93.126
 34.0096  8843.52  92.8709
 34.0516  8824.82  92.4062
 34.0936  8730.52  92.1854
 34.1356  8945.62  93.0476
 34.1776  8642.97  91.4546
 34.2196  8674.74  91.8114
 34.2616  8734.31  92.2634
 34.3036  8674.76  92.2035
 34.3456  8641.49  91.7749
 34.3876  8800.2  92.5831
 34.4296  8688.96  91.6845
 34.4716  8797.11  92.4034
 34.5136  8788.77  92.5432
 34.5556  8637.84  92.0102
 34.5976  8879.98  93.1017
 34.6396  8712  91.9263
 34.6816  8800.45  92.5081
 34.7236  8750.09  92.0159
 34.7656  8703.26  91.978
 34.8076  8544.39  91.4664
 34.8496  8537.77  91.2715
 34.8916  8621.25  91.5806
 34.9336  8671.33  91.8305
 34.9756  8654.07  91.662
 35.0176  8675.69  92.3071
 35.0596  8719.68  92.3665
 35.1016  8696.61  91.9852
 35.1436  8712.43  91.7694
 35.1856  8764.98  92.1532
 35.2276  8543.76  91.1719
 35.2696  8742.24  92.4131
 35.3116  8504.58  91.246
 35.3536  8562.28  91.2553
 35.3956  8478.15  90.5309
 35.4376  8626.11  91.8959
 35.4796  8613.75  91.8498
 35.5216  8538.08  91.4165
 35.5636  8343.1  91.1171
 35.6056  8472.34  90.8247
 35.6476  8589.96  91.3571
 35.6896  8596.47  91.4773
 35.7316  8377.63  90.2902
 35.7736  8552.29  91.4174
 35.8156  8581.94  91.5741
 35.8576  8535.67  91.5721
 35.8996  8560.83  91.6766
 35.9416  8498.86  90.8498
 35.9836  8540  91.4166
 36.0256  8595.05  91.7315
 36.0676  8661.59  91.8312
 36.1096  8501.61  91.1202
 36.1516  8629.44  91.7001
 36.1936  8567.49  91.1984
 36.2356  8488.18  91.4431
 36.2776  8397.63  90.4206
 36.3196  8486.28  90.5645
 36.3616  8504.43  90.7961
 36.4036  8453.12  90.5897
 36.4456  8537.91  91.2601
 36.4876  8300.32  89.9203
 36.5296  8478.64  90.919
 36.5716  8294.6  90.7045
 36.6136  8384.43  89.9613
 36.6556  8413.96  90.3185
 36.6976  8121.13  89.2273
 36.7396  8267.89  89.7576
 36.7816  8100.04  89.2158
 36.8236  8188  89.6212
 36.8656  8165.62  89.5461
 36.9076  8134.45  89.2781
 36.9496  8091.12  89.0279
 36.9916  8131.37  88.8809
 37.0336  8214.36  89.6481
 37.0756  8207.07  89.4013
 37.1176  8009.38  88.579
 37.1596  8145.98  89.3409
 37.2016  8106.86  89.3465
 37.2436  8198.04  89.1643
 37.2856  8132.86  89.0669
 37.3276  8205.12  88.8154
 37.3696  8082.61  89.0326
 37.4116  8060.24  88.8107
 37.4536  7966.82  88.163
 37.4956  8021.95  88.5178
 37.5376  8215.14  91.175
 37.5796  8071.9  90.3121
 37.6216  8223.64  89.4124
 37.6636  8340.73  89.9419
 37.7056  8327.94  90.0484
 37.7476  8333.68  89.6304
 37.7896  8103  88.8817
 37.8316  8161.02  89.3591
 37.8736  8157.11  88.8564
 37.9156  8145.67  88.7887
 37.9576  8281.06  89.4389
 37.9996  7935.23  87.2649
 38.0416  8110.89  89.0332
 38.0836  8266.44  89.7836
 38.1256  8097.3  88.8383
 38.1676  8054.93  88.7199
 38.2096  8219.27  89.2391
 38.2516  8195.12  89.3119
 38.2936  8222.26  89.2721
 38.3356  8128.56  88.6858
 38.3776  8074.17  88.6469
 38.4196  8133.49  88.7984
 38.4616  8181.78  89.3318
 38.5036  8243.58  89.5085
 38.5456  7999.44  89.0105
 38.5876  8073.27  89.4277
 38.6296  8144.32  88.7941
 38.6716  8148.67  88.6231
 38.7136  7969.23  87.5827
 38.7556  8084.18  88.7269
 38.7976  8231.73  89.4659
 38.8396  8027.62  88.8036
 38.8816  7973.35  88.2971
 38.9236  8145.63  89.0398
 38.9656  7975.04  88.0119
 39.0076  8069.66  87.9296
 39.0496  8208.52  89.2525
 39.0916  8146.06  88.5485
 39.1336  8081.75  88.6126
 39.1756  8082.26  88.6712
 39.2176  8041.62  88.9928
 39.2596  8060.31  89.008
 39.3016  7973.01  88.1221
 39.3436  7916.39  88.2201
 39.3856  8205.5  89.2508
 39.4276  8194.98  89.7143
 39.4696  8127.27  88.9539
 39.5116  8019.37  88.8837
 39.5536  8095.44  89.7171
 39.5956  8089.55  88.769
 39.6376  8051.68  88.5716
 39.6796  8030.83  88.2005
 39.7216  7943.02  87.8169
 39.7636  7989.41  88.6263
 39.8056  8039.33  88.7038
 39.8476  8049.85  89.0092
 39.8896  8032.75  88.5532
 39.9316  8017.85  88.7106
 39.9736  8062.33  88.5268
 40.0156  7948.37  87.7347
 40.0576  7979.17  88.2558
 40.0996  8114.19  88.1758
 40.1416  7984.19  88.2606
 40.1836  8058.66  88.5646
 40.2256  8093.02  88.7887
 40.2676  7979.08  88.268
 40.3096  8054.22  88.6067
 40.3516  8132.71  89.1501
 40.3936  8038.37  88.1871
 40.4356  7991.5  88.1362
 40.4776  8065.19  88.9414
 40.5196  8112.72  89.3371
 40.5616  8214.14  89.5323
 40.6036  8002.8  88.6243
 40.6456  8056.75  88.5279
 40.6876  8180.87  89.208
 40.7296  7947.52  88.0544
 40.7716  8020.98  88.5803
 40.8136  8027.6  88.5637
 40.8556  8105.74  89.1292
 40.8976  8117.81  89.1244
 40.9396  7958.63  88.5891
 40.9816  8056.32  88.4176
 41.0236  7990  87.8301
 41.0656  8120.75  89.0845
 41.1076  8055.98  88.4991
 41.1496  8051.13  88.3901
 41.1916  7960.49  88.2019
 41.2336  8070.43  88.8138
 41.2756  7915.39  87.5626
 41.3176  8037.26  88.8414
 41.3596  8072.62  88.7741
 41.4016  7952.46  88.3641
 41.4436  8083.86  88.878
 41.4856  8072  88.9793
 41.5276  7908.54  88.0911
 41.5696  7948.78  87.9479
 41.6116  8107.86  89.2187
 41.6536  8057.95  88.7972
 41.6956  8013.14  88.6135
 41.7376  8069.01  88.948
 41.7796  7870.71  87.7221
 41.8216  8081.34  89.1258
 41.8636  7964.83  88.4258
 41.9056  7923.4  87.9927
 41.9476  8025.56  88.7933
 41.9896  8064.06  88.6757
 42.0316  8041.57  88.6326
 42.0736  8066.25  88.8757
 42.1156  7932.1  87.963
 42.1576  8022.46  88.5683
 42.1996  8100.55  89.1424
 42.2416  8027.29  88.3098
 42.2836  8054.82  88.5814
 42.3256  7971.53  88.2363
 42.3676  8115.24  88.8335
 42.4096  8062.14  88.4937
 42.4516  8067.73  88.6081
 42.4936  7881.57  87.6611
 42.5356  7924.36  88.034
 42.5776  7932.61  88.0207
 42.6196  7973.54  88.3014
 42.6616  7909.92  88.1192
 42.7036  7905.45  87.4764
 42.7456  8056.27  88.6696
 42.7876  7904.82  87.9267
 42.8296  7925.45  87.8727
 42.8716  7830.22  87.5105
 42.9136  7883.3  87.5907
 42.9556  7905.85  87.8534
 42.9976  7915.9  87.8724
 43.0396  7861.21  87.2995
 43.0816  7877.81  87.7756
 43.1236  7747.85  87.1017
 43.1656  7825.58  87.3542
 43.2076  7978.35  88.317
 43.2496  7853.27  87.4422
 43.2916  7896.71  88.0477
 43.3336  7873.63  87.748
 43.3756  7964.21  88.0122
 43.4176  7820.74  87.295
 43.4596  7754.92  86.7782
 43.5016  7797.93  87.4232
 43.5436  7934.88  88.0926
 43.5856  7810.93  87.4344
 43.6276  7837.01  87.468
 43.6696  7742.48  87.1985
 43.7116  7887.29  87.4997
 43.7536  7882.64  87.9797
 43.7956  7744.52  88.4247
 43.8376  7666.57  86.485
 43.8796  7624.14  86.3272
 43.9216  7601.07  86.1046
 43.9636  7655.59  86.5293
 44.0056  7619.49  86.5546
 44.0476  7582.82  85.9804
 44.0896  7569.45  86.2489
 44.1316  7772.46  86.9156
 44.1736  7690.46  86.5836
 44.2156  7710.92  86.5564
 44.2576  7722.4  86.9412
 44.2996  7791.43  87.3017
 44.3416  7697.24  86.53
 44.3836  7453.73  85.4749
 44.4256  7487.08  85.3119
 44.4676  7488.5  85.4767
 44.5096  7536.43  85.8923
 44.5516  7611.06  86.281
 44.5936  7416.25  85.122
 44.6356  7608.76  85.9585
 44.6776  7541.1  85.8941
 44.7196  7616.45  86.6299
 44.7616  7598.8  87.8697
 44.8036  7639.46  86.5159
 44.8456  7814.91  87.7203
 44.8876  7742.05  87.1489
 44.9296  7848.32  87.1942
 44.9716  7801.15  87.3588
 45.0136  7909.94  87.9046
 45.0556  7821.32  87.3914
 45.0976  7709.22  86.9242
 45.1396  7545.06  85.7361
 45.1816  7646.5  86.2548
 45.2236  7708.99  86.5135
 45.2656  7594.81  86.3542
 45.3076  7738.05  86.9501
 45.3496  7521.74  86.0333
 45.3916  7641.13  86.999
 45.4336  7731.33  87.3551
 45.4756  7660.66  86.7956
 45.5176  7710.87  86.7048
 45.5596  7797.06  87.3017
 45.6016  7620.44  86.7371
 45.6436  7616.48  85.8787
 45.6856  7536.85  86.0737
 45.7276  7514.08  87.2853
 45.7696  7639.7  87.6728
 45.8116  7692.26  87.4061
 45.8536  7547.7  86.4802
 45.8956  7671.66  86.5271
 45.9376  7701.76  86.1538
 45.9796  7570.29  86.1071
 46.0216  7641.5  86.858
 46.0636  7695.01  86.2803
 46.1056  7584.26  85.6563
 46.1476  7748.05  87.1766
 46.1896  7660.04  86.8402
 46.2316  7580.37  86.2506
 46.2736  7485.11  86.0815
 46.3156  7748.67  87.1426
 46.3576  7602.31  86.5374
 46.3996  7641  86.9133
 46.4416  7584.62  86.1621
 46.4836  7559.93  86.3792
 46.5256  7690  87.0559
 46.5676  7611.31  86.735
 46.6096  7586.9  86.5187
 46.6516  7613.68  85.707
 46.6936  7739.2  86.9193
 46.7356  7754.9  87.1154
 46.7776  7576.06  86.9584
 46.8196  7579.16  86.5643
 46.8616  7412.05  85.542
 46.9036  7422.11  85.2581
 46.9456  7440.32  84.997
 46.9876  7559.31  85.7604
 47.0296  7502.54  86.1357
 47.0716  7439.09  85.5965
 47.1136  7438.79  85.2678
 47.1556  7406.22  84.9458
 47.1976  7571.33  85.9768
 47.2396  7448.08  85.6759
 47.2816  7497.51  85.6508
 47.3236  7481.69  85.9347
 47.3656  7514.12  86.0512
 47.4076  7462.33  85.5542
 47.4496  7460.45  85.6351
 47.4916  7556.62  86.3805
 47.5336  7523.66  86.0104
 47.5756  7559.98  86.3349
 47.6176  7388.93  85.246
 47.6596  7493.56  85.5598
 47.7016  7698.24  86.5318
 47.7436  7534.52  85.9477
 47.7856  7584.35  86.2572
 47.8276  7407.91  85.2924
 47.8696  7439.8  85.5747
 47.9116  7587.3  86.1245
 47.9536  7511.43  85.6249
 47.9956  7512.03  86.3597
 48.0376  7440  85.7131
 48.0796  7425.1  85.76
 48.1216  7499.43  86.0015
 48.1636  7532.77  85.7578
 48.2056  7437.32  85.4807
 48.2476  7630.62  86.9081
 48.2896  7549.43  86.3501
 48.3316  7369.73  85.2535
 48.3736  7417.06  85.5527
 48.4156  7444.37  85.5545
 48.4576  7387.22  85.5246
 48.4996  7534.24  85.8077
 48.5416  7555.84  86.2745
 48.5836  7492.17  85.5755
 48.6256  7526.92  85.9911
 48.6676  7540.81  86.5937
 48.7096  7482.33  85.5031
 48.7516  7504.12  85.7861
 48.7936  7361.71  85.0313
 48.8356  7447.31  85.5762
 48.8776  7446.34  86.1574
 48.9196  7563.27  86.1814
 48.9616  7434.81  85.8323
 49.0036  7517.9  86.6788
 49.0456  7457.65  86.3016
 49.0876  7493.18  86.0281
 49.1296  7302.37  85.0925
 49.1716  7341.55  85.1956
 49.2136  7401.43  85.4647
 49.2556  7405.78  85.5254
 49.2976  7498.56  86.1244
 49.3396  7247.41  84.7224
 49.3816  7566.71  85.9922
 49.4236  7496.4  86.0193
 49.4656  7319.39  85.0196
 49.5076  7485.83  85.7227
 49.5496  7441.32  85.5309
 49.5916  7468.31  85.6038
 49.6336  7382.55  85.3083
 49.6756  7479.72  86.1136
 49.7176  7376.2  85.4571
 49.7596  7366.1  85.163
 49.8016  7511.1  85.9192
 49.8436  7384.94  85.4866
 49.8856  7398.87  85.5726
 49.9276  7329.27  85.2776
 49.9696  7374.57  85.5233
 50.0116  7478.12  86.2649
 50.0536  7409.47  85.8043
 50.0956  7233.91  84.8493
 50.1376  7335.84  85.1322
 50.1796  7427.46  85.9501
 50.2216  7332.06  85.3844
 50.2636  7408.82  85.4455
 50.3056  7327.06  85.1496
 50.3476  7359.47  85.358
 50.3896  7353.54  85.2979
 50.4316  7410.99  85.4457
 50.4736  7280.91  84.9292
 50.5156  7378.49  85.4855
 50.5576  7348.58  85.0661
 50.5996  7266.43  84.8783
 50.6416  7337.08  85.2136
 50.6836  7416.08  85.74
 50.7256  7329.59  85.1428
 50.7676  7439.95  86.1277
 50.8096  7311.84  84.8946
 50.8516  7219.01  84.7839
 50.8936  7209.68  84.5022
 50.9356  7398.3  85.7032
 50.9776  7274.32  85.1557
 51.0196  7202.19  84.8491
 51.0616  7224.62  84.2883
 51.1036  7175.36  84.3711
 51.1456  7274.97  84.8657
 51.1876  7278.2  84.1991
 51.2296  7303.8  85.01
 51.2716  7146.28  83.7852
 51.3136  7240.09  84.8087
 51.3556  7067.33  83.4022
 51.3976  7121.77  83.8747
 51.4396  6971.1  83.3028
 51.4816  7096.69  83.899
 51.5236  7135.64  84.2188
 51.5656  7014.87  83.0904
 51.6076  7171.86  84.1029
 51.6496  7038  83.5073
 51.6916  7094.02  84.2048
 51.7336  7031.74  83.9256
 51.7756  7109.86  84.0809
 51.8176  7028.66  83.7141
 51.8596  6964.61  83.3464
 51.9016  7179.46  84.2169
 51.9436  7068.3  85.0896
 51.9856  7197.93  86.2801
 52.0276  7086.77  84.0813
 52.0696  7218.78  84.9336
 52.1116  7087.85  84.2778
 52.1536  7243.73  85.0909
 52.1956  7155.1  84.0134
 52.2376  7258.01  84.7939
 52.2796  7105.94  83.7161
 52.3216  7029.86  83.9671
 52.3636  6992.23  83.2901
 52.4056  7088.78  83.7363
 52.4476  6999.31  83.5695
 52.4896  7077.37  84.09
 52.5316  7141.74  84.5294
 52.5736  7016.03  83.4862
 52.6156  7217.07  85.094
 52.6576  7074.62  83.6582
 52.6996  6875.66  83.4813
 52.7416  6988.89  84.0059
 52.7836  6977.32  83.835
 52.8256  7136  83.9713
 52.8676  6956.52  83.4903
 52.9096  7064.78  84.2122
 52.9516  7018.87  84.3279
 52.9936  7045.49  84.874
 53.0356  7007.25  83.6349
 53.0776  7016.92  83.9605
 53.1196  7016.3  84.093
 53.1616  7099.77  84.6327
 53.2036  6948.51  83.6922
 53.2456  7000.79  84.1162
 53.2876  6980.16  83.6707
 53.3296  7015.14  84.2293
 53.3716  7086.25  84.3918
 53.4136  7067.43  84.4334
 53.4556  7005.88  84.093
 53.4976  6964.86  83.6765
 53.5396  6929.15  83.8689
 53.5816  7129.31  84.6977
 53.6236  6916.69  83.7827
 53.6656  7026.45  84.0286
 53.7076  7096.57  84.4108
 53.7496  7079.49  84.4503
 53.7916  7034.77  84.3184
 53.8336  7024.11  84.1459
 53.8756  6860.79  83.7137
 53.9176  6971.72  83.7151
 53.9596  6707.44  82.8878
 54.0016  6688.57  82.0894
 54.0436  6673.6  82.2243
 54.0856  6883.8  82.9112
 54.1276  6804.76  82.6278
 54.1696  6710.02  82.2333
 54.2116  6821.75  82.6609
 54.2536  6700.19  81.7107
 54.2956  6767.19  82.1793
 54.3376  6782.66  82.7731
 54.3796  6681.11  82.0435
 54.4216  6840.26  83.0924
 54.4636  6705.92  82.22
 54.5056  6763.62  82.3807
 54.5476  6700.41  82.3419
 54.5896  6696.09  82.1517
 54.6316  6770.45  82.4472
 54.6736  6776.76  82.5693
 54.7156  6693.68  82.0794
 54.7576  6526.89  81.022
 54.7996  6739.19  82.4633
 54.8416  6687.42  82.2393
 54.8836  6676.59  82.246
 54.9256  6585.17  81.4579
 54.9676  6589.9  81.3487
 55.0096  6686.07  81.9818
 55.0516  6616.46  81.7727
 55.0936  6607.44  81.4012
 55.1356  6517.11  80.8779
 55.1776  6671.77  82.0804
 55.2196  6689.32  81.9731
 55.2616  6724.87  82.423
 55.3036  6566.42  81.6121
 55.3456  6472.17  81.1641
 55.3876  6607.48  81.7424
 55.4296  6418.22  80.5424
 55.4716  6546.49  81.3838
 55.5136  6615.2  81.5652
 55.5556  6797.07  82.7388
 55.5976  6563.44  81.378
 55.6396  6661.24  81.9348
 55.6816  6531.86  80.9825
 55.7236  6471.42  80.6709
 55.7656  6650.32  81.4974
 55.8076  6484.92  80.4854
 55.8496  6523.25  81.0273
 55.8916  6460.42  80.856
 55.9336  6691.55  82.1105
 55.9756  6454.96  80.5331
 56.0176  6483.13  80.8579
 56.0596  6437.48  80.5586
 56.1016  6339.12  79.9592
 56.1436  6409.83  80.6561
 56.1856  6335.46  79.9363
 56.2276  6617.2  81.7307
 56.2696  6446.44  80.6661
 56.3116  6553.22  81.7162
 56.3536  6475.65  80.8905
 56.3956  6429.45  80.6094
 56.4376  6382.06  80.3321
 56.4796  6385.27  80.1637
 56.5216  6432.18  80.8296
 56.5636  6414.95  80.2973
 56.6056  6608.65  81.7486
 56.6476  6381.96  79.9465
 56.6896  6607.05  81.8208
 56.7316  6345.56  80.0679
 56.7736  6550.91  81.3743
 56.8156  6428.35  80.6279
 56.8576  6239.64  79.3758
 56.8996  6422.21  80.4309
 56.9416  6334.74  80.2008
 56.9836  6434.18  80.3487
 57.0256  6322.78  79.9651
 57.0676  6470.44  81.0152
 57.1096  6419.69  80.4744
 57.1516  6266.59  79.5537
 57.1936  6354.66  79.8646
 57.2356  6171.23  79.0276
 57.2776  6366.53  80.243
 57.3196  6287.78  80.071
 57.3616  6427.89  80.4718
 57.4036  6412.71  80.4387
 57.4456  6371.66  80.1627
 57.4876  6344.45  79.8491
 57.5296  6329.78  80.0799
 57.5716  6315.98  80.007
 57.6136  6267.28  79.5304
 57.6556  6314.31  79.9429
 57.6976  6355.01  80.0423
 57.7396  6185.38  79.3178
 57.7816  6137.93  79.3889
 57.8236  6289.04  80.134
 57.8656  6306.84  79.9121
 57.9076  6353.75  80.2372
 57.9496  6359.53  80.6259
 57.9916  6322.06  79.898
 58.0336  6305.94  80.0813
 58.0756  6290.33  79.6172
 58.1176  6286.5  79.5872
 58.1596  6206.75  79.6683
 58.2016  6101.87  78.2026
 58.2436  6094.08  78.5611
 58.2856  6060.36  78.2663
 58.3276  6056.63  78.6039
 58.3696  5955.23  77.7087
 58.4116  5994.65  77.829
 58.4536  6116.41  78.4985
 58.4956  5970.97  77.7427
 58.5376  6083.31  78.0332
 58.5796  5987.55  77.8391
 58.6216  6171.06  78.8479
 58.6636  6042.85  78.2339
 58.7056  6048.1  78.1245
 58.7476  6016.91  78.3638
 58.7896  6111.9  78.6255
 58.8316  6029.91  78.0893
 58.8736  6022.23  78.0528
 58.9156  6086.74  78.513
 58.9576  6026.7  78.439
 58.9996  6093.33  78.1249
 59.0416  6094.19  78.494
 59.0836  6073.83  78.2784
 59.1256  6036.96  78.7428
 59.1676  6060.94  79.213
 59.2096  6004.54  78.1473
 59.2516  6039.45  77.9553
 59.2936  5895.38  77.344
 59.3356  5975.09  77.7435
 59.3776  5857.86  77.1434
 59.4196  5974.75  77.8461
 59.4616  5992.32  77.8206
 59.5036  5889.64  77.1846
 59.5456  6032.15  77.8077
 59.5876  6165.16  78.8539
 59.6296  5944.54  77.4989
 59.6716  6015.74  78.0194
 59.7136  5971.11  77.7178
 59.7556  6030.06  78.2368
 59.7976  5898.52  77.124
 59.8396  5947.33  77.3375
 59.8816  6081.46  78.7523
 59.9236  6012.52  77.9489
 59.9656  5965.26  77.9
 60.0076  5964.89  77.2599
 60.0496  5903.23  77.3578
 60.0916  6051.93  77.7435
 60.1336  6051.28  78.8475
 60.1756  5878.09  78.8792
 60.1996  0.0000000E+00  0.0000000E+00