File: docs/examples/opeando_xrd/IS17_D/Data/IS17_D/17_Da_f00020.xye
# /beamlines/bl04/projects/cycle2025-II/20250340211-lsimonelli/DATA/IS17_D/17_Da_f00020.xye : mythproc.py merge -s 0.006 -l 0.5 -f /beamlines/bl04/inhouse/ff/FlatField/ff_20Nov2024rod8mm60s_17keV.raw -b True -c true -o xye /beamlines/bl04/projects/cycle2025-II/20250340211-lsimonelli/DATA/IS17_D/17_Da_00020.dat
# IsMon = [6758792, 6763405, 6762744]  IsPos = [-1.5000, -2.4885, -3.4986]
# Wave = 0.4962  CalPath /beamlines/bl04/projects/cycle2025-II/20250340211-lsimonelli/DATA/Align/Si_Pos1_25keV_f00001.cal
# Date = 2025-09-23_23:08:35 Dt = 4.8000  Bin = 0.0060  <imon> = 6761647 +/- 2037 (Min/Max) 6758792 / 6763405
# icurr 250.5329  mocoIn 1.7087E-05  mocoOut 0.8019  i15 7.07226e+06  imon 6.76165e+06  i7 4.3333  iEMpd_timer 4.8000  iEMpd_1 3.6771E-08  iEMpd_2 7.9486E-08  iEMpd_3 1.7717E-08  iEMpd_4 4.7797E-08  iEMhp_timer 4.8000  iEMhp_1 4.8945E-06  iEMhp_2 -2.5855E-08  iEMhp_3 -2.3770E-08  iEMhp_4 -2.0970E-08
#      9776
 1.5856  38086  200.437
 1.6276  45390.6  215.061
 1.6696  52235.1  229.893
 1.7116  61113.2  249.149
 1.7536  70211.6  265.915
 1.7956  75143.5  275.783
 1.8376  70881.1  268.272
 1.8796  59508  244.008
 1.9216  48014.4  220.047
 1.9636  39971.9  200.457
 2.0056  35732.8  188.319
 2.0476  33080.4  183.181
 2.0896  31477.1  177.639
 2.1316  31095.5  175.71
 2.1736  29272.4  171.834
 2.2156  29608.8  171.432
 2.2576  28835.9  169.786
 2.2996  27704.2  167.032
 2.3416  28108  166.898
 2.3836  27584.6  165.442
 2.4256  26951.7  164.066
 2.4676  26520.8  162.519
 2.5096  27203.4  164.651
 2.5516  33947.6  188.103
 2.5936  130530  361.478
 2.6356  30177.6  174.557
 2.6776  25890.1  160.569
 2.7196  24826.8  157.755
 2.7616  24453.3  156.35
 2.8036  23971  154.964
 2.8456  23905.9  155.346
 2.8876  23522.2  153.952
 2.9296  23152  152.883
 2.9716  22991.3  151.858
 3.0136  22755.7  151.144
 3.0556  22963.9  152.219
 3.0976  22782.9  150.592
 3.1396  22528.7  150.437
 3.1816  22350.1  149.779
 3.2236  22243.2  149.418
 3.2656  22120.5  148.068
 3.3076  22041.6  149.216
 3.3496  22098.1  148.621
 3.3916  22470.3  149.459
 3.4336  23017.2  151.826
 3.4756  23373.4  152.933
 3.5176  24288.2  155.689
 3.5596  23979.9  157.592
 3.6016  24360.1  155.97
 3.6436  23449.2  154.088
 3.6856  22987.2  150.915
 3.7276  22246  149.519
 3.7696  22131.5  149.133
 3.8116  21604.7  147.429
 3.8536  21640.1  147.487
 3.8956  21611.3  147.217
 3.9376  22299.9  149.824
 3.9796  21621  147.016
 4.0216  21489.8  145.632
 4.0636  21480.3  147.041
 4.1056  21629.3  147.191
 4.1476  21911.7  148.468
 4.1896  21803.9  147.96
 4.2316  22172.9  149.039
 4.2736  22564.5  150.138
 4.3156  22902.2  151.484
 4.3576  23535.1  153.492
 4.3996  23747.8  154.231
 4.4416  24562.5  156.653
 4.4836  25846.4  160.845
 4.5256  25596.6  160.677
 4.5676  25398.4  160.295
 4.6096  25804.4  160.611
 4.6516  26346.7  161.647
 4.6936  26685.8  163.485
 4.7356  27437.9  165.599
 4.7776  26658.3  163.062
 4.8196  26182.5  162.248
 4.8616  25654  160.22
 4.9036  25589.2  159.646
 4.9456  25874  161.161
 4.9876  25051  158.48
 5.0296  25209.1  158.807
 5.0716  25063  158.955
 5.1136  25183  159.2
 5.1556  25448.8  159.509
 5.1976  33713.5  183.593
 5.2396  26418.6  162.218
 5.2816  25903.9  161.084
 5.3236  26055.3  161.264
 5.3656  25361.2  159.999
 5.4076  25130.2  159.416
 5.4496  25341.7  159.574
 5.4916  25317.4  159.269
 5.5336  25353.6  159.379
 5.5756  25179.8  158.876
 5.6176  25457.5  159.191
 5.6596  25820.8  161.132
 5.7016  25769.1  160.4
 5.7436  25863.2  160.958
 5.7856  25517.9  159.939
 5.8276  26059  161.35
 5.8696  26021  161.303
 5.9116  25962.9  161.784
 5.9536  26414.4  162.976
 5.9956  26536.6  162.722
 6.0376  26597.8  163.536
 6.0796  26884.4  164.249
 6.1216  27021.7  164.858
 6.1636  27210.9  164.524
 6.2056  27163.3  165.024
 6.2476  27383.8  165.407
 6.2896  27483.2  165.564
 6.3316  27510.2  165.824
 6.3736  27570.9  165.898
 6.4156  27584.8  165.893
 6.4576  27969.5  166.604
 6.4996  28144.3  167.59
 6.5416  28104  167.609
 6.5836  28581.9  169.251
 6.6256  28288.9  167.954
 6.6676  28755  168.91
 6.7096  28443.1  168.829
 6.7516  28792  169.515
 6.7936  30227.4  172.877
 6.8356  30490.7  173.953
 6.8776  30027.1  173.413
 6.9196  29820.1  173.212
 6.9616  29868.6  172.78
 7.0036  30430.4  174.088
 7.0456  30665.6  174.064
 7.0876  30446.6  175.025
 7.1296  30202.6  173.552
 7.1716  30319.9  173.436
 7.2136  29910.4  172.049
 7.2556  30216.3  173.084
 7.2976  30148.5  173.376
 7.3396  30030.5  173.237
 7.3816  30214.5  173.985
 7.4236  30573.9  174.319
 7.4656  30808  174.485
 7.5076  31063.4  175.336
 7.5496  30834.9  175.214
 7.5916  30672.9  174.787
 7.6336  31643.8  177.428
 7.6756  31359.5  176.485
 7.7176  31523.7  177.242
 7.7596  31889.9  179.498
 7.8016  36872.1  195.328
 7.8436  32550.1  180.222
 7.8856  32912.9  180.842
 7.9276  33331.9  182.376
 7.9696  33448.1  183
 8.0116  34502.6  184.784
 8.0536  34929.1  185.81
 8.0956  36741.2  191.751
 8.1376  35281.1  187.39
 8.1796  35181.5  187.655
 8.2216  36467.6  189.804
 8.2636  37221  192.002
 8.3056  36359.9  190.536
 8.3476  38030.7  194.189
 8.3896  37425.8  193.162
 8.4316  36762.2  191.164
 8.4736  36634.4  190.306
 8.5156  36216.6  189.487
 8.5576  35990.3  189.85
 8.5996  36086.3  188.986
 8.6416  35899  189.742
 8.6836  35583.2  188.745
 8.7256  36558.9  190.758
 8.7676  38279.5  198.158
 8.8096  38558.7  196.149
 8.8516  36094.6  189.454
 8.8936  37492.1  192.922
 8.9356  35412.2  187.846
 8.9776  35484.7  188.122
 9.0196  35071.2  186.711
 9.0616  35657.9  187.736
 9.1036  37226  193.022
 9.1456  35042.3  186.635
 9.1876  34594.5  185.393
 9.2296  34570.8  184.742
 9.2716  34005.5  183.288
 9.3136  33946.2  183.117
 9.3556  34325.4  184.117
 9.3976  32556.2  179.833
 9.4396  33013  180.977
 9.4816  32711.6  180.024
 9.5236  32923.6  180.51
 9.5656  32609  179.957
 9.6076  32132.9  179.156
 9.6496  32176.7  179.205
 9.6916  32190.2  179.207
 9.7336  32066.2  178.654
 9.7756  32271.6  180.397
 9.8176  31290.2  177.194
 9.8596  31489.3  176.246
 9.9016  31072.7  175.069
 9.9436  31156.6  175.045
 9.9856  31128.8  175.364
 10.0276  29926.6  173.019
 10.0696  30578.1  173.949
 10.1116  29798  171.97
 10.1536  29175.3  169.858
 10.1956  28935.5  169.24
 10.2376  28590.7  167.757
 10.2796  28800  168.482
 10.3216  28774.8  168.526
 10.3636  28487.7  167.862
 10.4056  31568.6  177.101
 10.4476  31873.4  177.574
 10.4896  36613  189.697
 10.5316  32527.9  179.222
 10.5736  28552.3  168.643
 10.6156  27902.5  166.49
 10.6576  33449.1  180.733
 10.6996  28193.7  166.59
 10.7416  27217.3  163.917
 10.7836  28436.3  168.227
 10.8256  26369  162.419
 10.8676  26645.8  162.811
 10.9096  26423  162.176
 10.9516  26216.1  160.488
 10.9936  26898.4  162.763
 11.0356  26581.6  162.428
 11.0776  27747.2  165.252
 11.1196  27444.5  165.104
 11.1616  25741.7  159.596
 11.2036  26819.4  162.756
 11.2456  28160.7  167.506
 11.2876  25247.8  158.35
 11.3296  25573.6  159.262
 11.3716  25827.4  159.78
 11.4136  25121.5  158.424
 11.4556  25642  159.726
 11.4976  26650  161.807
 11.5396  27159.7  163.514
 11.5816  25553.2  159.052
 11.6236  24906.6  157.459
 11.6656  24737.7  155.896
 11.7076  24211.2  155.031
 11.7496  24761.3  160.673
 11.7916  24785.9  156.137
 11.8336  23787.2  153.841
 11.8756  24521  155.714
 11.9176  23903.1  153.642
 11.9596  23476.1  152.212
 12.0016  23306.3  152.428
 12.0436  23212.9  151.56
 12.0856  22990.6  151.346
 12.1276  23212.2  151.995
 12.1696  23335.1  151.546
 12.2116  23793.1  153.015
 12.2536  25599.6  159.557
 12.2956  23706.1  152.901
 12.3376  23299.7  151.803
 12.3796  23269.4  152.149
 12.4216  23410.8  151.839
 12.4636  24239  155.417
 12.5056  22926.2  150.44
 12.5476  22928.7  149.995
 12.5896  22959.1  150.705
 12.6316  22706.4  150.038
 12.6736  23117.8  151.703
 12.7156  22963.6  151.226
 12.7576  22874.9  151.166
 12.7996  23158  150.767
 12.8416  23301  152.268
 12.8836  24266.1  155.191
 12.9256  23668.9  152.321
 12.9676  23528  152.283
 13.0096  23166.7  152.187
 13.0516  23614.3  152.697
 13.0936  23223.2  151.554
 13.1356  23737.5  152.494
 13.1776  23650.8  153.187
 13.2196  23565.3  152.578
 13.2616  23225.6  151.771
 13.3036  23384  152.434
 13.3456  23353.2  152.309
 13.3876  23677.5  152.876
 13.4296  23425.2  152.199
 13.4716  23593.8  152.362
 13.5136  23596.8  152.522
 13.5556  23782.2  153.718
 13.5976  23506.5  152.975
 13.6396  24083.3  154.215
 13.6816  23222.5  151.795
 13.7236  24259.1  154.897
 13.7656  23716.2  153.703
 13.8076  24563.2  155.205
 13.8496  23562.8  152.783
 13.8916  23280.7  152.666
 13.9336  23169.4  151.533
 13.9756  23079.6  150.619
 14.0176  23243.9  151.819
 14.0596  24114.4  154.598
 14.1016  22850.2  150.886
 14.1436  22552.2  149.056
 14.1856  22472.9  149.076
 14.2276  22473.7  149.557
 14.2696  22820.5  150.545
 14.3116  22208.2  148.41
 14.3536  21719.1  146.947
 14.3956  21609.2  146.307
 14.4376  21716.3  146.458
 14.4796  21680.6  146.325
 14.5216  21481.5  146.437
 14.5636  21724.7  146.824
 14.6056  21272.6  144.884
 14.6476  21116.6  143.599
 14.6896  20785.8  142.995
 14.7316  20395.2  142.652
 14.7736  20271.5  141.38
 14.8156  20329.2  141.618
 14.8576  20301.2  141.379
 14.8996  20097.7  141.851
 14.9416  19632.5  140.202
 14.9836  19736.6  140.53
 15.0256  19532.6  138.741
 15.0676  19432.1  138.691
 15.1096  19186.7  137.559
 15.1516  18899.1  137.065
 15.1936  18994.5  136.852
 15.2356  18846.8  136.592
 15.2776  18823.7  136.098
 15.3196  18702.4  136.651
 15.3616  18325.1  135.026
 15.4036  18492.7  135.505
 15.4456  18597.1  135.317
 15.4876  18204.7  133.789
 15.5296  18059.3  133.532
 15.5716  17612.4  131.482
 15.6136  17761  132.353
 15.6556  19972.6  139.565
 15.6976  18322.3  133.751
 15.7396  17782  132.364
 15.7816  17736.1  131.703
 15.8236  17200.7  130.391
 15.8656  17146.4  129.979
 15.9076  17296.9  130.377
 15.9496  17530.9  134.055
 15.9916  16679.9  131.176
 16.0336  16502.4  127.466
 16.0756  16625.8  128.241
 16.1176  16588.5  128.008
 16.1596  16272.6  128.089
 16.2016  16417.2  127.421
 16.2436  16251  127.154
 16.2856  16401.4  127.298
 16.3276  15834.6  125.486
 16.3696  16010.9  126.001
 16.4116  15792  125.598
 16.4536  16161.7  126.836
 16.4956  16516  127.963
 16.5376  16186  126.861
 16.5796  15864.2  124.957
 16.6216  15579.8  124.134
 16.6636  15995.8  125.923
 16.7056  15794.3  125.005
 16.7476  15761.1  124.555
 16.7896  15871  125.585
 16.8316  15604.3  124.496
 16.8736  15973.7  126.213
 16.9156  15924.3  126.348
 16.9576  15493.4  125.404
 16.9996  15879.2  127.438
 17.0416  15639  124.845
 17.0836  15347.7  123.456
 17.1256  15317.1  123.34
 17.1676  15741.7  125.034
 17.2096  15638  124.498
 17.2516  15426.9  123.741
 17.2936  14986.3  121.985
 17.3356  14728.8  120.939
 17.3776  14806.1  121.436
 17.4196  14971.5  121.798
 17.4616  15022.6  121.936
 17.5036  15313.6  123.475
 17.5456  14508.2  120.812
 17.5876  14533.5  119.988
 17.6296  14492.7  119.634
 17.6716  14796  121.457
 17.7136  15279.4  123.569
 17.7556  14442.5  120.417
 17.7976  14707.7  121.125
 17.8396  14465.6  119.769
 17.8816  14328.8  119.731
 17.9236  13979  118.081
 17.9656  14332.1  120.251
 18.0076  14947.2  122.221
 18.0496  15316.8  122.834
 18.0916  19871.4  140.538
 18.1336  17533.4  132.12
 18.1756  15433.1  123.473
 18.2176  16113.6  126.405
 18.2596  14379.2  119.139
 18.3016  14898  121.53
 18.3436  15567.4  124.479
 18.3856  14375.8  119.526
 18.4276  14040.2  117.799
 18.4696  14422.8  119.487
 18.5116  14474.5  119.99
 18.5536  14109.5  118.82
 18.5956  14204.1  118.772
 18.6376  14366.2  119.851
 18.6796  13937  117.393
 18.7216  14230.9  119.173
 18.7636  13855.2  117.509
 18.8056  13631.5  116.497
 18.8476  13465  116.096
 18.8896  13386.9  115.407
 18.9316  13813.5  117.049
 18.9736  13534.5  115.729
 19.0156  14138.2  118.665
 19.0576  13945.9  116.757
 19.0996  13858.6  117.094
 19.1416  13609.8  116.42
 19.1836  13424.2  115.232
 19.2256  13344  115.093
 19.2676  13493.1  115.829
 19.3096  13476.3  115.988
 19.3516  13398.4  115.452
 19.3936  13637  116.607
 19.4356  13434.6  115.556
 19.4776  13372.1  115.38
 19.5196  13306.5  114.948
 19.5616  13466.4  115.885
 19.6036  13428.8  115.093
 19.6456  13537  115.817
 19.6876  13969.8  117.297
 19.7296  13396.4  115.318
 19.7716  13453.8  115.569
 19.8136  13624.4  116.664
 19.8556  13853.9  117.116
 19.8976  14014.4  117.862
 19.9396  14006.2  117.407
 19.9816  14132  118.165
 20.0236  14589.1  120.289
 20.0656  13978  117.734
 20.1076  13547.5  116.371
 20.1496  13404.6  115.755
 20.1916  13462.9  115.491
 20.2336  13279.2  114.68
 20.2756  12977.9  113.782
 20.3176  13026.4  113.744
 20.3596  13109.6  114.078
 20.4016  13090.1  113.81
 20.4436  13056.5  114.219
 20.4856  12849  113.101
 20.5276  12909.5  113.813
 20.5696  12930.8  113.473
 20.6116  12886  113.45
 20.6536  12812.2  112.688
 20.6956  12795.2  112.688
 20.7376  12711.9  112.546
 20.7796  12618.1  111.828
 20.8216  12849  112.557
 20.8636  12916.3  113.205
 20.9056  14062.2  118.082
 20.9476  12806  112.529
 20.9896  13751.3  116.466
 21.0316  12951.4  112.923
 21.0736  13048.3  113.87
 21.1156  13412.6  115.6
 21.1576  12821.2  113.079
 21.1996  12609.9  112.122
 21.2416  12556.3  111.723
 21.2836  12759  112.578
 21.3256  12562.3  111.792
 21.3676  12884.3  112.769
 21.4096  12949.3  113.412
 21.4516  12694.2  112.118
 21.4936  12426.9  111.169
 21.5356  12540.7  111.63
 21.5776  12538.4  111.461
 21.6196  12763.1  112.492
 21.6616  12621.1  111.95
 21.7036  12424.7  110.861
 21.7456  12319.6  110.46
 21.7876  12251.1  109.909
 21.8296  12260.9  109.814
 21.8716  12187.3  109.707
 21.9136  12452  111.093
 21.9556  12540.1  111.159
 21.9976  12312.7  110.159
 22.0396  12254.3  110.147
 22.0816  12378.5  111.242
 22.1236  12898.1  112.992
 22.1656  12366.4  110.824
 22.2076  12317  110.024
 22.2496  12287.4  109.917
 22.2916  12346.1  110.059
 22.3336  12480.3  111.36
 22.3756  12343.8  110.495
 22.4176  12151  109.485
 22.4596  12082.7  109.757
 22.5016  12510.3  111.176
 22.5436  12217  109.75
 22.5856  12244.6  110.115
 22.6276  12125.7  109.711
 22.6696  12220.4  110.486
 22.7116  12085.5  109.393
 22.7536  12360.8  110.61
 22.7956  12253.6  109.474
 22.8376  12086.3  109.237
 22.8796  12143.3  109.298
 22.9216  12300.2  110.542
 22.9636  12224.6  109.365
 23.0056  12194.6  109.364
 23.0476  12493.9  111.259
 23.0896  12538.7  110.846
 23.1316  12466.3  110.958
 23.1736  12241.9  112.872
 23.2156  12313.4  110.535
 23.2576  12173.7  110.116
 23.2996  12205.7  110.044
 23.3416  12199.6  110.533
 23.3836  12286.6  110.136
 23.4256  12073.2  109.327
 23.4676  12224.4  109.702
 23.5096  12313.7  110.773
 23.5516  12120.3  109.197
 23.5936  12351.8  111.13
 23.6356  12401.7  111.019
 23.6776  12164.8  110.497
 23.7196  12057.2  109.476
 23.7616  12144.8  109.571
 23.8036  11982  108.882
 23.8456  12172.1  109.309
 23.8876  11916  108.509
 23.9296  11848.9  108.681
 23.9716  11905.7  108.142
 24.0136  11992.7  109.428
 24.0556  11883.7  108.662
 24.0976  11621.4  107.271
 24.1396  11585.1  109.679
 24.1816  11884.8  109.864
 24.2236  11693.3  108.268
 24.2656  11742  107.974
 24.3076  11791.6  108.451
 24.3496  12041.2  109.478
 24.3916  11780.6  108.339
 24.4336  11825.8  108.756
 24.4756  11737.1  108.221
 24.5176  11446  106.522
 24.5596  11343.9  106.367
 24.6016  11250.5  106.013
 24.6436  11363.5  106.044
 24.6856  11387.9  105.922
 24.7276  11558.5  107.017
 24.7696  11376.1  106.291
 24.8116  11499.7  107.043
 24.8536  11311  106.162
 24.8956  11115.8  104.984
 24.9376  11152.1  105.333
 24.9796  10932  104.399
 25.0216  11069.5  105.169
 25.0636  11175.7  105.322
 25.1056  10979  104.811
 25.1476  10971.5  106.673
 25.1896  11008.8  105.363
 25.2316  11077.9  104.855
 25.2736  11056.2  104.528
 25.3156  10953.2  104.116
 25.3576  10859.7  104.076
 25.3996  10847.2  104.009
 25.4416  10939.8  104.432
 25.4836  10742.3  104.001
 25.5256  10853.7  103.91
 25.5676  11015.7  104.411
 25.6096  10596.1  102.966
 25.6516  10972.5  104.275
 25.6936  10700.8  103.29
 25.7356  10706.7  103.448
 25.7776  10868.7  103.913
 25.8196  10755  103.526
 25.8616  10724.4  103.308
 25.9036  10992.4  104.059
 25.9456  10720  103.345
 25.9876  10633.9  102.865
 26.0296  10862.2  103.7
 26.0716  10609.1  102.821
 26.1136  10924.5  104.269
 26.1556  10870.1  103.303
 26.1976  10483.1  102.447
 26.2396  10636.4  102.603
 26.2816  10497.7  102.29
 26.3236  10748.9  103.571
 26.3656  10659.2  102.96
 26.4076  10651.6  103.125
 26.4496  11026.2  104.416
 26.4916  10768.8  103.182
 26.5336  10534  102.38
 26.5756  10885.2  103.932
 26.6176  10753.4  103.351
 26.6596  10492.8  102.4
 26.7016  10492.7  102.194
 26.7436  10311.3  101.397
 26.7856  10324.3  101.442
 26.8276  10289.2  101.226
 26.8696  10294.6  101.132
 26.9116  10246  100.834
 26.9536  10223.8  100.77
 26.9956  10244.7  100.901
 27.0376  10131.2  100.557
 27.0796  10223.8  100.794
 27.1216  10403.4  101.712
 27.1636  10036.8  100.062
 27.2056  10249.3  101
 27.2476  10196.2  100.737
 27.2896  9985.94  99.7292
 27.3316  10006  99.6194
 27.3736  9972.45  99.7095
 27.4156  10057.6  99.9845
 27.4576  10233.6  101.086
 27.4996  10190  100.474
 27.5416  10137.8  100.526
 27.5836  10046.7  99.8924
 27.6256  10435.5  101.975
 27.6676  10241.7  101.04
 27.7096  10082  100.116
 27.7516  10527.9  102.461
 27.7936  10446.7  102.242
 27.8356  10259.6  100.931
 27.8776  10090.5  100.146
 27.9196  9917.24  99.1352
 27.9616  10259.9  101.022
 28.0036  10075.8  100.086
 28.0456  9856.72  99.1157
 28.0876  9929.86  99.575
 28.1296  9854.3  99.0417
 28.1716  9957.49  99.5704
 28.2136  9839.86  98.9426
 28.2556  9859.79  99.165
 28.2976  9729.87  98.4888
 28.3396  9902.38  99.1607
 28.3816  9818.49  98.7249
 28.4236  10094.9  100.257
 28.4656  9646.13  98.0392
 28.5076  9616.08  97.5288
 28.5496  9668.47  98.0543
 28.5916  9695.16  97.9969
 28.6336  9610.03  97.9069
 28.6756  9697.45  97.5597
 28.7176  9652.37  97.8741
 28.7596  9414.02  96.5587
 28.8016  9526.42  97.2449
 28.8436  9524.1  97.3928
 28.8856  9538.3  97.3197
 28.9276  9538.64  97.5594
 28.9696  9531.32  97.1834
 29.0116  9466.95  97.0301
 29.0536  9435.21  97.0756
 29.0956  9476.14  97.0106
 29.1376  9538.43  97.2867
 29.1796  9335.82  96.2915
 29.2216  9416.65  96.5553
 29.2636  9435.82  96.6495
 29.3056  9385.37  96.2643
 29.3476  9280.49  96.2352
 29.3896  9520.32  97.5636
 29.4316  9403.15  96.3071
 29.4736  9400.18  96.3542
 29.5156  9596.52  97.2743
 29.5576  9440.89  97.2156
 29.5996  9342.64  95.9756
 29.6416  9392.42  96.345
 29.6836  9384.5  96.2396
 29.7256  9301.82  96.3709
 29.7676  9486.06  96.9844
 29.8096  9412.23  96.5456
 29.8516  9259.39  96.0817
 29.8936  9458.3  97.2089
 29.9356  9240.65  95.8434
 29.9776  9383.54  96.7341
 30.0196  9282.1  95.6038
 30.0616  9365  96.4014
 30.1036  9280.03  95.7923
 30.1456  9079.66  94.9996
 30.1876  9137.56  95.26
 30.2296  9251.98  95.7962
 30.2716  9333.47  95.8667
 30.3136  9283.92  96.202
 30.3556  9309.73  96.6126
 30.3976  9164.68  97.3286
 30.4396  9361.96  95.7575
 30.4816  9248.07  94.7772
 30.5236  9257.19  94.8535
 30.5656  9299.56  95.7084
 30.6076  9243.92  95.1883
 30.6496  9149.41  94.7529
 30.6916  9154.77  94.8671
 30.7336  9156.03  95.0236
 30.7756  9243.48  95.7864
 30.8176  9190.52  95.2141
 30.8596  9159.94  94.8239
 30.9016  9047.04  94.1106
 30.9436  9099.19  94.6073
 30.9856  9185.38  95.16
 31.0276  8986.07  93.7394
 31.0696  8983.01  94.1611
 31.1116  9157.95  95.177
 31.1536  9194.3  95.2447
 31.1956  8990.38  94.2729
 31.2376  8949.71  94.0636
 31.2796  9024.23  94.0062
 31.3216  8929.57  93.4575
 31.3636  9059.85  94.8088
 31.4056  9108.5  96.3726
 31.4476  8926.2  93.3282
 31.4896  8940.31  93.9008
 31.5316  9072.7  94.042
 31.5736  9653.52  96.7788
 31.6156  9511.83  96.0839
 31.6576  9086.33  94.0098
 31.6996  9050.69  93.4979
 31.7416  9085.66  94.6032
 31.7836  8908.99  92.8411
 31.8256  9029.92  93.8112
 31.8676  9211.39  94.6667
 31.9096  8886.64  93.1969
 31.9516  8872.71  93.4133
 31.9936  8792.76  92.8225
 32.0356  9012.95  94.0469
 32.0776  8903.09  93.3607
 32.1196  8924.64  93.486
 32.1616  9039.95  93.6292
 32.2036  8690.71  92.3033
 32.2456  8841.77  93.4742
 32.2876  8862.2  92.915
 32.3296  8679.36  92.0814
 32.3716  8749.16  92.5512
 32.4136  8839.23  93.2341
 32.4556  8898.43  92.9991
 32.4976  8904.61  92.9224
 32.5396  8762.51  92.2061
 32.5816  8751.68  92.1652
 32.6236  8849.47  92.8513
 32.6656  8900.64  93.6548
 32.7076  8676.08  92.1254
 32.7496  8771.83  92.3069
 32.7916  8713.83  91.9605
 32.8336  8703.12  91.9975
 32.8756  8670.07  91.644
 32.9176  8701.69  92.1961
 32.9596  8738.84  92.4585
 33.0016  8658.49  91.8346
 33.0436  8779.16  92.6445
 33.0856  8615.38  91.8383
 33.1276  8620.87  91.6065
 33.1696  8734.57  92.0606
 33.2116  8693.66  92.0635
 33.2536  8750.82  92.3733
 33.2956  8619.9  91.7556
 33.3376  8475.3  90.7862
 33.3796  8675.74  92.0031
 33.4216  8659.35  91.5126
 33.4636  8613.45  91.4224
 33.5056  8624.29  91.5496
 33.5476  8505.72  91.0768
 33.5896  8726.85  91.977
 33.6316  8530.72  91.2976
 33.6736  8512.48  91.4418
 33.7156  8521.93  91.5248
 33.7576  8595.27  91.5544
 33.7996  8625.16  91.4784
 33.8416  8400.69  90.4526
 33.8836  8506.85  90.8138
 33.9256  8524.76  90.9797
 33.9676  8594.15  91.2414
 34.0096  8357.85  90.2911
 34.0516  8419.2  90.2631
 34.0936  8373.96  90.2802
 34.1356  8489.48  90.6433
 34.1776  8407.71  90.2174
 34.2196  8376.31  90.2265
 34.2616  8353.45  90.292
 34.3036  8365.59  90.5493
 34.3456  8311.8  90.0146
 34.3876  8572.11  91.4621
 34.4296  8363.68  89.9533
 34.4716  8396.41  90.2786
 34.5136  8391.54  90.4515
 34.5556  8346.45  90.4534
 34.5976  8339.66  90.2546
 34.6396  8412.02  90.3266
 34.6816  8436.29  90.5782
 34.7236  8341.01  89.85
 34.7656  8335.81  90.0129
 34.8076  8225.48  89.7262
 34.8496  8311.38  90.0561
 34.8916  8332.12  90.0474
 34.9336  8421.95  90.4944
 34.9756  8622.74  91.4862
 35.0176  8377.79  90.6948
 35.0596  8306.43  90.1393
 35.1016  8333.06  90.0589
 35.1436  8328.25  89.7202
 35.1856  8296.78  89.6774
 35.2276  8307.2  89.9043
 35.2696  8242.81  89.7416
 35.3116  8272  89.9962
 35.3536  8209.89  89.4096
 35.3956  8249.47  89.299
 35.4376  8228.21  89.7277
 35.4796  8354.84  90.4773
 35.5216  8214.15  89.6046
 35.5636  8000.92  89.2304
 35.6056  8295.79  89.8852
 35.6476  8339.91  90.0218
 35.6896  8263.13  89.7751
 35.7316  8155.69  89.0824
 35.7736  8180.76  89.4114
 35.8156  8032.32  88.6015
 35.8576  8217.49  89.853
 35.8996  8230.2  89.8995
 35.9416  8240.19  89.46
 35.9836  8140.3  89.3532
 36.0256  8159.22  89.3819
 36.0676  8213.76  89.2273
 36.1096  8024.14  88.5403
 36.1516  8173.84  89.2537
 36.1936  8214.25  89.3155
 36.2356  8212.54  89.9471
 36.2776  8145.88  89.064
 36.3196  8087.07  88.4244
 36.3616  8137.09  88.8235
 36.4036  8111.53  88.7449
 36.4456  8040.58  88.5585
 36.4876  7981.75  88.1735
 36.5296  8058.34  88.64
 36.5716  8075.03  89.5015
 36.6136  8223.81  89.0865
 36.6556  8261.8  89.4993
 36.6976  8112.69  89.1821
 36.7396  8096.94  88.9205
 36.7816  7987.02  88.5889
 36.8236  8204.72  89.7138
 36.8656  8013.47  88.7384
 36.9076  8014.31  88.7444
 36.9496  8041.63  88.909
 36.9916  8024.88  88.2956
 37.0336  8200.53  89.5751
 37.0756  8116.19  88.9052
 37.1176  8007.93  88.6712
 37.1596  7873.9  87.8367
 37.2016  7932.97  88.341
 37.2436  8011.86  88.1544
 37.2856  7975.16  88.1985
 37.3276  8127.62  88.3908
 37.3696  7947.84  88.2858
 37.4116  8006.57  88.5152
 37.4536  7986.59  88.2733
 37.4956  7831.82  87.4609
 37.5376  7894.1  89.3357
 37.5796  7902.67  89.3516
 37.6216  7709.99  86.5626
 37.6636  7846.02  87.2356
 37.7056  7918.35  87.8206
 37.7476  7917.21  87.3641
 37.7896  7924.52  87.8921
 37.8316  7575.17  86.1059
 37.8736  7897.54  87.4412
 37.9156  7900.19  87.4603
 37.9576  7916.06  87.5882
 37.9996  7654.2  85.7082
 38.0416  7782.05  87.2168
 38.0836  7896.76  87.7599
 38.1256  7824.17  87.3054
 38.1676  7698.34  86.7406
 38.2096  7927.38  87.6558
 38.2516  8012.71  88.2254
 38.2936  7839.29  87.1706
 38.3356  7932.56  87.6032
 38.3776  7850.42  87.4174
 38.4196  7984.49  88.0139
 38.4616  7775.84  87.0874
 38.5036  7994.37  88.1479
 38.5456  7597.11  86.7446
 38.5876  7786.49  87.8475
 38.6296  7664.35  86.1539
 38.6716  7680.61  86.0408
 38.7136  7563.99  85.3277
 38.7556  7678.09  86.4579
 38.7976  7556.88  85.7151
 38.8396  7647.48  86.6783
 38.8816  7593.53  86.1566
 38.9236  7594.43  85.9773
 38.9656  7584.7  85.8365
 39.0076  7814.61  86.5393
 39.0496  7618.94  85.9807
 39.0916  7881.59  87.0902
 39.1336  7616.04  86.0221
 39.1756  7587.6  85.9266
 39.2176  7653.42  86.8187
 39.2596  7579.47  86.3207
 39.3016  7715.72  86.6598
 39.3436  7613.58  86.5165
 39.3856  7814.04  87.0987
 39.4276  7780.84  87.4122
 39.4696  7578.43  85.8963
 39.5116  7649.56  86.8041
 39.5536  7684.94  87.4227
 39.5956  7751.57  86.9069
 39.6376  7686.24  86.3817
 39.6796  7763.92  86.7232
 39.7216  7753.1  86.7609
 39.7636  7767.23  87.4056
 39.8056  7754.54  87.1186
 39.8476  7729.48  87.2217
 39.8896  7602.47  86.1423
 39.9316  7613.75  86.4557
 39.9736  7856.91  87.3936
 40.0156  7728.16  86.5045
 40.0576  7692.08  86.6538
 40.0996  7844.68  86.7001
 40.1416  7769.57  87.0693
 40.1836  7746.77  86.833
 40.2256  7760.96  86.9582
 40.2676  7693.38  86.743
 40.3096  7741.33  86.8782
 40.3516  7781.51  87.2857
 40.3936  7856.95  87.1962
 40.4356  7705.08  86.5342
 40.4776  7727.62  86.9143
 40.5196  7782.38  87.507
 40.5616  7813.5  87.3287
 40.6036  7681.09  86.8302
 40.6456  7707.22  86.5935
 40.6876  7841.55  87.331
 40.7296  7865.87  87.601
 40.7716  7738.41  87.0206
 40.8136  7679.95  86.6277
 40.8556  7704.04  86.9049
 40.8976  7830.38  87.53
 40.9396  7680.99  87.0407
 40.9816  7852.37  87.2936
 41.0236  7806.18  86.8154
 41.0656  7849.6  87.5939
 41.1076  7863.54  87.4434
 41.1496  7874.72  87.4187
 41.1916  7897.89  87.8669
 41.2336  7720.03  86.8611
 41.2756  7712.3  86.428
 41.3176  7750.62  87.2568
 41.3596  7798.53  87.2537
 41.4016  7722.26  87.0858
 41.4436  7827.53  87.4597
 41.4856  7807.96  87.5092
 41.5276  7735.5  87.1264
 41.5696  7792.02  87.0575
 41.6116  7731.04  87.1306
 41.6536  7672.96  86.659
 41.6956  7834.94  87.5462
 41.7376  7579.76  86.2121
 41.7796  7701.21  86.8245
 41.8216  7781.39  87.469
 41.8636  7761.42  87.2943
 41.9056  7672.67  86.5882
 41.9476  7697.2  86.9554
 41.9896  7579.32  85.9593
 42.0316  7781.84  87.1887
 42.0736  7665.88  86.6698
 42.1156  7715.39  86.7613
 42.1576  7731  86.9406
 42.1996  7675.06  86.7727
 42.2416  7743.51  86.7396
 42.2836  7561.2  85.8303
 42.3256  7614.78  86.2453
 42.3676  7579.19  85.8512
 42.4096  7658.68  86.2605
 42.4516  7730.32  86.7545
 42.4936  7616.21  86.1774
 42.5356  7624.18  86.3491
 42.5776  7744.61  86.9724
 42.6196  7710.1  86.7505
 42.6616  7564.59  86.1785
 42.7036  7674.51  86.1916
 42.7456  7605.42  86.1596
 42.7876  7497.2  85.6384
 42.8296  7672.06  86.53
 42.8716  7553.74  85.9533
 42.9136  7600.53  85.9661
 42.9556  7662.96  86.494
 42.9976  7669.64  86.4885
 43.0396  7615.06  85.9211
 43.0816  7497.91  85.6262
 43.1236  7480.32  85.5875
 43.1656  7550.09  85.8167
 43.2076  7475.06  85.4933
 43.2496  7587.11  85.9416
 43.2916  7586.57  86.3041
 43.3336  7619.74  86.3344
 43.3756  7516.85  85.502
 43.4176  7463.27  85.2821
 43.4596  7406.08  84.8115
 43.5016  7507.17  85.7874
 43.5436  7436.31  85.2889
 43.5856  7433.54  85.2936
 43.6276  7468.4  85.3899
 43.6696  7415.14  85.2198
 43.7116  7507.74  85.3763
 43.7536  7524.39  85.9561
 43.7956  7366.84  86.2218
 43.8376  7423.4  85.107
 43.8796  7557.07  85.9484
 43.9216  7419.64  85.0817
 43.9636  7394.84  85.0426
 44.0056  7361.64  85.0841
 44.0476  7380.47  84.8301
 44.0896  7296.72  84.6813
 44.1316  7502.79  85.5364
 44.1736  7415.07  85.0138
 44.2156  7390.25  84.7297
 44.2576  7408.2  85.1547
 44.2996  7402.14  85.0875
 44.3416  7343.48  84.5166
 44.3836  7225.04  84.1477
 44.4256  7290.16  84.1859
 44.4676  7293.99  84.3607
 44.5096  7362  84.8919
 44.5516  7393.64  85.0427
 44.5936  7227.18  84.0319
 44.6356  7299.9  84.1961
 44.6776  7372.65  84.9287
 44.7196  7365.72  85.1577
 44.7616  7282.57  86.0219
 44.8036  7211.08  84.2626
 44.8456  7375.55  85.2065
 44.8876  7253.07  84.357
 44.9296  7247.3  83.7912
 44.9716  7356.48  84.8458
 45.0136  7255.39  84.1974
 45.0556  7384.72  85.0249
 45.0976  7242.73  84.2659
 45.1396  7217.9  83.8888
 45.1816  7223.97  83.6791
 45.2236  7242.47  83.8559
 45.2656  7127.71  83.6786
 45.3076  7093.35  83.2681
 45.3496  7171.33  84.0167
 45.3916  7167.45  84.2612
 45.4336  7140.5  83.9556
 45.4756  7070.34  83.3963
 45.5176  7133.54  83.3965
 45.5596  7237.9  84.1223
 45.6016  7157.37  84.0612
 45.6436  7144.53  83.186
 45.6856  7048.76  83.2601
 45.7276  7111.52  85.4242
 45.7696  7084.04  84.4248
 45.8116  7174.43  84.4157
 45.8536  7146.13  84.1465
 45.8956  7156.67  83.5746
 45.9376  7165.05  83.0961
 45.9796  7198.87  83.9815
 46.0216  7020.43  83.2574
 46.0636  7230.06  83.6447
 46.1056  7205.44  83.4866
 46.1476  7077.37  83.3216
 46.1896  7091.94  83.5525
 46.2316  7085.52  83.3914
 46.2736  7108.08  83.7285
 46.3156  6915.16  82.3329
 46.3576  7164.49  84.0058
 46.3996  7095.43  83.7593
 46.4416  7057.51  83.0912
 46.4836  7034.79  83.3344
 46.5256  7109.66  83.7158
 46.5676  7116.5  83.8681
 46.6096  7097.89  83.6855
 46.6516  7225.67  83.495
 46.6936  7227.49  83.9919
 46.7356  7142.45  83.6036
 46.7776  7047.48  83.8682
 46.8196  7107.06  83.9621
 46.8616  6890.31  82.4825
 46.9036  6957.08  82.5438
 46.9456  6924.23  82.0026
 46.9876  6925  82.0877
 47.0296  6880.9  82.4962
 47.0716  6891.95  82.3877
 47.1136  6950.99  82.4313
 47.1556  6858  81.7469
 47.1976  7012.83  82.8095
 47.2396  6908.64  82.5158
 47.2816  6849.25  81.8638
 47.3236  6905.91  82.5576
 47.3656  6873.08  82.2947
 47.4076  6898.77  82.192
 47.4496  6854.51  82.0895
 47.4916  6815.44  82.0362
 47.5336  6973.64  82.8049
 47.5756  6886.6  82.3569
 47.6176  6702.9  81.1838
 47.6596  6752.13  81.2129
 47.7016  6968.8  82.3312
 47.7436  7036.14  83.0489
 47.7856  6961.52  82.6384
 47.8276  6892.14  82.2767
 47.8696  6848.29  82.0997
 47.9116  6935.14  82.3405
 47.9536  6872.47  81.9087
 47.9956  6840.61  82.4102
 48.0376  6750.17  81.6402
 48.0796  6839.1  82.3041
 48.1216  6875.74  82.3494
 48.1636  6965.99  82.4746
 48.2056  6895.94  82.3131
 48.2476  6896  82.6178
 48.2896  6822.85  82.09
 48.3316  6835.46  82.1044
 48.3736  6774.04  81.7563
 48.4156  6767.57  81.5736
 48.4576  6702.66  81.4675
 48.4996  6819.91  81.6459
 48.5416  6828.55  82.0195
 48.5836  6813.92  81.6095
 48.6256  6817.26  81.837
 48.6676  6742.77  81.882
 48.7096  6790.88  81.4622
 48.7516  6838.54  81.8954
 48.7936  6656.38  80.8525
 48.8356  6749.17  81.467
 48.8776  6753.86  81.9755
 48.9196  6846.02  81.9874
 48.9616  6688.75  81.4176
 49.0036  6813.11  82.5039
 49.0456  6640.71  81.4306
 49.0876  6768.08  81.8614
 49.1296  6643.49  81.1636
 49.1716  6683.17  81.2812
 49.2136  6773.66  81.7488
 49.2556  6720.69  81.4707
 49.2976  6726.06  81.5719
 49.3396  6654.24  81.1671
 49.3816  6837.21  81.7456
 49.4236  6678.41  81.1958
 49.4656  6565.85  80.522
 49.5076  6667.69  80.9035
 49.5496  6622.09  80.5644
 49.5916  6672.64  80.9043
 49.6336  6592.46  80.6217
 49.6756  6715.09  81.6012
 49.7176  6694.93  81.417
 49.7596  6740.29  81.6417
 49.8016  6632.39  80.7226
 49.8436  6599.14  80.8171
 49.8856  6628.18  80.9975
 49.9276  6613.92  81.0028
 49.9696  6622.33  81.047
 50.0116  6669.1  81.4586
 50.0536  6649.79  81.2911
 50.0956  6604.35  81.0809
 50.1376  6583.8  80.661
 50.1796  6511.87  80.4785
 50.2216  6543.2  80.6681
 50.2636  6473.95  79.867
 50.3056  6522.06  80.3351
 50.3476  6462.33  79.9901
 50.3896  6506.71  80.2314
 50.4316  6567.96  80.4512
 50.4736  6523.45  80.391
 50.5156  6566.02  80.6475
 50.5576  6592.93  80.5717
 50.5996  6435.65  79.8791
 50.6416  6524.28  80.361
 50.6836  6592.96  80.8325
 50.7256  6589.84  80.7493
 50.7676  6540.84  80.7155
 50.8096  6543.98  80.3183
 50.8516  6492.75  80.4104
 50.8936  6471.22  80.0673
 50.9356  6459.06  80.0926
 50.9776  6528.12  80.6646
 51.0196  6389.3  79.9264
 51.0616  6405.68  79.3744
 51.1036  6416.91  79.7756
 51.1456  6507.9  80.264
 51.1876  6399.5  78.9558
 51.2296  6337.64  79.1919
 51.2716  6429.56  79.4755
 51.3136  6333.04  79.3156
 51.3556  6405.32  79.4017
 51.3976  6403.61  79.5413
 51.4396  6228.78  78.7392
 51.4816  6317.5  79.1527
 51.5236  6407.99  79.8032
 51.5656  6477.29  79.8486
 51.6076  6361.02  79.2058
 51.6496  6383.99  79.5366
 51.6916  6275.12  79.1988
 51.7336  6329.88  79.6333
 51.7756  6378.31  79.6426
 51.8176  6413.19  79.9516
 51.8596  6244.85  78.9232
 51.9016  6406.7  79.5563
 51.9436  6305.22  80.3382
 51.9856  6303.9  80.7633
 52.0276  6367.85  79.7141
 52.0696  6420.77  80.1117
 52.1116  6298.61  79.4507
 52.1536  6342.03  79.5638
 52.1956  6427.6  79.6336
 52.2376  6464.74  80.0322
 52.2796  6375.41  79.2838
 52.3216  6178.81  78.7268
 52.3636  6386.28  79.6218
 52.4056  6319.55  79.06
 52.4476  6260.76  79.0532
 52.4896  6149  78.3926
 52.5316  6169.68  78.5676
 52.5736  6290.3  79.0625
 52.6156  6276.62  79.3475
 52.6576  6253.36  78.662
 52.6996  6141.99  78.8982
 52.7416  6294.63  79.7287
 52.7836  6293.98  79.6107
 52.8256  6293.28  78.8493
 52.8676  5989.86  77.4794
 52.9096  6245.14  79.1902
 52.9516  6243.74  79.54
 52.9936  6183.33  79.5349
 53.0356  6101.83  78.0447
 53.0776  6109.04  78.3729
 53.1196  6036.46  77.9991
 53.1616  6169.26  78.8987
 53.2036  6048.39  78.08
 53.2456  5992.32  77.8189
 53.2876  6190.08  78.7971
 53.3296  6156.72  78.9047
 53.3716  6083.45  78.1864
 53.4136  6156.79  78.8017
 53.4556  6097.86  78.4483
 53.4976  6036.12  77.9095
 53.5396  6099.35  78.6949
 53.5816  6077.06  78.1996
 53.6236  6056.77  78.4001
 53.6656  6190.48  78.8947
 53.7076  6064.67  78.0435
 53.7496  6033.22  77.9699
 53.7916  6233.95  79.3797
 53.8336  6032.82  77.991
 53.8756  5916.88  77.7612
 53.9176  6082.5  78.2
 53.9596  6074.65  78.8962
 54.0016  6051.39  78.0977
 54.0436  6142.44  78.8937
 54.0856  6086.27  77.9697
 54.1276  6059.38  77.9997
 54.1696  6162.89  78.83
 54.2116  5937.58  77.1432
 54.2536  6022.69  77.5139
 54.2956  6145.18  78.3377
 54.3376  6046.49  78.1841
 54.3796  6025.35  77.945
 54.4216  6147.92  78.7796
 54.4636  6102.65  78.4524
 54.5056  6109.76  78.3246
 54.5476  5993.77  77.8998
 54.5896  6169.41  78.8602
 54.6316  6089.6  78.2107
 54.6736  6009.07  77.7172
 54.7156  6072.47  78.1888
 54.7576  5974.05  77.5597
 54.7996  5976.94  77.7305
 54.8416  6077.24  78.4059
 54.8836  5990  77.9575
 54.9256  6003.3  77.794
 54.9676  6124.59  78.4415
 55.0096  6067.76  78.1449
 55.0516  6019.02  77.9878
 55.0936  5997.86  77.5499
 55.1356  6009.26  77.6719
 55.1776  5952.44  77.5683
 55.2196  6106.93  78.3508
 55.2616  5989.94  77.8083
 55.3036  5909.13  77.4366
 55.3456  5967.24  77.9578
 55.3876  6017.97  78.0352
 55.4296  6039.21  78.1515
 55.4716  5989.5  77.8659
 55.5136  6002.42  77.7065
 55.5556  6084.52  78.3132
 55.5976  6072.87  78.2919
 55.6396  5974.79  77.5283
 55.6816  6030.26  77.8423
 55.7236  5921.04  77.2695
 55.7656  6084.82  77.9982
 55.8076  6069.87  77.8837
 55.8496  5961.9  77.6127
 55.8916  5978.13  77.7729
 55.9336  5930.45  77.3139
 55.9756  5927.26  77.192
 56.0176  5919.51  77.2867
 56.0596  5923.05  77.2966
 56.1016  5983.11  77.7247
 56.1436  5952.95  77.7553
 56.1856  6005.79  77.8468
 56.2276  5980.06  77.7404
 56.2696  5998.73  77.8324
 56.3116  5943.78  77.8658
 56.3536  5929.66  77.4388
 56.3956  5924.53  77.3991
 56.4376  5909.98  77.3365
 56.4796  5997.12  77.7066
 56.5216  5996.85  78.0793
 56.5636  5938.74  77.2942
 56.6056  5875.5  77.11
 56.6476  6016.87  77.6673
 56.6896  5948.7  77.6602
 56.7316  5982.7  77.7956
 56.7736  5935.71  77.4852
 56.8156  5904.37  77.2757
 56.8576  5978  77.6925
 56.8996  5938.61  77.3833
 56.9416  5951.7  77.6337
 56.9836  5848.12  76.6183
 57.0256  5933.42  77.4843
 57.0676  5909.67  77.4473
 57.1096  6000.33  77.8343
 57.1516  5990.93  77.7908
 57.1936  5905.63  77.0273
 57.2356  5979.53  77.8231
 57.2776  5898.86  77.2583
 57.3196  5980.03  78.1444
 57.3616  5846.21  76.7735
 57.4036  5959.33  77.5767
 57.4456  5928.08  77.3413
 57.4876  5923.69  77.1718
 57.5296  5820.7  76.7309
 57.5716  5869.82  77.144
 57.6136  5925.39  77.3277
 57.6556  5891.78  77.2456
 57.6976  5979.18  77.6416
 57.7396  5828.69  77.0211
 57.7816  5813.21  77.2702
 57.8236  5882.65  77.5264
 57.8656  5885.43  77.2111
 57.9076  5935.15  77.5696
 57.9496  5855.63  77.3867
 57.9916  5921.03  77.2848
 58.0336  5896.06  77.4475
 58.0756  5929.71  77.2592
 58.1176  5872.72  76.9327
 58.1596  5812.38  77.0954
 58.2016  6015.34  77.6652
 58.2436  6014.76  78.0539
 58.2856  5963.37  77.6393
 58.3276  5885.73  77.4995
 58.3696  5848.69  77.0052
 58.4116  5944.97  77.5031
 58.4536  5951.21  77.4273
 58.4956  5882.77  77.1675
 58.5376  5997.09  77.4882
 58.5796  5904.98  77.3075
 58.6216  5970.07  77.5517
 58.6636  5961.68  77.7081
 58.7056  5904.68  77.1939
 58.7476  5879.94  77.4698
 58.7896  5918.19  77.3694
 58.8316  5839.7  76.85
 58.8736  6021.95  78.0521
 58.9156  5953.39  77.6461
 58.9576  6011.24  78.2226
 58.9996  6037.21  77.7509
 59.0416  6121.41  78.6675
 59.0836  5983.89  77.6976
 59.1256  5932.36  77.7478
 59.1676  5952.84  78.496
 59.2096  6005.53  78.1602
 59.2516  6130.84  78.5493
 59.2936  6022.43  78.1794
 59.3356  6029.43  78.1026
 59.3776  5955.24  77.7884
 59.4196  5913.9  77.4519
 59.4616  5994.29  77.8398
 59.5036  5933.55  77.4792
 59.5456  6212.41  78.9682
 59.5876  5969.95  77.6018
 59.6296  5926.73  77.389
 59.6716  5905.1  77.305
 59.7136  6137.1  78.7971
 59.7556  6096.04  78.6701
 59.7976  5786.5  76.3944
 59.8396  5850.91  76.7143
 59.8816  6022.61  78.3765
 59.9236  5955.16  77.5825
 59.9656  5971.64  77.9482
 60.0076  5952.89  77.1885
 60.0496  5948.63  77.6609
 60.0916  6140.99  78.3199
 60.1336  5936.5  78.1026
 60.1756  5923.44  79.1894
 60.1996  0.0000000E+00  0.0000000E+00