File: docs/examples/opeando_xrd/IS17_D/Data/IS17_D/17_Db_f00098.xye
# /beamlines/bl04/projects/cycle2025-II/20250340211-lsimonelli/DATA/IS17_D/17_Db_f00098.xye : mythproc.py merge -s 0.006 -l 0.5 -f /beamlines/bl04/inhouse/ff/FlatField/ff_20Nov2024rod8mm60s_17keV.raw -b True -c true -o xye /beamlines/bl04/projects/cycle2025-II/20250340211-lsimonelli/DATA/IS17_D/17_Db_00098.dat
# IsMon = [6785271, 6780759, 6784652]  IsPos = [-1.4999, -2.4884, -3.4988]
# Wave = 0.4962  CalPath /beamlines/bl04/projects/cycle2025-II/20250340211-lsimonelli/DATA/Align/Si_Pos1_25keV_f00001.cal
# Date = 2025-09-24_21:00:32 Dt = 4.8000  Bin = 0.0060  <imon> = 6783561 +/- 1997 (Min/Max) 6780759 / 6785271
# icurr 252.4951  mocoIn 1.7221E-05  mocoOut 0.8081  i15 7.1081e+06  imon 6.78356e+06  i7 4.6667  iEMpd_timer 4.8000  iEMpd_1 3.3698E-08  iEMpd_2 7.7967E-08  iEMpd_3 1.6932E-08  iEMpd_4 4.8753E-08  iEMhp_timer 4.8000  iEMhp_1 4.9319E-06  iEMhp_2 -2.5149E-08  iEMhp_3 -2.4628E-08  iEMhp_4 -2.2288E-08
#      9776
 1.5856  44932.6  217.635
 1.6276  52038.5  230.194
 1.6696  57168.2  240.422
 1.7116  64806.8  256.482
 1.7536  72606.3  270.32
 1.7956  76638.1  278.418
 1.8376  73812.1  273.67
 1.8796  63194.1  251.363
 1.9216  52320.1  229.624
 1.9636  44823.9  211.668
 2.0056  41537.5  202.971
 2.0476  38540.3  197.654
 2.0896  37106.8  192.806
 2.1316  35920.9  188.788
 2.1736  34578.3  186.696
 2.2156  35463.5  187.553
 2.2576  33498  182.936
 2.2996  32790.4  181.657
 2.3416  32843.1  180.349
 2.3836  31957.7  178.014
 2.4256  31129.6  176.265
 2.4676  31009.1  175.674
 2.5096  30150.8  173.283
 2.5516  29037.1  173.975
 2.5936  29529.1  171.929
 2.6356  28791.2  170.488
 2.6776  28555.7  168.669
 2.7196  28203  168.124
 2.7616  27956.8  167.171
 2.8036  27705.7  166.582
 2.8456  27814.4  167.57
 2.8876  26738  164.162
 2.9296  26727.1  164.252
 2.9716  26278.3  162.35
 3.0136  26169.8  162.085
 3.0556  26181.4  162.505
 3.0976  26298.1  161.752
 3.1396  26041.1  161.708
 3.1816  25495.8  159.949
 3.2236  25251.6  159.171
 3.2656  25294.4  158.352
 3.3076  25002.6  158.913
 3.3496  25251.7  158.613
 3.3916  25641.9  159.652
 3.4336  25844.6  160.873
 3.4756  26412.1  162.558
 3.5176  26976.3  164.057
 3.5596  26563.4  165.266
 3.6016  26545  162.802
 3.6436  25818.3  161.691
 3.6856  25576.1  159.206
 3.7276  24323.9  156.349
 3.7696  24372.8  156.69
 3.8116  23855.6  154.915
 3.8536  24147.9  155.785
 3.8956  23939.7  154.933
 3.9376  23595.8  154.089
 3.9796  23697.9  153.905
 4.0216  23824.1  153.352
 4.0636  23744.2  154.559
 4.1056  23745.7  154.228
 4.1476  23982.2  155.293
 4.1896  23978.4  155.153
 4.2316  24414  156.36
 4.2736  24727.5  157.173
 4.3156  24868.5  157.851
 4.3576  25739.2  160.502
 4.3996  25828.1  161.061
 4.4416  26294.1  162.074
 4.4836  26684.6  163.447
 4.5256  27471.8  166.44
 4.5676  27151.4  165.73
 4.6096  27923.1  166.696
 4.6516  28244.4  167.357
 4.6936  28117.6  167.815
 4.7356  28368.2  168.384
 4.7776  28302.6  168.021
 4.8196  28212.6  168.398
 4.8616  27624.6  166.137
 4.9036  27355.5  165.039
 4.9456  27358.7  165.714
 4.9876  26509.2  163.023
 5.0296  26978.9  164.295
 5.0716  26579.7  163.829
 5.1136  26813.2  164.271
 5.1556  27028.1  164.392
 5.1976  27755.6  166.562
 5.2396  27581.1  165.738
 5.2816  27711.7  166.601
 5.3236  27746.2  166.408
 5.3656  27153.5  165.557
 5.4076  26898.5  164.909
 5.4496  26865.4  164.316
 5.4916  27102.7  164.78
 5.5336  27009.9  164.517
 5.5756  27236.1  165.201
 5.6176  27128.8  164.319
 5.6596  27374.4  166.053
 5.7016  27492.1  165.673
 5.7436  27802.9  166.888
 5.7856  27416.2  165.791
 5.8276  27715.3  166.41
 5.8696  27787.1  166.792
 5.9116  27806.6  167.453
 5.9536  28223.9  168.441
 5.9956  28380.8  168.302
 6.0376  28338.8  168.798
 6.0796  28458.3  168.984
 6.1216  28450.1  169.167
 6.1636  29007.6  169.857
 6.2056  28742.7  169.763
 6.2476  28816.4  169.846
 6.2896  29197.1  170.642
 6.3316  29234.5  170.916
 6.3736  29167.9  170.625
 6.4156  29463.3  171.366
 6.4576  29418.5  170.86
 6.4996  29321.9  171.06
 6.5416  29553.6  171.862
 6.5836  29449.4  171.804
 6.6256  29631.5  171.881
 6.6676  30116.7  172.85
 6.7096  30186.8  173.907
 6.7516  30452  174.331
 6.7936  30514.8  173.901
 6.8356  30650.6  174.399
 6.8776  30762.7  175.531
 6.9196  30894.1  176.3
 6.9616  31342.8  177.029
 7.0036  31874.4  178.157
 7.0456  31808.1  177.268
 7.0876  31497.5  178.09
 7.1296  31525.7  177.299
 7.1716  31771.5  177.519
 7.2136  31738.4  177.211
 7.2556  31615.9  177.028
 7.2976  31359.3  176.809
 7.3396  31391.1  177.122
 7.3816  31421.1  177.413
 7.4236  31747.9  177.629
 7.4656  32086.1  178.022
 7.5076  32185.6  178.464
 7.5496  31909.9  178.229
 7.5916  32175.1  179.018
 7.6336  32586.9  180.041
 7.6756  32652.8  180.059
 7.7176  33145.7  181.754
 7.7596  32866.6  182.19
 7.8016  33456.3  186.063
 7.8436  33182.5  181.991
 7.8856  33249.4  181.778
 7.9276  33708.3  183.425
 7.9696  33928.5  184.336
 8.0116  34945  185.632
 8.0536  35173.6  186.485
 8.0956  35062.5  187.369
 8.1376  35498.9  187.999
 8.1796  35724.7  189.139
 8.2216  36466.6  189.824
 8.2636  36393.7  189.892
 8.3056  36197.7  190.131
 8.3476  37143.7  191.94
 8.3896  36688.2  190.834
 8.4316  36727.5  191.102
 8.4736  37097.5  191.539
 8.5156  36781.3  190.994
 8.5576  36466.1  191.147
 8.5996  36113.5  189.098
 8.6416  36367  191.021
 8.6836  35794.4  189.329
 8.7256  36479  190.603
 8.7676  36439.8  193.375
 8.8096  36700.4  191.353
 8.8516  36626  190.736
 8.8936  36221.4  189.626
 8.9356  36603.2  190.95
 8.9776  36275.3  190.174
 9.0196  36381.8  190.126
 9.0616  36205.3  189.172
 9.1036  35721.6  189.068
 9.1456  35328.8  187.357
 9.1876  35913.6  188.827
 9.2296  35361.2  186.836
 9.2716  35178  186.383
 9.3136  35324.2  186.771
 9.3556  35709.8  187.763
 9.3976  34181.1  184.201
 9.4396  34667.2  185.417
 9.4816  34543.8  184.942
 9.5236  33840.4  182.948
 9.5656  33919.3  183.523
 9.6076  33341  182.477
 9.6496  33245.2  182.08
 9.6916  33212.3  181.957
 9.7336  33199.2  181.708
 9.7756  32821.7  181.948
 9.8176  32910.9  181.703
 9.8596  33047.8  180.529
 9.9016  32666.7  179.464
 9.9436  32209.3  178.135
 9.9856  31811.9  177.302
 10.0276  31344.2  177.059
 10.0696  31606.2  176.836
 10.1116  30957.2  175.262
 10.1536  30761.3  174.865
 10.1956  30325.9  173.253
 10.2376  30138.7  172.215
 10.2796  30236.5  172.608
 10.3216  29695.6  171.346
 10.3636  29721.9  171.455
 10.4056  28973.2  169.686
 10.4476  29331.9  170.33
 10.4896  29367.4  169.884
 10.5316  28554.6  168.237
 10.5736  28612.3  168.815
 10.6156  28642.7  168.647
 10.6576  28483.5  166.765
 10.6996  28016.1  166.093
 10.7416  27660.4  165.239
 10.7836  27301  164.829
 10.8256  27016  164.385
 10.8676  27099  164.197
 10.9096  26865.9  163.499
 10.9516  26535.7  161.452
 10.9936  26681.1  162.096
 11.0356  26457.3  162.03
 11.0776  26354.4  161.05
 11.1196  25781.4  160.049
 11.1616  25480.9  158.795
 11.2036  25794.1  159.605
 11.2456  25541.2  159.532
 11.2876  26108.6  161.002
 11.3296  25469.9  158.945
 11.3716  25884.5  159.913
 11.4136  25625.8  159.997
 11.4556  25799.9  160.199
 11.4976  26205.8  160.451
 11.5396  26372.4  161.141
 11.5816  26929.9  163.274
 11.6236  26341.5  161.723
 11.6656  26396.9  161.018
 11.7076  25579.7  159.348
 11.7496  25081.9  161.794
 11.7916  24862.3  156.336
 11.8336  24428.6  155.868
 11.8756  24502.7  155.663
 11.9176  24434  155.123
 11.9596  24478  155.422
 12.0016  24241.4  155.446
 12.0436  24412.6  155.428
 12.0856  23952.1  154.471
 12.1276  23805.6  153.942
 12.1696  23938.4  153.487
 12.2116  23877.2  153.296
 12.2536  23672.3  153.434
 12.2956  23491.2  152.208
 12.3376  23937.4  153.843
 12.3796  23652.8  153.417
 12.4216  23676.6  152.687
 12.4636  23250.2  152.233
 12.5056  23698.3  152.96
 12.5476  23830.2  152.9
 12.5896  23465.2  152.373
 12.6316  23664.3  153.153
 12.6736  23335.9  152.579
 12.7156  23622.9  153.354
 12.7576  23437.7  153.006
 12.7996  23620  152.247
 12.8416  23523  152.98
 12.8836  23697.7  153.386
 12.9256  24119.8  153.768
 12.9676  23924  153.553
 13.0096  24273.7  155.777
 13.0516  24138.8  154.375
 13.0936  24331.2  155.398
 13.1356  24542.8  155.047
 13.1776  24119.7  154.713
 13.2196  24281.2  154.864
 13.2616  24039.6  154.418
 13.3036  24306.8  155.223
 13.3456  23905.6  154.293
 13.3876  24393.9  155.117
 13.4296  24286.3  154.961
 13.4716  24226.9  154.397
 13.5136  24350.9  154.929
 13.5556  23899.8  154.114
 13.5976  24196.9  155.231
 13.6396  24247.6  154.756
 13.6816  24469.8  155.93
 13.7236  24707.2  156.274
 13.7656  26333.1  161.762
 13.8076  26948.9  162.274
 13.8496  26494.1  161.586
 13.8916  24634  156.96
 13.9336  23966.9  154.112
 13.9756  23988.9  153.558
 14.0176  23487.9  152.625
 14.0596  23668.2  153.137
 14.1016  23549.1  153.168
 14.1436  23606.3  152.483
 14.1856  23184.4  151.412
 14.2276  22885.2  150.905
 14.2696  22917.4  150.869
 14.3116  22480.2  149.337
 14.3536  22320  148.963
 14.3956  22250.4  148.468
 14.4376  22472.4  148.973
 14.4796  22249.4  148.239
 14.5216  22009.2  148.219
 14.5636  21686.3  146.706
 14.6056  22139.6  147.77
 14.6476  21910.2  146.268
 14.6896  21549.5  145.598
 14.7316  21198.7  145.442
 14.7736  21124.1  144.339
 14.8156  20895.9  143.575
 14.8576  20847.6  143.264
 14.8996  20317.5  142.611
 14.9416  20100.8  141.87
 14.9836  20093  141.819
 15.0256  19633.6  139.124
 15.0676  19541.2  139.103
 15.1096  19285.3  137.934
 15.1516  19008.7  137.496
 15.1936  19100.6  137.254
 15.2356  18657.5  135.927
 15.2776  18749.5  135.858
 15.3196  18495.9  135.918
 15.3616  18329.3  135.057
 15.4036  18244.9  134.615
 15.4456  18629.4  135.674
 15.4876  18265  134.033
 15.5296  18081.8  133.646
 15.5716  17930.4  132.688
 15.6136  17756.2  132.371
 15.6556  17943.4  132.308
 15.6976  17675.5  131.615
 15.7396  17493.3  131.304
 15.7816  17662.8  131.46
 15.8236  17221.9  130.486
 15.8656  17451.4  131.154
 15.9076  17228  130.134
 15.9496  17880.8  135.375
 15.9916  17553.7  134.529
 16.0336  17689.7  131.906
 16.0756  17379.9  131.078
 16.1176  17325.7  130.955
 16.1596  16799.5  130.109
 16.2016  16784.6  128.82
 16.2436  16728.4  128.978
 16.2856  16829.8  128.895
 16.3276  16425.6  127.768
 16.3696  16865.8  129.297
 16.4116  16468.1  128.183
 16.4536  16781.5  129.222
 16.4956  16832  129.148
 16.5376  16418.7  127.749
 16.5796  16362.1  126.897
 16.6216  16342.9  127.082
 16.6636  16106.2  126.355
 16.7056  16305.7  126.988
 16.7476  16467.3  127.145
 16.7896  16361.6  127.488
 16.8316  16244  127.003
 16.8736  16413.1  127.911
 16.9156  16324.6  127.896
 16.9576  16038.8  127.576
 16.9996  16059.3  128.128
 17.0416  16360  127.714
 17.0836  16342.7  127.399
 17.1256  16196.2  126.832
 17.1676  16264.2  127.065
 17.2096  16067.7  126.182
 17.2516  15951.8  125.521
 17.2936  16012.4  126.108
 17.3356  15643.4  124.623
 17.3776  15542.1  124.413
 17.4196  15593.8  124.326
 17.4616  15493.1  123.822
 17.5036  15073.2  122.51
 17.5456  15137.3  123.378
 17.5876  15192.2  122.647
 17.6296  15102.8  122.131
 17.6716  15130.5  122.823
 17.7136  14906.2  122.021
 17.7556  14928.9  122.425
 17.7976  14934.6  122.186
 17.8396  14766.5  120.995
 17.8816  14681.9  121.219
 17.9236  14615.8  120.723
 17.9656  14520.5  120.858
 18.0076  14720.4  121.266
 18.0496  14449.3  119.297
 18.0916  14486.1  119.984
 18.1336  14474.6  120.04
 18.1756  14567.5  119.975
 18.2176  14259.2  118.909
 18.2596  14247.5  118.596
 18.3016  14473.7  119.795
 18.3436  14348.3  119.276
 18.3856  14319.9  119.282
 18.4276  14299.4  118.892
 18.4696  14223.4  118.654
 18.5116  14068.1  118.279
 18.5536  14147.8  118.968
 18.5956  14064.4  118.188
 18.6376  14014.2  118.386
 18.6796  14043.5  117.819
 18.7216  14122.4  118.647
 18.7636  13974  118.009
 18.8056  13926.8  117.747
 18.8476  13700.7  117.393
 18.8896  13849.5  117.379
 18.9316  13960.3  117.812
 18.9736  13901.4  117.279
 19.0156  13708.8  116.883
 19.0576  14094.4  117.345
 19.0996  13989.2  117.636
 19.1416  13939.2  117.81
 19.1836  13795.6  116.814
 19.2256  13641.7  116.38
 19.2676  13959.3  117.799
 19.3096  13723.3  117.054
 19.3516  13837.5  117.498
 19.3936  13563  116.228
 19.4356  14039  118.13
 19.4776  13716.5  116.848
 19.5196  13689.9  116.597
 19.5616  13736.4  117.05
 19.6036  13624.9  116.076
 19.6456  13692.6  116.482
 19.6876  13794.5  116.541
 19.7296  13974.6  117.764
 19.7716  13717.1  116.86
 19.8136  13956.2  118.058
 19.8556  14153  118.371
 19.8976  13899.1  117.363
 19.9396  14104.7  117.822
 19.9816  14144.5  118.238
 20.0236  14430.8  119.607
 20.0656  14545.3  120.089
 20.1076  14838.1  121.779
 20.1496  14440.6  120.138
 20.1916  14647  120.492
 20.2336  14098  118.131
 20.2756  13870  117.618
 20.3176  13616.9  116.286
 20.3596  13522.1  115.876
 20.4016  13604.3  116.019
 20.4436  13303.9  115.288
 20.4856  13432.9  115.626
 20.5276  13197.6  115.083
 20.5696  13351.8  115.189
 20.6116  13274.4  115.136
 20.6536  13368.1  115.06
 20.6956  13193  114.434
 20.7376  13085.4  114.173
 20.7796  13101.6  113.935
 20.8216  13160  113.911
 20.8636  13204.6  114.471
 20.9056  12932  113.223
 20.9476  13027.1  113.488
 20.9896  13092.7  113.641
 21.0316  13016.4  113.214
 21.0736  12901.5  113.225
 21.1156  12809.9  112.98
 21.1576  12892.9  113.375
 21.1996  12871.4  113.274
 21.2416  12936.7  113.391
 21.2836  12864.3  113.04
 21.3256  12946.4  113.478
 21.3676  12826.1  112.486
 21.4096  12773.7  112.583
 21.4516  12754.6  112.364
 21.4936  12457.3  111.319
 21.5356  12827.5  112.895
 21.5776  12761.8  112.442
 21.6196  12603.9  111.789
 21.6616  12507.3  111.441
 21.7036  12705.3  112.085
 21.7456  12691.8  112.109
 21.7876  12618.3  111.547
 21.8296  12548.3  111.08
 21.8716  12575.4  111.427
 21.9136  12674.6  112.069
 21.9556  12581.6  111.334
 21.9976  12453.5  110.799
 22.0396  12397.2  110.796
 22.0816  12364  111.16
 22.1236  12665.8  111.979
 22.1656  12558.8  111.646
 22.2076  12250.1  109.742
 22.2496  12219.1  109.636
 22.2916  12373.6  110.2
 22.3336  12223.7  110.251
 22.3756  12195  109.845
 22.4176  12071.6  109.146
 22.4596  12018.3  109.475
 22.5016  12032  109.055
 22.5436  12281.9  110.054
 22.5856  12172.1  109.808
 22.6276  12412  111.018
 22.6696  12425.5  111.434
 22.7116  12303.3  110.402
 22.7536  12211.1  109.959
 22.7956  12363.3  109.989
 22.8376  12116.9  109.387
 22.8796  12136.9  109.287
 22.9216  12197.2  110.09
 22.9636  12179.7  109.183
 23.0056  12125.5  109.068
 23.0476  12136  109.681
 23.0896  12431.8  110.391
 23.1316  12362.3  110.514
 23.1736  12447.4  113.819
 23.2156  12562.6  111.712
 23.2576  12776.4  112.79
 23.2996  12441  111.077
 23.3416  12645.5  112.517
 23.3836  12600.5  111.533
 23.4256  12813.1  112.603
 23.4676  12589.9  111.305
 23.5096  12605.2  112.036
 23.5516  12469.2  110.737
 23.5936  12452.9  111.57
 23.6356  12783.2  112.7
 23.6776  12477.1  111.555
 23.7196  12342.7  110.528
 23.7616  12553  111.378
 23.8036  12671.2  111.963
 23.8456  12447.1  110.525
 23.8876  12366  110.51
 23.9296  12189  110.212
 23.9716  12294.2  109.887
 24.0136  12317.2  110.893
 24.0556  12268.9  110.394
 24.0976  12086.7  109.39
 24.1396  11982.3  111.524
 24.1816  12246.1  111.145
 24.2236  12087.7  110.072
 24.2656  12115.5  109.67
 24.3076  12039.4  109.594
 24.3496  12004.5  109.318
 24.3916  12038.7  109.521
 24.4336  12002.6  109.553
 24.4756  11968  109.281
 24.5176  11933.2  108.755
 24.5596  11812.7  108.302
 24.6016  11644.8  107.843
 24.6436  11721.4  107.704
 24.6856  11666.2  107.203
 24.7276  11516.4  106.839
 24.7696  11554.5  107.111
 24.8116  11259.4  105.921
 24.8536  11437  106.752
 24.8956  11418.8  106.392
 24.9376  11430.9  106.387
 24.9796  11359.5  106.415
 25.0216  11240.9  105.966
 25.0636  11320.4  106.001
 25.1056  11220.8  106.225
 25.1476  11261.9  108.037
 25.1896  11239.1  106.456
 25.2316  11073.8  104.948
 25.2736  10989.9  104.204
 25.3156  11060.7  104.613
 25.3576  11013.5  104.818
 25.3996  11117.1  105.295
 25.4416  11014.4  104.786
 25.4836  10826.6  104.406
 25.5256  11030  104.747
 25.5676  10826.5  103.508
 25.6096  10750.1  103.711
 25.6516  10954.4  104.204
 25.6936  10940.2  104.437
 25.7356  10956.2  104.653
 25.7776  10851.1  103.749
 25.8196  10671.5  103.125
 25.8616  10776.8  103.564
 25.9036  10969.8  103.94
 25.9456  10789.5  103.685
 25.9876  10665.2  103.144
 26.0296  10892.5  103.761
 26.0716  10839.5  103.923
 26.1136  10798.6  103.655
 26.1556  10797.1  103.042
 26.1976  10784.3  103.91
 26.2396  10644.2  102.39
 26.2816  10648.1  103.018
 26.3236  10894  104.346
 26.3656  10912.3  104.154
 26.4076  10679.5  103.254
 26.4496  10822.7  103.535
 26.4916  11061  104.552
 26.5336  11372.6  106.373
 26.5756  11551  107.084
 26.6176  10917.4  104.135
 26.6596  10794.5  103.839
 26.7016  10668.5  103.009
 26.7436  10631.7  102.941
 26.7856  10558.3  102.583
 26.8276  10628  102.883
 26.8696  10509.1  102.173
 26.9116  10594  102.526
 26.9536  10436  101.808
 26.9956  10359.3  101.474
 27.0376  10569.6  102.712
 27.0796  10345.4  101.354
 27.1216  10503.6  102.174
 27.1636  10210  100.91
 27.2056  10322.7  101.343
 27.2476  10413.3  101.783
 27.2896  10276.8  101.238
 27.3316  10242.9  100.785
 27.3736  10147  100.581
 27.4156  10191.2  100.63
 27.4576  10189.8  100.853
 27.4996  10228.3  100.641
 27.5416  10244.6  101.034
 27.5836  10072  100.018
 27.6256  10178.7  100.726
 27.6676  10107.4  100.364
 27.7096  10104.2  100.234
 27.7516  10052  100.117
 27.7936  10358  101.77
 27.8356  10242.7  100.822
 27.8776  10291.5  101.114
 27.9196  10029.7  99.6939
 27.9616  10091.2  100.193
 28.0036  9969.43  99.5462
 28.0456  9979.2  99.7417
 28.0876  9874.7  99.2986
 28.1296  9830.83  98.901
 28.1716  10051.9  100.032
 28.2136  9903.44  99.2658
 28.2556  9887.48  99.2949
 28.2976  9814.43  98.9257
 28.3396  9743.45  98.3189
 28.3816  9898.2  99.1073
 28.4236  9804.98  98.8019
 28.4656  9694.52  98.2818
 28.5076  9723.74  98.0668
 28.5496  9865.58  99.0389
 28.5916  9764.25  98.3457
 28.6336  9859.93  99.1579
 28.6756  9821.61  98.1762
 28.7176  9726.92  98.2503
 28.7596  9703.29  98.0235
 28.8016  9761.05  98.3587
 28.8436  9553.09  97.537
 28.8856  9766.51  98.4603
 28.9276  9700.37  98.3786
 28.9696  9658.66  97.8259
 29.0116  9553.87  97.4756
 29.0536  9508.86  97.456
 29.0956  9712.32  98.1833
 29.1376  9613.55  97.6687
 29.1796  9594.48  97.6194
 29.2216  9608.06  97.5334
 29.2636  9619.29  97.6629
 29.3056  9492.1  96.799
 29.3476  9509.95  97.4032
 29.3896  9588.56  97.9262
 29.4316  9369.57  96.1484
 29.4736  9268.62  95.6887
 29.5156  9317.74  95.8678
 29.5576  9322.1  96.6217
 29.5996  9487.7  96.7382
 29.6416  9421.83  96.5249
 29.6836  9443.83  96.5537
 29.7256  9312.48  96.4407
 29.7676  9302.27  96.0497
 29.8096  9284.06  95.905
 29.8516  9167.67  95.6241
 29.8936  9395.81  96.9029
 29.9356  9334.32  96.3377
 29.9776  9163.21  95.6041
 30.0196  9314.45  95.7884
 30.0616  9196.87  95.5499
 30.1036  9342.16  96.1316
 30.1456  9203.61  95.6341
 30.1876  9240.68  95.8182
 30.2296  9131.91  95.1939
 30.2716  9176.3  95.072
 30.3136  9250.04  96.3006
 30.3556  9431.67  97.2249
 30.3976  9291.57  97.9854
 30.4396  9591.76  96.9023
 30.4816  9481.44  95.9442
 30.5236  9575.79  96.4225
 30.5656  9441.57  96.396
 30.6076  9390.14  95.5547
 30.6496  9344.59  95.7374
 30.6916  9216.2  95.1642
 30.7336  9403.56  96.2632
 30.7756  9230.86  95.4673
 30.8176  9448.1  96.515
 30.8596  9424.78  96.141
 30.9016  9432.18  96.5242
 30.9436  9417.38  96.188
 30.9856  9563.98  97.0733
 31.0276  9326.03  95.482
 31.0696  9289.78  95.8644
 31.1116  9353  96.147
 31.1536  9202.85  95.2449
 31.1956  9294.05  95.8176
 31.2376  9006.28  94.3452
 31.2796  9202.76  94.9038
 31.3216  9182.83  94.7178
 31.3636  9279.6  95.9383
 31.4056  9088.48  96.2297
 31.4476  9325.18  95.3935
 31.4896  9253.29  95.5268
 31.5316  9288.82  95.1193
 31.5736  9381.45  95.4187
 31.6156  9301.66  95.0041
 31.6576  9393.57  95.5679
 31.6996  9343.63  94.9782
 31.7416  9126.61  94.945
 31.7836  9323.52  94.967
 31.8256  9228.73  94.738
 31.8676  9382.09  95.5241
 31.9096  9112.61  94.5001
 31.9516  9046.71  94.3337
 31.9936  8990.92  93.8683
 32.0356  9183.54  94.9096
 32.0776  9139.18  94.5835
 32.1196  9147.52  94.7294
 32.1616  9237.97  94.644
 32.2036  9214.92  95.0318
 32.2456  9137.96  95.0189
 32.2876  9083.01  94.233
 32.3296  9075.61  94.153
 32.3716  8896.85  93.3417
 32.4136  8820.02  93.1319
 32.4556  9063.35  93.7913
 32.4976  8878.05  92.7419
 32.5396  8795.19  92.3612
 32.5816  8875.97  92.911
 32.6236  8907.93  93.1522
 32.6656  8934.25  93.8214
 32.7076  8847.7  93.0296
 32.7496  8898.45  92.9765
 32.7916  8805.34  92.446
 32.8336  8877.21  92.9199
 32.8756  8963.35  93.0776
 32.9176  8710  92.2405
 32.9596  8817.86  92.8731
 33.0016  8704.69  92.0567
 33.0436  8947.94  93.5032
 33.0856  8850.83  93.0921
 33.1276  8693.9  91.998
 33.1696  8935.74  93.0993
 33.2116  8896.34  93.1359
 33.2536  8953.36  93.407
 33.2956  8794.64  92.6774
 33.3376  8827.37  92.5758
 33.3796  8895.17  93.1567
 33.4216  8768.53  92.0758
 33.4636  8761.36  92.2019
 33.5056  8706.47  92.1603
 33.5476  8856.64  92.9153
 33.5896  8799.76  92.423
 33.6316  8722.87  92.3142
 33.6736  8669.19  92.2801
 33.7156  8614.97  92.0208
 33.7576  8739.2  92.322
 33.7996  8907.25  92.9673
 33.8416  8456.97  90.7759
 33.8836  8545.98  91.0329
 33.9256  8756.09  92.1877
 33.9676  8683.18  91.7108
 34.0096  8663.54  91.9162
 34.0516  8567.88  91.054
 34.0936  8609.76  91.545
 34.1356  8621.57  91.3375
 34.1776  8492.77  90.6617
 34.2196  8443.41  90.5752
 34.2616  8510.05  91.0753
 34.3036  8547.18  91.5053
 34.3456  8501.31  91.0195
 34.3876  8674.9  91.9178
 34.4296  8641.01  91.4323
 34.4716  8586.76  91.2955
 34.5136  8607.17  91.5944
 34.5556  8433.97  90.9331
 34.5976  8499.92  91.0891
 34.6396  8565.72  91.1528
 34.6816  8469.82  90.7375
 34.7236  8538.24  90.885
 34.7656  8468.36  90.7205
 34.8076  8459.96  91.013
 34.8496  8336.85  90.1979
 34.8916  8525.87  91.07
 34.9336  8551.84  91.2017
 34.9756  8415.92  90.3944
 35.0176  8530.05  91.5259
 35.0596  8500.67  91.1864
 35.1016  8488.8  90.8856
 35.1436  8660.49  91.4881
 35.1856  8493.08  90.7191
 35.2276  8437.61  90.6
 35.2696  8388.01  90.5221
 35.3116  8461.11  91.0218
 35.3536  8460.26  90.7185
 35.3956  8377.5  89.9896
 35.4376  8425.91  90.8024
 35.4796  8483.52  91.1544
 35.5216  8376.17  90.5392
 35.5636  8121.6  89.8843
 35.6056  8244.05  89.6024
 35.6476  8511.14  90.9254
 35.6896  8348.91  90.1649
 35.7316  8319.11  89.9714
 35.7736  8281.93  89.9528
 35.8156  8386.76  90.5165
 35.8576  8292.56  90.2598
 35.8996  8370.31  90.652
 35.9416  8421.44  90.4306
 35.9836  8381.3  90.5624
 36.0256  8464.45  91.0235
 36.0676  8475  90.8435
 36.1096  8432.14  90.7401
 36.1516  8396.86  90.4582
 36.1936  8352.76  90.041
 36.2356  8368.87  90.7991
 36.2776  8300.06  89.8958
 36.3196  8366.48  89.9302
 36.3616  8257.76  89.4678
 36.4036  8189  89.1656
 36.4456  8331.15  90.1462
 36.4876  8178.96  89.2535
 36.5296  8110.42  88.921
 36.5716  8244.17  90.4208
 36.6136  8067.89  88.2635
 36.6556  8059.01  88.4065
 36.6976  8062.04  88.9185
 36.7396  8010.26  88.3695
 36.7816  8000.64  88.6817
 36.8236  7928.34  88.21
 36.8656  7907.5  88.1587
 36.9076  7853.96  87.7437
 36.9496  7997.97  88.5281
 36.9916  7976.24  88.0402
 37.0336  8059.32  88.8087
 37.0756  8040.12  88.4981
 37.1176  7745.5  87.1271
 37.1596  7894.38  87.9666
 37.2016  7923.81  88.3509
 37.2436  7997.4  88.0877
 37.2856  7901.93  87.8102
 37.3276  7938.35  87.3765
 37.3696  7887.48  87.9582
 37.4116  7877.94  87.8165
 37.4536  7903  87.8284
 37.4956  7834.53  87.487
 37.5376  8009.58  90.0337
 37.5796  7999.37  89.9037
 37.6216  7933.1  87.8048
 37.6636  8039.57  88.2792
 37.7056  8080.58  88.6881
 37.7476  8123.14  88.4727
 37.7896  7991.34  88.2577
 37.8316  7954.72  88.1909
 37.8736  7871.58  87.281
 37.9156  7892.36  87.3976
 37.9576  8061.56  88.2343
 37.9996  7899.68  87.0532
 38.0416  7943.89  88.1017
 38.0836  8153.67  89.1602
 38.1256  8157.14  89.1528
 38.1676  7886.71  87.7802
 38.2096  8006.1  88.0405
 38.2516  7919.44  87.7952
 38.2936  8021.29  88.1542
 38.3356  7853.1  87.1632
 38.3776  7904.92  87.6868
 38.4196  7872.54  87.3774
 38.4616  7988.72  88.2637
 38.5036  8042.17  88.4011
 38.5456  7891.32  88.3939
 38.5876  7866  88.2756
 38.6296  7914.12  87.5192
 38.6716  7958.43  87.5709
 38.7136  7957.26  87.5105
 38.7556  7968.62  88.0854
 38.7976  7870.27  87.4659
 38.8396  7854.87  87.8418
 38.8816  7889.32  87.8267
 38.9236  7773.23  86.9674
 38.9656  7887.35  87.5097
 39.0076  7736.88  86.0997
 39.0496  8000.77  88.1009
 39.0916  7987.01  87.6788
 39.1336  7926.53  87.7504
 39.1756  7858.86  87.4405
 39.2176  7740.16  87.3087
 39.2596  7944.38  88.365
 39.3016  7849.19  87.4315
 39.3436  7743.12  87.2343
 39.3856  7977.36  87.9901
 39.4276  7961.7  88.4146
 39.4696  7856.87  87.4469
 39.5116  7887.12  88.1321
 39.5536  7929.14  88.7918
 39.5956  7814.28  87.2588
 39.6376  7812.54  87.2454
 39.6796  7806.85  86.9685
 39.7216  7769.48  86.8509
 39.7636  7889.7  88.0758
 39.8056  7917.14  88.0163
 39.8476  7829.03  87.7842
 39.8896  7899.24  87.8028
 39.9316  7751.07  87.2203
 39.9736  7841.48  87.3121
 40.0156  7841.71  87.1447
 40.0576  7790.23  87.2008
 40.0996  7845.86  86.7061
 40.1416  7847.68  87.5082
 40.1836  7904.23  87.71
 40.2256  7792.63  87.1296
 40.2676  7828.77  87.428
 40.3096  7933.55  87.9373
 40.3516  7872.76  87.7048
 40.3936  7995.56  87.9505
 40.4356  7819.97  87.1865
 40.4776  7857.58  87.7953
 40.5196  7973.51  88.5718
 40.5616  8000.89  88.3607
 40.6036  7889.93  87.9996
 40.6456  7815.52  87.1973
 40.6876  7944.42  87.9022
 40.7296  7805.19  87.2678
 40.7716  7889.19  87.8603
 40.8136  7818.89  87.4141
 40.8556  7980.9  88.4337
 40.8976  7892.72  87.8664
 40.9396  7884.18  88.1599
 40.9816  7823.91  87.1303
 41.0236  7839.71  87.0044
 41.0656  7982.84  88.3355
 41.1076  7820.01  87.2006
 41.1496  7884.12  87.4651
 41.1916  7762.8  87.1015
 41.2336  7952.15  88.1556
 41.2756  7753.67  86.6619
 41.3176  7902.44  88.0898
 41.3596  7858.96  87.5935
 41.4016  7790.84  87.4651
 41.4436  7933.32  88.0441
 41.4856  7861.75  87.8211
 41.5276  7748.21  87.1911
 41.5696  7848.18  87.3968
 41.6116  7874.31  87.9136
 41.6536  7850.46  87.6433
 41.6956  7865.24  87.7776
 41.7376  7798.51  87.4425
 41.7796  7747.92  87.0449
 41.8216  7887.51  88.0557
 41.8636  7818.61  87.616
 41.9056  7741.55  86.9779
 41.9476  7876.08  87.9603
 41.9896  7897.41  87.7413
 42.0316  7891.12  87.7969
 42.0736  7958.51  88.2684
 42.1156  7861.64  87.5747
 42.1576  7864.16  87.6962
 42.1996  7886.63  87.9225
 42.2416  7855.48  87.3664
 42.2836  7857.4  87.4925
 42.3256  7761.23  87.061
 42.3676  7918.97  87.7358
 42.4096  7876.7  87.4802
 42.4516  7860.41  87.4601
 42.4936  7772.6  87.0482
 42.5356  7686.12  86.7081
 42.5776  7826.49  87.4291
 42.6196  7876.21  87.7673
 42.6616  7722.03  87.0702
 42.7036  7798.62  86.8849
 42.7456  7911.36  87.8588
 42.7876  7800.63  87.341
 42.8296  7815.18  87.2587
 42.8716  7749.98  87.063
 42.9136  7783.8  87.0329
 42.9556  7810.87  87.3199
 42.9976  7854.45  87.533
 43.0396  7734.43  86.5889
 43.0816  7645.27  86.469
 43.1236  7692.37  86.7821
 43.1656  7728.72  86.8175
 43.2076  7776.61  87.1969
 43.2496  7658.16  86.3493
 43.2916  7727.28  87.0956
 43.3336  7672.05  86.6234
 43.3756  7741.92  86.7737
 43.4176  7675.28  86.4737
 43.4596  7724.13  86.6075
 43.5016  7731.24  87.0419
 43.5436  7712.06  86.8499
 43.5856  7566.76  86.0534
 43.6276  7623.8  86.2638
 43.6696  7649  86.6713
 43.7116  7657.82  86.2211
 43.7536  7711.33  87.0181
 43.7956  7632.3  87.7747
 43.8376  7527.68  85.7218
 43.8796  7529.78  85.8066
 43.9216  7593.17  86.0864
 43.9636  7560.52  85.9991
 44.0056  7509.6  85.9489
 44.0476  7504.47  85.5493
 44.0896  7365.72  85.096
 44.1316  7673.39  86.3751
 44.1736  7469.8  85.3461
 44.2156  7487.65  85.308
 44.2576  7422.66  85.2481
 44.2996  7477.21  85.5425
 44.3416  7566.16  85.7998
 44.3836  7434.63  85.3691
 44.4256  7412.14  84.896
 44.4676  7310.56  84.4702
 44.5096  7519.83  85.814
 44.5516  7458.53  85.4231
 44.5936  7343.23  84.7183
 44.6356  7553.73  85.6628
 44.6776  7465.33  85.4809
 44.7196  7506.54  86.0139
 44.7616  7528.28  87.4656
 44.8036  7471.46  85.5549
 44.8456  7347.47  85.044
 44.8876  7645.05  86.586
 44.9296  7652.11  86.0774
 44.9716  7518.66  85.7481
 45.0136  7671.24  86.5558
 45.0556  7596.41  86.1094
 45.0976  7504.35  85.751
 45.1396  7476.06  85.3188
 45.1816  7454.28  85.1582
 45.2236  7603.42  85.9075
 45.2656  7410.07  85.3068
 45.3076  7425.39  85.1708
 45.3496  7468.81  85.7309
 45.3916  7512.2  86.2468
 45.4336  7696.95  87.1412
 45.4756  7497.29  85.8639
 45.5176  7481.62  85.3876
 45.5596  7670.96  86.5819
 45.6016  7540.5  86.268
 45.6436  7569.61  85.5975
 45.6856  7476.34  85.7358
 45.7276  7420.72  86.7232
 45.7696  7482.21  86.7731
 45.8116  7451.95  86.0343
 45.8536  7320.46  85.1643
 45.8956  7501.42  85.5467
 45.9376  7536.01  85.2198
 45.9796  7592.14  86.2277
 46.0216  7622.6  86.7465
 46.0636  7570.82  85.5877
 46.1056  7429.84  84.7706
 46.1476  7405.04  85.2255
 46.1896  7488.85  85.8471
 46.2316  7392.9  85.1615
 46.2736  7298.29  84.9956
 46.3156  7464.85  85.5404
 46.3576  7521.16  86.069
 46.3996  7376.16  85.3953
 46.4416  7427.2  85.2614
 46.4836  7248.89  84.5866
 46.5256  7484.9  85.8933
 46.5676  7399.94  85.5168
 46.6096  7458.16  85.7882
 46.6516  7491.59  85.0151
 46.6936  7492.96  85.52
 46.7356  7507  85.6803
 46.7776  7331.87  85.5435
 46.8196  7370.2  85.353
 46.8616  7308.16  84.9488
 46.9036  7323.83  84.6995
 46.9456  7328.2  84.3576
 46.9876  7379.84  84.7363
 47.0296  7323.8  85.104
 47.0716  7390.28  85.3139
 47.1136  7364.18  84.8351
 47.1556  7442.69  85.1525
 47.1976  7384.93  84.9019
 47.2396  7375.74  85.2545
 47.2816  7364.32  84.8939
 47.3236  7345.07  85.1445
 47.3656  7330.45  85.0017
 47.4076  7233.14  84.2261
 47.4496  7279.61  84.5941
 47.4916  7314.85  84.9839
 47.5336  7457.17  85.6259
 47.5756  7319.83  84.957
 47.6176  7283.3  84.6398
 47.6596  7287.28  84.3803
 47.7016  7447.75  85.0996
 47.7436  7427.21  85.3488
 47.7856  7439.35  85.4314
 47.8276  7300.21  84.6813
 47.8696  7348.88  85.038
 47.9116  7344.58  84.7339
 47.9536  7364.5  84.789
 47.9956  7229.99  84.7241
 48.0376  7346.68  85.1762
 48.0796  7319.08  85.1265
 48.1216  7298.2  84.8452
 48.1636  7380.06  84.8752
 48.2056  7337.07  84.9053
 48.2476  7456.77  85.9027
 48.2896  7333.34  85.0944
 48.3316  7356.18  85.1748
 48.3736  7361.27  85.2247
 48.4156  7261.61  84.5046
 48.4576  7274.85  84.8723
 48.4996  7406.24  85.0896
 48.5416  7393.38  85.3354
 48.5836  7306.61  84.5155
 48.6256  7434.27  85.4554
 48.6676  7365.51  85.5834
 48.7096  7402.93  85.0557
 48.7516  7341.53  84.8551
 48.7936  7186.37  84.0162
 48.8356  7349.86  85.0168
 48.8776  7296.51  85.2893
 48.9196  7439.67  85.4704
 48.9616  7194.01  84.4336
 49.0036  7417.73  86.0893
 49.0456  7195.83  84.7747
 49.0876  7282.15  84.8099
 49.1296  7248.88  84.7865
 49.1716  7149.25  84.0734
 49.2136  7270.37  84.6963
 49.2556  7368.63  85.3127
 49.2976  7324.37  85.1172
 49.3396  7297.59  85.0209
 49.3816  7381.26  84.9053
 49.4236  7280.09  84.7645
 49.4656  7164.54  84.1132
 49.5076  7289.58  84.5836
 49.5496  7236.38  84.3534
 49.5916  7296.75  84.6118
 49.6336  7275.7  84.6963
 49.6756  7268.85  84.8911
 49.7176  7250.96  84.726
 49.7596  7171.36  84.0223
 49.8016  7388.92  85.2107
 49.8436  7258.23  84.7573
 49.8856  7167.91  84.2293
 49.9276  7149.66  84.2293
 49.9696  7302.51  85.0946
 50.0116  7219.35  84.7331
 50.0536  7213  84.6612
 50.0956  7192.11  84.6096
 50.1376  7260.27  84.6957
 50.1796  7054.12  83.7572
 50.2216  7249.05  84.8921
 50.2636  7102.93  83.6576
 50.3056  7154.7  84.148
 50.3476  7225.08  84.5734
 50.3896  7186.03  84.3215
 50.4316  7209.48  84.2833
 50.4736  7113.99  83.9469
 50.5156  7205.13  84.4765
 50.5576  7287.35  84.7101
 50.5996  7155.13  84.2243
 50.6416  7151.51  84.1282
 50.6836  7258.14  84.8139
 50.7256  7271.32  84.8183
 50.7676  7275.31  85.1652
 50.8096  7243.6  84.4942
 50.8516  7103.52  84.1091
 50.8936  7017.96  83.3706
 50.9356  7171.57  84.3962
 50.9776  7107.84  84.1788
 51.0196  6996.72  83.6496
 51.0616  7037.88  83.217
 51.1036  7139.87  84.1743
 51.1456  7166.77  84.2508
 51.1876  7077.96  83.0417
 51.2296  6951.91  82.9498
 51.2716  6783.12  81.6406
 51.3136  7060.46  83.7657
 51.3556  6968.51  82.8305
 51.3976  6940.37  82.8202
 51.4396  6784.68  82.1968
 51.4816  6938.28  82.9743
 51.5236  6989.49  83.3684
 51.5656  7000.64  83.0253
 51.6076  7066.01  83.4985
 51.6496  6904.53  82.7262
 51.6916  6970.22  83.4869
 51.7336  6864.74  82.9367
 51.7756  6922.98  82.9846
 51.8176  6758.26  82.1017
 51.8596  6854.99  82.7026
 51.9016  7021.6  83.3017
 51.9436  7069.94  85.0967
 51.9856  7032  85.2827
 52.0276  7061.1  83.923
 52.0696  7133.55  84.423
 52.1116  6965.56  83.5446
 52.1536  7075.57  84.0754
 52.1956  6963.88  82.8703
 52.2376  7183.03  84.3388
 52.2796  7065.34  83.4645
 52.3216  6948.39  83.4656
 52.3636  6958.81  83.0764
 52.4056  6953.94  82.9258
 52.4476  6942.98  83.2233
 52.4896  6918.51  83.1187
 52.5316  6937.76  83.2961
 52.5736  6861.37  82.5463
 52.6156  7081.19  84.2704
 52.6576  6861.88  82.381
 52.6996  6801.08  83.0151
 52.7416  6858.88  83.2188
 52.7836  6950.35  83.6606
 52.8256  6977.5  83.0213
 52.8676  6707.37  81.9674
 52.9096  6814.21  82.6926
 52.9516  6894.03  83.5842
 52.9936  6886.5  83.9068
 53.0356  6912.09  83.0501
 53.0776  6970.17  83.6831
 53.1196  6980.5  83.8654
 53.1616  6944.76  83.7075
 53.2036  6897.82  83.3844
 53.2456  6913.18  83.5818
 53.2876  6960.56  83.5507
 53.3296  6939.07  83.7568
 53.3716  6986.81  83.7864
 53.4136  6886.86  83.345
 53.4556  6884.56  83.3585
 53.4976  6802.83  82.7028
 53.5396  6873.68  83.5196
 53.5816  6901.98  83.3336
 53.6236  6858.9  83.4313
 53.6656  6911.73  83.3514
 53.7076  7000.62  83.8485
 53.7496  6996.12  83.9312
 53.7916  6861.82  83.2734
 53.8336  6916.58  83.4897
 53.8756  6811.28  83.3974
 53.9176  6731.98  82.2718
 53.9596  6592.2  82.1486
 54.0016  6602.69  81.5623
 54.0436  6498.46  81.1399
 54.0856  6747.36  82.0882
 54.1276  6679.27  81.8584
 54.1696  6552  81.2682
 54.2116  6775.27  82.3644
 54.2536  6600.09  81.1059
 54.2956  6643.13  81.4313
 54.3376  6421.73  80.5494
 54.3796  6551.96  81.2404
 54.4216  6649.42  81.9177
 54.4636  6527.91  81.127
 54.5056  6582.83  81.2452
 54.5476  6531.52  81.2929
 54.5896  6623.51  81.6996
 54.6316  6586.57  81.3201
 54.6736  6623.23  81.6376
 54.7156  6655.14  81.8592
 54.7576  6386.64  80.1581
 54.7996  6563.88  81.4123
 54.8416  6597.83  81.6761
 54.8836  6588.69  81.7176
 54.9256  6488.65  80.8604
 54.9676  6516.27  80.8967
 55.0096  6502.67  80.8505
 55.0516  6504.29  81.086
 55.0936  6469.68  80.5418
 55.1356  6460.23  80.5196
 55.1776  6597.91  81.6009
 55.2196  6475.03  80.6258
 55.2616  6530.99  81.2072
 55.3036  6282.35  79.8252
 55.3456  6290.67  80.0052
 55.3876  6466.55  80.8329
 55.4296  6341.99  80.073
 55.4716  6396.6  80.4357
 55.5136  6448.71  80.5323
 55.5556  6652.67  81.8378
 55.5976  6436.5  80.5956
 55.6396  6516.65  81.0192
 55.6816  6341.22  79.7819
 55.7236  6323.33  79.7394
 55.7656  6402.46  79.9548
 55.8076  6360.73  79.6994
 55.8496  6377.44  80.1325
 55.8916  6360.09  80.2228
 55.9336  6548.28  81.2258
 55.9756  6454.84  80.5096
 56.0176  6304.5  79.7192
 56.0596  6357.75  80.0658
 56.1016  6218.87  79.1998
 56.1436  6278.67  79.8384
 56.1856  6303.44  79.7395
 56.2276  6519.92  81.1267
 56.2696  6412.44  80.436
 56.3116  6502.89  81.3912
 56.3536  6341.01  80.0452
 56.3956  6264.43  79.5194
 56.4376  6296.72  79.7833
 56.4796  6202.01  79.0076
 56.5216  6319.92  80.1252
 56.5636  6280.96  79.4578
 56.6056  6428.69  80.6153
 56.6476  6279.02  79.2724
 56.6896  6385.32  80.4258
 56.7316  6179.29  79.0223
 56.7736  6250.11  79.4692
 56.8156  6207.97  79.2206
 56.8576  6097.47  78.4666
 56.8996  6239.36  79.2742
 56.9416  6199.56  79.3376
 56.9836  6276.51  79.3453
 57.0256  6229.23  79.3654
 57.0676  6335.75  80.1404
 57.1096  6292.54  79.6659
 57.1516  6190.48  79.0796
 57.1936  6231.9  79.0852
 57.2356  6118.13  78.7027
 57.2776  6249.43  79.4954
 57.3196  6219.43  79.6524
 57.3616  6156.39  78.7339
 57.4036  6240.44  79.3248
 57.4456  6387.82  80.2472
 57.4876  6275.31  79.4171
 57.5296  6223.99  79.4002
 57.5716  6115.59  78.7215
 57.6136  6061.83  78.2163
 57.6556  6206.53  79.2586
 57.6976  6275.48  79.5352
 57.7396  6096.22  78.7313
 57.7816  6084.37  79.0189
 57.8236  6087.45  78.8522
 57.8656  6161.58  78.9842
 57.9076  6193.45  79.209
 57.9496  6094.25  78.9213
 57.9916  6152.75  78.8281
 58.0336  6157.16  79.1288
 58.0756  6197.92  79.0263
 58.1176  6201.43  79.034
 58.1596  6097.13  78.9656
 58.2016  5948.38  77.2247
 58.2436  5906.74  77.3589
 58.2856  5978.93  77.7512
 58.3276  5863.85  77.368
 58.3696  5938.97  77.6202
 58.4116  5963.12  77.6403
 58.4536  5912.62  77.1982
 58.4956  5791.4  76.5789
 58.5376  6013.35  77.603
 58.5796  5867.35  77.0717
 58.6216  6011.45  77.8275
 58.6636  5947.65  77.6253
 58.7056  5922.93  77.3252
 58.7476  5796.83  76.9304
 58.7896  5792.47  76.557
 58.8316  5888.52  77.1877
 58.8736  5839.4  76.8734
 58.9156  5895.91  77.2883
 58.9576  5882.97  77.516
 58.9996  5978.09  77.3975
 59.0416  5980.42  77.7703
 59.0836  5995.86  77.7837
 59.1256  5914.08  77.952
 59.1676  5777.77  77.3541
 59.2096  5810.96  76.8837
 59.2516  5904.37  77.0849
 59.2936  5852.03  77.0655
 59.3356  5940.51  77.5246
 59.3776  5847.02  77.0785
 59.4196  5788.82  76.6308
 59.4616  5820.24  76.7014
 59.5036  5736.43  76.1814
 59.5456  5888.75  76.8837
 59.5876  5742.02  76.1061
 59.6296  5746.69  76.2045
 59.6716  5792.5  76.5644
 59.7136  5990.87  77.8527
 59.7556  5942.44  77.6728
 59.7976  5847.96  76.7991
 59.8396  5881.72  76.9162
 59.8816  5798.62  76.9047
 59.9236  5693.06  75.8561
 59.9656  5888.11  77.4019
 60.0076  5793.09  76.1455
 60.0496  5862  77.0909
 60.0916  5906.81  76.8121
 60.1336  5659.24  76.257
 60.1756  5729.87  77.8848
 60.1996  0.0000000E+00  0.0000000E+00