File: docs/examples/opeando_xrd/IS17_D/Data/IS17_D/17_Da_f00016.xye
# /beamlines/bl04/projects/cycle2025-II/20250340211-lsimonelli/DATA/IS17_D/17_Da_f00016.xye : mythproc.py merge -s 0.006 -l 0.5 -f /beamlines/bl04/inhouse/ff/FlatField/ff_20Nov2024rod8mm60s_17keV.raw -b True -c true -o xye /beamlines/bl04/projects/cycle2025-II/20250340211-lsimonelli/DATA/IS17_D/17_Da_00016.dat
# IsMon = [6784011, 6778477, 6786113]  IsPos = [-1.5000, -2.4885, -3.4986]
# Wave = 0.4962  CalPath /beamlines/bl04/projects/cycle2025-II/20250340211-lsimonelli/DATA/Align/Si_Pos1_25keV_f00001.cal
# Date = 2025-09-23_21:59:30 Dt = 4.8000  Bin = 0.0060  <imon> = 6782867 +/- 3221 (Min/Max) 6778477 / 6786113
# icurr 252.6597  mocoIn 1.7241E-05  mocoOut 0.8083  i15 7.09617e+06  imon 6.78287e+06  i7 3.6667  iEMpd_timer 4.8000  iEMpd_1 3.5138E-08  iEMpd_2 7.8009E-08  iEMpd_3 1.8163E-08  iEMpd_4 4.6469E-08  iEMhp_timer 4.8000  iEMhp_1 4.9368E-06  iEMhp_2 -2.4079E-08  iEMhp_3 -2.4374E-08  iEMhp_4 -2.1395E-08
#      9776
 1.5856  37342.8  198.413
 1.6276  44610.8  213.142
 1.6696  51648.6  228.531
 1.7116  60002.7  246.802
 1.7536  70199.9  265.814
 1.7956  75056.6  275.542
 1.8376  70348.7  267.183
 1.8796  59127.1  243.16
 1.9216  47536.7  218.885
 1.9636  39595  199.451
 2.0056  35326.7  187.19
 2.0476  32710.8  182.101
 2.0896  31324.8  177.156
 2.1316  30141.2  172.942
 2.1736  29101.4  171.281
 2.2156  29256.8  170.359
 2.2576  28264.3  168.044
 2.2996  27507.1  166.387
 2.3416  27862  166.121
 2.3836  27078.4  163.869
 2.4256  26419  162.389
 2.4676  26705  163.034
 2.5096  27264.7  164.787
 2.5516  39188.5  202.057
 2.5936  199771  447.263
 2.6356  32719.5  181.773
 2.6776  26032.7  161.032
 2.7196  24598.6  157.04
 2.7616  24397.8  156.185
 2.8036  23745.9  154.247
 2.8456  23673  154.599
 2.8876  23304.9  153.25
 2.9296  22849.5  151.893
 2.9716  22324.3  149.652
 3.0136  22279.9  149.568
 3.0556  22479.3  150.618
 3.0976  22307.5  149.004
 3.1396  22140.7  149.146
 3.1816  21921.9  148.345
 3.2236  21744.9  147.74
 3.2656  21827  147.113
 3.3076  21556.3  147.575
 3.3496  22054.1  148.482
 3.3916  22250  148.735
 3.4336  22671.6  150.695
 3.4756  23136.8  152.149
 3.5176  23936.7  154.575
 3.5596  23884.3  157.273
 3.6016  24044.2  154.954
 3.6436  23174.9  153.199
 3.6856  22821  150.377
 3.7276  21769.4  147.924
 3.7696  21735.1  147.775
 3.8116  21460.2  146.936
 3.8536  21252.5  146.15
 3.8956  21474.7  146.751
 3.9376  22540.2  150.62
 3.9796  21150.9  145.413
 4.0216  21403.4  145.358
 4.0636  21217.4  146.125
 4.1056  21101.1  145.399
 4.1476  21478.5  146.98
 4.1896  21687.2  147.564
 4.2316  21824.9  147.854
 4.2736  22078.2  148.515
 4.3156  22556.7  150.327
 4.3576  23231.9  152.492
 4.3996  23711.7  154.126
 4.4416  24460  156.326
 4.4836  26010.2  161.368
 4.5256  25521.8  160.431
 4.5676  25351.2  160.148
 4.6096  25481.5  159.6
 4.6516  26326.2  161.585
 4.6936  26419.6  162.66
 4.7356  27548  165.934
 4.7776  26590.5  162.863
 4.8196  25964.3  161.558
 4.8616  25536.6  159.854
 4.9036  25202  158.422
 4.9456  25668.2  160.524
 4.9876  24778.1  157.619
 5.0296  24562.9  156.755
 5.0716  24604.4  157.506
 5.1136  24626  157.428
 5.1556  25397.6  159.356
 5.1976  38424.9  195.98
 5.2396  26288.1  161.819
 5.2816  25506.4  159.836
 5.3236  25633.9  159.953
 5.3656  25169.5  159.391
 5.4076  24779.5  158.3
 5.4496  24822  157.942
 5.4916  24930.9  158.048
 5.5336  24861.8  157.84
 5.5756  24751  157.506
 5.6176  25115.9  158.122
 5.6596  25064.7  158.754
 5.7016  25085.1  158.258
 5.7436  25360.4  159.389
 5.7856  25383.9  159.516
 5.8276  25520.3  159.684
 5.8696  25601.7  159.987
 5.9116  25600  160.64
 5.9536  25742.1  160.876
 5.9956  26086.2  161.339
 6.0376  26326.1  162.699
 6.0796  26404.6  162.774
 6.1216  26563.2  163.466
 6.1636  26887.9  163.546
 6.2056  26870.7  164.148
 6.2476  26827.3  163.704
 6.2896  27109.2  164.438
 6.3316  27006.1  164.284
 6.3736  27368.1  165.287
 6.4156  27215  164.776
 6.4576  27810.4  166.13
 6.4996  27602  165.978
 6.5416  27932.3  167.096
 6.5836  28423.2  168.788
 6.6256  27892.9  166.773
 6.6676  28398.1  167.858
 6.7096  28107  167.815
 6.7516  28528.1  168.743
 6.7936  30469.8  173.557
 6.8356  31198.6  175.962
 6.8776  30161.8  173.811
 6.9196  29331.1  171.788
 6.9616  29637.1  172.113
 7.0036  30135.9  173.24
 7.0456  30330.4  173.109
 7.0876  30208.1  174.323
 7.1296  30065.7  173.161
 7.1716  29966.6  172.408
 7.2136  29689.5  171.414
 7.2556  30000.5  172.465
 7.2976  30053.4  173.102
 7.3396  30027.9  173.25
 7.3816  30217.8  173.994
 7.4236  30573.8  174.321
 7.4656  30556  173.769
 7.5076  30954.6  175.028
 7.5496  30505.8  174.27
 7.5916  30359.2  173.886
 7.6336  31609.9  177.333
 7.6756  31113.7  175.791
 7.7176  31538.6  177.294
 7.7596  31838.5  179.359
 7.8016  39748.9  202.788
 7.8436  32914.8  181.254
 7.8856  32691.6  180.263
 7.9276  33508.6  182.868
 7.9696  33438.6  183
 8.0116  34422.9  184.581
 8.0536  35164  186.453
 8.0956  38446.4  196.195
 8.1376  35709.9  188.552
 8.1796  35349.7  188.151
 8.2216  36603.6  190.188
 8.2636  37556.2  192.895
 8.3056  36716.7  191.477
 8.3476  39238.9  197.275
 8.3896  37768.7  194.054
 8.4316  36933.5  191.637
 8.4736  36934.5  191.108
 8.5156  36573.4  190.444
 8.5576  36351.3  190.85
 8.5996  36003.3  188.805
 8.6416  36266.7  190.76
 8.6836  36008  189.879
 8.7256  36941.9  191.802
 8.7676  40363  203.484
 8.8096  40615.2  201.275
 8.8516  36572.4  190.655
 8.8936  38842.5  196.313
 8.9356  35584.3  188.245
 8.9776  35571.1  188.306
 9.0196  35381.2  187.479
 9.0616  36641  190.239
 9.1036  39066.6  197.702
 9.1456  35671.1  188.26
 9.1876  34876.1  186.106
 9.2296  34619.7  184.84
 9.2716  33877.2  182.905
 9.3136  33704.6  182.421
 9.3556  34461.3  184.446
 9.3976  32637.5  180.01
 9.4396  33160.1  181.331
 9.4816  32688.5  179.913
 9.5236  32785.5  180.087
 9.5656  32387.2  179.306
 9.6076  32111.7  179.055
 9.6496  31929  178.473
 9.6916  32084  178.876
 9.7336  32389  179.509
 9.7756  32174  180.124
 9.8176  31240.9  177.071
 9.8596  31420.7  176.068
 9.9016  30911.5  174.626
 9.9436  31275  175.416
 9.9856  31646.4  176.828
 10.0276  30076.9  173.465
 10.0696  30371.6  173.375
 10.1116  30059  172.734
 10.1536  29378.8  170.441
 10.1956  28972.4  169.354
 10.2376  28562.3  167.66
 10.2796  28809.8  168.525
 10.3216  28706.3  168.356
 10.3636  28369.5  167.518
 10.4056  33780  183.241
 10.4476  34248  184.083
 10.4896  40106.8  198.574
 10.5316  35691.3  187.723
 10.5736  29078.5  170.2
 10.6156  28658.9  168.718
 10.6576  36287.2  188.26
 10.6996  28544.8  167.635
 10.7416  27240.3  164
 10.7836  29017.3  169.952
 10.8256  26590.5  163.101
 10.8676  26773.3  163.218
 10.9096  26691.3  162.981
 10.9516  26235.2  160.543
 10.9936  27428.1  164.339
 11.0356  27073.2  163.923
 11.0776  29229.4  169.61
 11.1196  28993.1  169.689
 11.1616  26448.9  161.789
 11.2036  27842.7  165.832
 11.2456  30082.9  173.141
 11.2876  25407.6  158.835
 11.3296  25917.5  160.324
 11.3716  26128  160.697
 11.4136  25168.4  158.566
 11.4556  25681.2  159.839
 11.4976  27600.2  164.663
 11.5396  27867.3  165.635
 11.5816  25337.3  158.365
 11.6236  24717.7  156.864
 11.6656  24599.2  155.445
 11.7076  24196.1  154.986
 11.7496  24634.8  160.248
 11.7916  25548.9  158.52
 11.8336  24020  154.6
 11.8756  24825.9  156.681
 11.9176  23957.3  153.823
 11.9596  23530  152.378
 12.0016  23393  152.712
 12.0436  23338.7  151.977
 12.0856  22970.4  151.281
 12.1276  23093.9  151.602
 12.1696  23248.2  151.266
 12.2116  24060.7  153.882
 12.2536  27437.7  165.173
 12.2956  24344.4  154.954
 12.3376  23561.6  152.642
 12.3796  23475.4  152.811
 12.4216  23743.5  152.914
 12.4636  25116.5  158.192
 12.5056  23031.3  150.783
 12.5476  23025  150.309
 12.5896  23081.9  151.117
 12.6316  22557.3  149.533
 12.6736  22902  150.996
 12.7156  23227.2  152.081
 12.7576  22795.9  150.9
 12.7996  23297.3  151.22
 12.8416  23582.7  153.184
 12.8836  24861  157.1
 12.9256  23731.5  152.524
 12.9676  23677.4  152.773
 13.0096  23169.7  152.189
 13.0516  23513.3  152.375
 13.0936  23402.2  152.127
 13.1356  23654  152.23
 13.1776  23700.3  153.353
 13.2196  23435.3  152.155
 13.2616  23108.8  151.399
 13.3036  23183  151.766
 13.3456  23302.2  152.137
 13.3876  23703.9  152.951
 13.4296  23541.6  152.577
 13.4716  23779.5  152.961
 13.5136  23509.1  152.239
 13.5556  23712.3  153.507
 13.5976  23539.5  153.081
 13.6396  24134.7  154.38
 13.6816  23197.5  151.698
 13.7236  24525.6  155.75
 13.7656  24009  154.639
 13.8076  24974.6  156.497
 13.8496  23740.1  153.353
 13.8916  23550.2  153.548
 13.9336  23331.6  152.078
 13.9756  23125.6  150.765
 14.0176  23275.7  151.926
 14.0596  24586  156.103
 14.1016  23155.3  151.888
 14.1436  22406.9  148.562
 14.1856  22441  148.972
 14.2276  22600.2  149.967
 14.2696  23020.4  151.203
 14.3116  22244.1  148.532
 14.3536  21586.8  146.496
 14.3956  21634.6  146.408
 14.4376  21590  146.031
 14.4796  21665.5  146.276
 14.5216  21325.8  145.898
 14.5636  22041.4  147.894
 14.6056  21373  145.216
 14.6476  21152.1  143.719
 14.6896  20707.1  142.729
 14.7316  20299.3  142.309
 14.7736  20369  141.733
 14.8156  20066.1  140.702
 14.8576  20247.3  141.187
 14.8996  20083.7  141.797
 14.9416  19581.2  140.017
 14.9836  19744.7  140.547
 15.0256  19736.7  139.483
 15.0676  19160  137.738
 15.1096  19198  137.619
 15.1516  18581.2  135.942
 15.1936  18977.6  136.811
 15.2356  19028.2  137.268
 15.2776  18895  136.378
 15.3196  18804.5  137.044
 15.3616  18461.9  135.537
 15.4036  18152.2  134.271
 15.4456  18883.1  136.359
 15.4876  18177.1  133.705
 15.5296  18074.4  133.617
 15.5716  17520.7  131.159
 15.6136  17799  132.526
 15.6556  20970.9  143.031
 15.6976  18194.7  133.297
 15.7396  18205.1  133.933
 15.7816  17847.9  132.13
 15.8236  17276  130.68
 15.8656  17242.6  130.36
 15.9076  17361.4  130.636
 15.9496  17841.3  135.222
 15.9916  16853.5  131.859
 16.0336  16554.3  127.636
 16.0756  16791.9  128.85
 16.1176  16629.9  128.139
 16.1596  16255.3  127.992
 16.2016  16404  127.344
 16.2436  16251.5  127.13
 16.2856  16382.8  127.197
 16.3276  15748  125.111
 16.3696  15896.1  125.517
 16.4116  15567.1  124.671
 16.4536  16013.6  126.226
 16.4956  16860.9  129.263
 16.5376  16402  127.668
 16.5796  15975.3  125.368
 16.6216  15633  124.32
 16.6636  16030.3  126.032
 16.7056  15686.6  124.547
 16.7476  15717.6  124.358
 16.7896  15810.2  125.319
 16.8316  15634.8  124.587
 16.8736  16201.8  127.079
 16.9156  16035.7  126.759
 16.9576  15509.2  125.473
 16.9996  15690.9  126.68
 17.0416  15562.4  124.574
 17.0836  15395  123.647
 17.1256  15259  123.12
 17.1676  16038.7  126.221
 17.2096  15709.2  124.792
 17.2516  15408.6  123.661
 17.2936  14751.1  121.034
 17.3356  14412.9  119.633
 17.3776  14579.4  120.513
 17.4196  14925  121.642
 17.4616  15025  121.96
 17.5036  15623.5  124.739
 17.5456  14556  121.025
 17.5876  14479.2  119.773
 17.6296  14431.5  119.373
 17.6716  14759.9  121.317
 17.7136  15426.2  124.157
 17.7556  14488.7  120.624
 17.7976  14799.6  121.528
 17.8396  14604.1  120.35
 17.8816  14209.4  119.249
 17.9236  13904.5  117.776
 17.9656  14460  120.784
 18.0076  15228.6  123.349
 18.0496  16550.9  127.689
 18.0916  23299.2  152.133
 18.1336  19721.9  140.121
 18.1756  16249.2  126.68
 18.2176  17287.1  130.917
 18.2596  14597.8  120.056
 18.3016  15458.2  123.8
 18.3436  16194.1  126.962
 18.3856  14740.4  121.019
 18.4276  14335  119.028
 18.4696  14854.4  121.258
 18.5116  14712.4  120.971
 18.5536  14265.2  119.466
 18.5956  14412.2  119.638
 18.6376  14633.4  120.972
 18.6796  14032.6  117.782
 18.7216  14541.2  120.465
 18.7636  13952.5  117.914
 18.8056  13611.8  116.414
 18.8476  13328.9  115.506
 18.8896  13497.5  115.884
 18.9316  13875.7  117.323
 18.9736  13743.5  116.619
 19.0156  14459.4  120.008
 19.0576  14159  117.639
 19.0996  13818.9  116.926
 19.1416  13737  116.96
 19.1836  13491.8  115.524
 19.2256  13328  115.025
 19.2676  13502.9  115.869
 19.3096  13446.1  115.868
 19.3516  13365.7  115.303
 19.3936  13772.8  117.194
 19.4356  13422.8  115.5
 19.4776  13509.8  115.969
 19.5196  13289  114.88
 19.5616  13541  116.214
 19.6036  13421.1  115.061
 19.6456  13713  116.568
 19.6876  14131.5  117.978
 19.7296  13443.2  115.511
 19.7716  13253.2  114.71
 19.8136  13615.4  116.618
 19.8556  14067.8  118.019
 19.8976  14289.5  119.012
 19.9396  13932.8  117.091
 19.9816  14224.2  118.555
 20.0236  14728.8  120.864
 20.0656  13729.4  116.688
 20.1076  13220.4  114.949
 20.1496  13177.7  114.767
 20.1916  13427.5  115.338
 20.2336  13368.2  115.064
 20.2756  13001  113.884
 20.3176  12888.9  113.144
 20.3596  13008  113.648
 20.4016  13077.5  113.758
 20.4436  12976.9  113.867
 20.4856  12828.3  113.001
 20.5276  12796.2  113.312
 20.5696  12857.3  113.152
 20.6116  12992.1  113.918
 20.6536  12710.4  112.256
 20.6956  12882.4  113.071
 20.7376  12804.8  112.961
 20.7796  12528.6  111.426
 20.8216  12885.2  112.72
 20.8636  13143.8  114.207
 20.9056  14778.4  121.051
 20.9476  13221.8  114.333
 20.9896  14468  119.464
 21.0316  13061.2  113.403
 21.0736  13411.8  115.441
 21.1156  13802.2  117.277
 21.1576  13011.9  113.916
 21.1996  12679.6  112.425
 21.2416  12582.1  111.83
 21.2836  13000.8  113.641
 21.3256  12728.5  112.523
 21.3676  12694  111.931
 21.4096  13265.2  114.794
 21.4516  12653.4  111.94
 21.4936  12486.2  111.441
 21.5356  12610.8  111.947
 21.5776  12658.7  111.996
 21.6196  12989.2  113.481
 21.6616  12788.9  112.693
 21.7036  12614.9  111.697
 21.7456  12376.6  110.717
 21.7876  12189.6  109.634
 21.8296  12203.5  109.554
 21.8716  12285.8  110.157
 21.9136  12569.8  111.617
 21.9556  12852.7  112.538
 21.9976  12500.2  110.994
 22.0396  12478.4  111.156
 22.0816  12420.7  111.424
 22.1236  12962.9  113.282
 22.1656  12492.7  111.378
 22.2076  12365.3  110.253
 22.2496  12389  110.397
 22.2916  12555.5  111.013
 22.3336  12692  112.319
 22.3756  12420.3  110.853
 22.4176  12318.3  110.246
 22.4596  12063.9  109.675
 22.5016  12690.9  111.978
 22.5436  12424.1  110.683
 22.5856  12423.5  110.933
 22.6276  12181.4  109.991
 22.6696  12216.2  110.486
 22.7116  12123.3  109.596
 22.7536  12253  110.145
 22.7956  12357  109.964
 22.8376  12212.1  109.81
 22.8796  12152.1  109.353
 22.9216  12205.6  110.122
 22.9636  12104.5  108.842
 23.0056  12303.7  109.868
 23.0476  12458.2  111.123
 23.0896  12581.8  111.05
 23.1316  12602.2  111.578
 23.1736  12215.2  112.759
 23.2156  12430.9  111.017
 23.2576  12264  110.494
 23.2996  12082.8  109.467
 23.3416  12090.5  110.012
 23.3836  12180.7  109.644
 23.4256  12215.1  109.938
 23.4676  12269.3  109.885
 23.5096  12248.2  110.453
 23.5516  12149.4  109.304
 23.5936  12423.2  111.415
 23.6356  12539.5  111.608
 23.6776  12121.2  110.27
 23.7196  12012.6  109.25
 23.7616  12234.4  109.955
 23.8036  12013.4  109.006
 23.8456  12101  108.965
 23.8876  11767.7  107.806
 23.9296  11989  109.294
 23.9716  11966.3  108.404
 24.0136  12068.8  109.741
 24.0556  11852.4  108.499
 24.0976  11807.9  108.106
 24.1396  11802.3  110.707
 24.1816  11860.1  109.752
 24.2236  11854.2  109.02
 24.2656  11871  108.576
 24.3076  11812.1  108.559
 24.3496  12309.4  110.708
 24.3916  11950.7  109.127
 24.4336  11952.7  109.347
 24.4756  11818  108.599
 24.5176  11562.4  107.071
 24.5596  11337.6  106.332
 24.6016  11373.3  106.599
 24.6436  11456.3  106.475
 24.6856  11500.2  106.451
 24.7276  11699.7  107.697
 24.7696  11495.1  106.854
 24.8116  11482.4  106.983
 24.8536  11346.4  106.334
 24.8956  11553.7  107.041
 24.9376  11363.9  106.324
 24.9796  11239.3  105.865
 25.0216  11262.4  106.076
 25.0636  11472.1  106.712
 25.1056  11165.8  105.718
 25.1476  11056  107.089
 25.1896  11128.1  105.943
 25.2316  11126.9  105.087
 25.2736  11230.9  105.353
 25.3156  10956.2  104.122
 25.3576  10894.4  104.251
 25.3996  10957  104.522
 25.4416  10948.5  104.472
 25.4836  10867.4  104.6
 25.5256  10958.5  104.41
 25.5676  11137.2  104.995
 25.6096  10795  103.929
 25.6516  10944.5  104.154
 25.6936  10796.9  103.748
 25.7356  10719.5  103.514
 25.7776  11009.2  104.579
 25.8196  10802.7  103.756
 25.8616  10980.7  104.523
 25.9036  11068.2  104.417
 25.9456  10676.3  103.145
 25.9876  10661.6  102.991
 26.0296  10887.6  103.816
 26.0716  10739.8  103.442
 26.1136  11061.8  104.919
 26.1556  11005.1  103.944
 26.1976  10640.5  103.214
 26.2396  10757.4  103.186
 26.2816  10714.1  103.336
 26.3236  10902.4  104.32
 26.3656  10644.3  102.88
 26.4076  10707.2  103.394
 26.4496  10947.8  104.045
 26.4916  10892.8  103.781
 26.5336  10701.9  103.192
 26.5756  11044.8  104.685
 26.6176  10956.5  104.327
 26.6596  10603.2  102.932
 26.7016  10409.3  101.794
 26.7436  10297.2  101.328
 26.7856  10194.3  100.803
 26.8276  10313.8  101.352
 26.8696  10359.6  101.455
 26.9116  10393.7  101.562
 26.9536  10325  101.264
 26.9956  10333.9  101.347
 27.0376  10257.6  101.184
 27.0796  10344.1  101.373
 27.1216  10496  102.156
 27.1636  10163.3  100.689
 27.2056  10388.6  101.684
 27.2476  10267.5  101.09
 27.2896  10188.6  100.746
 27.3316  10031.8  99.7497
 27.3736  10088.5  100.298
 27.4156  10009.8  99.738
 27.4576  10197.8  100.91
 27.4996  10165.9  100.347
 27.5416  10269.6  101.176
 27.5836  10208.8  100.691
 27.6256  10381.1  101.71
 27.6676  10206.8  100.874
 27.7096  10104.1  100.224
 27.7516  10983.2  104.654
 27.7936  10796.1  103.929
 27.8356  10564.7  102.424
 27.8776  10317.1  101.253
 27.9196  10332.3  101.181
 27.9616  10664.2  102.993
 28.0036  10367.7  101.524
 28.0456  10047.3  100.078
 28.0876  9929.2  99.5751
 28.1296  10046.1  99.9982
 28.1716  10128.7  100.418
 28.2136  9897.8  99.2272
 28.2556  9894.12  99.33
 28.2976  9911.58  99.4067
 28.3396  10018.7  99.7479
 28.3816  9916.7  99.2165
 28.4236  10261  101.081
 28.4656  9766.25  98.6445
 28.5076  9758.75  98.2524
 28.5496  9555.75  97.4813
 28.5916  9729.11  98.1666
 28.6336  9533.55  97.507
 28.6756  9814.39  98.1475
 28.7176  9766.48  98.4454
 28.7596  9605.13  97.5331
 28.8016  9560.86  97.4268
 28.8436  9622.02  97.8889
 28.8856  9571.41  97.4878
 28.9276  9726.13  98.5181
 28.9696  9598.11  97.5255
 29.0116  9411.81  96.7452
 29.0536  9420.39  96.9904
 29.0956  9668.92  97.9912
 29.1376  9680.14  98.009
 29.1796  9554.84  97.422
 29.2216  9444.72  96.6931
 29.2636  9475.67  96.8463
 29.3056  9468.83  96.6883
 29.3476  9525.77  97.4958
 29.3896  9576.01  97.8463
 29.4316  9613.45  97.3908
 29.4736  9538.24  97.0639
 29.5156  9602.89  97.3203
 29.5576  9527.34  97.6806
 29.5996  9567.93  97.1446
 29.6416  9404.99  96.436
 29.6836  9553.4  97.1162
 29.7256  9447.44  97.1372
 29.7676  9530.88  97.2171
 29.8096  9468.92  96.8532
 29.8516  9278.26  96.1929
 29.8936  9465.97  97.263
 29.9356  9521.56  97.3038
 29.9776  9382.25  96.7421
 30.0196  9554.09  97.0202
 30.0616  9508.74  97.1522
 30.1036  9382.69  96.3386
 30.1456  9295.22  96.1382
 30.1876  9178.47  95.4967
 30.2296  9211.03  95.5956
 30.2716  9312.61  95.7721
 30.3136  9304.62  96.3129
 30.3556  9390.37  97.0313
 30.3976  9335.61  98.2474
 30.4396  9468.21  96.2798
 30.4816  9357.46  95.319
 30.5236  9312.77  95.1125
 30.5656  9260.45  95.4865
 30.6076  9309.15  95.5121
 30.6496  9354.66  95.7882
 30.6916  9095.68  94.54
 30.7336  9204.17  95.255
 30.7756  9278.79  95.9488
 30.8176  9113.58  94.7933
 30.8596  9062.92  94.304
 30.9016  9097.94  94.36
 30.9436  9271.08  95.4758
 30.9856  9276.88  95.6127
 31.0276  9115.05  94.386
 31.0696  9100.91  94.7535
 31.1116  9175.07  95.2447
 31.1536  9370.23  96.1322
 31.1956  9307.73  95.9019
 31.2376  8934.13  93.9622
 31.2796  8936.65  93.5279
 31.3216  8976.8  93.6819
 31.3636  9111.09  95.0833
 31.4056  8994.83  95.7678
 31.4476  8971.79  93.5713
 31.4896  8977.43  94.1022
 31.5316  9367.81  95.5634
 31.5736  10127.8  99.1176
 31.6156  9934.24  98.204
 31.6576  9328.14  95.2593
 31.6996  9237.41  94.4652
 31.7416  9273.46  95.5657
 31.7836  9129.6  93.9911
 31.8256  9063.93  93.9962
 31.8676  9225.66  94.7512
 31.9096  8994.68  93.7789
 31.9516  8870.18  93.4148
 31.9936  8925.01  93.539
 32.0356  9057.93  94.2918
 32.0776  9134.98  94.5762
 32.1196  8891.5  93.3041
 32.1616  8928.93  93.0597
 32.2036  8897.62  93.3922
 32.2456  8858.1  93.5628
 32.2876  8971.17  93.5016
 32.3296  8713.15  92.2686
 32.3716  8846.02  93.0729
 32.4136  9059.28  94.3825
 32.4556  8992.35  93.4775
 32.4976  9000.71  93.414
 32.5396  8761.93  92.2027
 32.5816  8758.55  92.193
 32.6236  8868.51  92.9504
 32.6656  8871.57  93.4965
 32.7076  8660.29  92.0418
 32.7496  8785.22  92.3842
 32.7916  8869.61  92.7751
 32.8336  8725.06  92.1216
 32.8756  8807.9  92.3641
 32.9176  8841.53  92.9334
 32.9596  8860.07  93.0942
 33.0016  8811.95  92.6468
 33.0436  8895.1  93.2473
 33.0856  8687.18  92.2268
 33.1276  8740.87  92.2527
 33.1696  8624.26  91.4701
 33.2116  8792.21  92.5942
 33.2536  8789.34  92.57
 33.2956  8685.6  92.104
 33.3376  8616.03  91.5389
 33.3796  8738.32  92.3309
 33.4216  8744.07  91.9571
 33.4636  8617.37  91.4397
 33.5056  8702.73  91.9668
 33.5476  8486.26  90.9629
 33.5896  8723.12  91.9588
 33.6316  8409.13  90.6393
 33.6736  8380.25  90.7169
 33.7156  8533.05  91.5919
 33.7576  8647.46  91.833
 33.7996  8718.95  91.9847
 33.8416  8503.96  91.0191
 33.8836  8514.24  90.861
 33.9256  8563.76  91.1806
 33.9676  8627.78  91.42
 34.0096  8422.04  90.6294
 34.0516  8531.67  90.8583
 34.0936  8413.95  90.495
 34.1356  8490.43  90.6466
 34.1776  8380.36  90.0695
 34.2196  8351.49  90.0896
 34.2616  8357.7  90.321
 34.3036  8446.74  90.9818
 34.3456  8437.88  90.6947
 34.3876  8410.46  90.5998
 34.4296  8414.58  90.2222
 34.4716  8497.46  90.8074
 34.5136  8423.21  90.6182
 34.5556  8359.46  90.5231
 34.5976  8512.25  91.182
 34.6396  8375.8  90.1374
 34.6816  8471.36  90.7616
 34.7236  8398.59  90.1605
 34.7656  8478.99  90.7792
 34.8076  8366.02  90.5
 34.8496  8358.81  90.3115
 34.8916  8433.97  90.5948
 34.9336  8506.63  90.9464
 34.9756  8751.14  92.1707
 35.0176  8573.32  91.7403
 35.0596  8277.77  89.9807
 35.1016  8269.94  89.7158
 35.1436  8396.23  90.0782
 35.1856  8307.88  89.734
 35.2276  8444.41  90.6491
 35.2696  8275.55  89.9212
 35.3116  8438.13  90.896
 35.3536  8317.65  89.9878
 35.3956  8353.44  89.8632
 35.4376  8244.3  89.812
 35.4796  8355.25  90.4816
 35.5216  8313.1  90.1386
 35.5636  8068.12  89.6042
 35.6056  8368.03  90.28
 35.6476  8341.82  90.0298
 35.6896  8393.14  90.4671
 35.7316  8361.7  90.1951
 35.7736  8164.72  89.3232
 35.8156  8141.56  89.1906
 35.8576  8227.56  89.9157
 35.8996  8342.28  90.5012
 35.9416  8324.3  89.9168
 35.9836  8298.55  90.2237
 36.0256  8170.84  89.4414
 36.0676  8318.96  89.797
 36.1096  8246.62  89.7604
 36.1516  8185.97  89.3142
 36.1936  8279.27  89.6691
 36.2356  8208.86  89.9285
 36.2776  8187.5  89.2822
 36.3196  8243.71  89.2777
 36.3616  8148.63  88.8903
 36.4036  8161.61  89.0102
 36.4456  8146.28  89.1358
 36.4876  8049.74  88.5542
 36.5296  8185.9  89.3348
 36.5716  8255.04  90.4944
 36.6136  8569.38  90.9556
 36.6556  8530.6  90.9515
 36.6976  8307.85  90.262
 36.7396  8303.67  90.0635
 36.7816  8234.87  89.97
 36.8236  8165.73  89.5181
 36.8656  8066.25  89.0409
 36.9076  8130.67  89.3975
 36.9496  8006.9  88.7293
 36.9916  8144.23  88.9645
 37.0336  8283.38  90.031
 37.0756  8114.27  88.909
 37.1176  7955.59  88.3827
 37.1596  8068.9  88.929
 37.2016  7997.19  88.7161
 37.2436  8158.71  88.971
 37.2856  7945.05  88.0519
 37.3276  8159.5  88.5833
 37.3696  7989.39  88.5396
 37.4116  8040.9  88.7133
 37.4536  7930.25  87.978
 37.4956  7860.4  87.6213
 37.5376  7957.41  89.7039
 37.5796  8039.88  90.1261
 37.6216  7738.16  86.7086
 37.6636  7870.47  87.346
 37.7056  7980.09  88.1437
 37.7476  7933.62  87.4268
 37.7896  7956.02  88.0448
 37.8316  7730.46  86.9614
 37.8736  7880.7  87.331
 37.9156  7899.83  87.4348
 37.9576  7825.74  87.0696
 37.9996  7883.64  86.9579
 38.0416  7739.11  86.9568
 38.0836  7992.63  88.2712
 38.1256  7953.46  88.0056
 38.1676  7876.79  87.7269
 38.2096  8054.82  88.3342
 38.2516  7990  88.0741
 38.2936  7877.9  87.3616
 38.3356  8023.67  88.085
 38.3776  7768.51  86.9401
 38.4196  7961.73  87.8696
 38.4616  7761.25  86.9887
 38.5036  8042.67  88.3931
 38.5456  7811.18  87.9546
 38.5876  7875.57  88.3499
 38.6296  7794  86.8785
 38.6716  7777.39  86.5876
 38.7136  7720.92  86.2175
 38.7556  7688.5  86.5227
 38.7976  7859.16  87.424
 38.8396  7653.31  86.7183
 38.8816  7719.2  86.8729
 38.9236  7640.33  86.2436
 38.9656  7782.7  86.9575
 39.0076  7831.38  86.6406
 39.0496  7724.73  86.5707
 39.0916  7880.2  87.0925
 39.1336  7687.5  86.4322
 39.1756  7611.85  86.0716
 39.2176  7738.94  87.3196
 39.2596  7699.44  87.0096
 39.3016  7688.9  86.5272
 39.3436  7564.76  86.2447
 39.3856  7783.36  86.9361
 39.4276  7732.53  87.128
 39.4696  7714.75  86.671
 39.5116  7649.8  86.7985
 39.5536  7955.92  88.9496
 39.5956  7741.8  86.862
 39.6376  7831.02  87.1939
 39.6796  7810.49  86.992
 39.7216  7774.27  86.8768
 39.7636  7780.02  87.4814
 39.8056  7766.47  87.1738
 39.8476  7715.26  87.1473
 39.8896  7756.29  87.0056
 39.9316  7766.43  87.3193
 39.9736  7832.82  87.2667
 40.0156  7801.87  86.9157
 40.0576  7820.91  87.3862
 40.0996  7959.17  87.33
 40.1416  7799.6  87.2282
 40.1836  7777.1  86.9921
 40.2256  7904.02  87.7551
 40.2676  7765.76  87.1501
 40.3096  7830.81  87.3783
 40.3516  7821.21  87.511
 40.3936  7907.85  87.4778
 40.4356  7789.7  87.0152
 40.4776  7825.34  87.4534
 40.5196  7862.18  87.9509
 40.5616  7827.3  87.4011
 40.6036  7772.86  87.3493
 40.6456  7865.88  87.4791
 40.6876  7954.62  87.9553
 40.7296  7835.37  87.437
 40.7716  7903.4  87.9375
 40.8136  7711.72  86.8186
 40.8556  7804.93  87.4652
 40.8976  7774.83  87.2231
 40.9396  7833.95  87.8973
 40.9816  7848.73  87.2741
 41.0236  7774.16  86.6318
 41.0656  7862.73  87.6626
 41.1076  7925.21  87.79
 41.1496  7902.97  87.5744
 41.1916  7859.6  87.6626
 41.2336  7760.28  87.0837
 41.2756  7852.76  87.2134
 41.3176  7829.5  87.6914
 41.3596  7867.04  87.6327
 41.4016  7798.64  87.5095
 41.4436  7832.36  87.4862
 41.4856  7822.2  87.5996
 41.5276  7780.98  87.3814
 41.5696  7844.5  87.3534
 41.6116  7663.94  86.7459
 41.6536  7717.16  86.9082
 41.6956  7927.44  88.0659
 41.7376  7761.34  87.239
 41.7796  7816.35  87.478
 41.8216  7738.05  87.2242
 41.8636  7853.33  87.8155
 41.9056  7786.77  87.2267
 41.9476  7771.73  87.3805
 41.9896  7834.39  87.3918
 42.0316  7867.19  87.661
 42.0736  7906.86  88.0189
 42.1156  7635.14  86.3088
 42.1576  7806.57  87.3749
 42.1996  7759.13  87.2425
 42.2416  7773.64  86.9143
 42.2836  7764.06  86.9675
 42.3256  7654  86.4672
 42.3676  7746.01  86.7877
 42.4096  7752.72  86.7895
 42.4516  7652.73  86.3132
 42.4936  7786.96  87.1396
 42.5356  7772.64  87.1954
 42.5776  7791.9  87.2392
 42.6196  7741.06  86.9295
 42.6616  7618.86  86.4836
 42.7036  7781.58  86.7917
 42.7456  7678.18  86.5583
 42.7876  7672.61  86.6317
 42.8296  7723.85  86.8167
 42.8716  7513.46  85.724
 42.9136  7664.76  86.3369
 42.9556  7788.37  87.2
 42.9976  7704.6  86.6954
 43.0396  7692.46  86.3585
 43.0816  7653.42  86.5052
 43.1236  7542.55  85.9415
 43.1656  7674.59  86.5208
 43.2076  7556.69  85.948
 43.2496  7602.39  86.031
 43.2916  7516.31  85.9029
 43.3336  7673.49  86.6374
 43.3756  7607.9  86.0248
 43.4176  7516.68  85.5875
 43.4596  7569.59  85.7426
 43.5016  7553.27  86.0519
 43.5436  7507.47  85.693
 43.5856  7587.87  86.1723
 43.6276  7579.73  86.0285
 43.6696  7493.8  85.6792
 43.7116  7626.67  86.0504
 43.7536  7594.94  86.3564
 43.7956  7358.12  86.1455
 43.8376  7522.35  85.6901
 43.8796  7472.43  85.4786
 43.9216  7570.94  85.9602
 43.9636  7570.46  86.0582
 44.0056  7407.28  85.3571
 44.0476  7479.5  85.4014
 44.0896  7513.02  85.9397
 44.1316  7425.76  85.1131
 44.1736  7449.79  85.2334
 44.2156  7478.07  85.2559
 44.2576  7609.11  86.3131
 44.2996  7505.82  85.7084
 44.3416  7571.87  85.8271
 44.3836  7335.41  84.8055
 44.4256  7373.26  84.6681
 44.4676  7362.71  84.77
 44.5096  7351.03  84.844
 44.5516  7377.51  84.964
 44.5936  7213.86  83.9684
 44.6356  7332  84.393
 44.6776  7284.78  84.4415
 44.7196  7393.96  85.3269
 44.7616  7285.88  86.0445
 44.8036  7233.5  84.3631
 44.8456  7277.9  84.6278
 44.8876  7348.59  84.8941
 44.9296  7349.72  84.3637
 44.9716  7294.31  84.4713
 45.0136  7322.63  84.5664
 45.0556  7137.38  83.5703
 45.0976  7354.91  84.8817
 45.1396  7038.17  82.8096
 45.1816  7247.61  83.7968
 45.2236  7258.04  83.9252
 45.2656  7232.38  84.2677
 45.3076  7185.79  83.7796
 45.3496  7178.29  84.0397
 45.3916  7222.75  84.5664
 45.4336  7249.27  84.5695
 45.4756  7226.15  84.2945
 45.5176  7278.99  84.2214
 45.5596  7428.13  85.2005
 45.6016  7164.69  84.0865
 45.6436  7156.8  83.2331
 45.6856  7156.49  83.8823
 45.7276  7195.85  85.9305
 45.7696  7192.35  85.068
 45.8116  7237.06  84.8004
 45.8536  7093.06  83.8413
 45.8956  7278.21  84.2869
 45.9376  7229.42  83.4766
 45.9796  7215.99  84.0709
 46.0216  7129.58  83.9069
 46.0636  7314.33  84.1375
 46.1056  7352.33  84.341
 46.1476  7163.39  83.8298
 46.1896  7119.98  83.726
 46.2316  7226.92  84.2246
 46.2736  7122.11  83.8094
 46.3156  7185.91  83.9384
 46.3576  7219.71  84.3374
 46.3996  7056.62  83.5315
 46.4416  7076.49  83.2212
 46.4836  7189.58  84.2503
 46.5256  7084.05  83.5714
 46.5676  7109.84  83.835
 46.6096  7272.66  84.7282
 46.6516  7246.86  83.6256
 46.6936  7265.02  84.2163
 46.7356  7315.49  84.6096
 46.7776  7105.18  84.2074
 46.8196  7005.36  83.3697
 46.8616  6882.39  82.4323
 46.9036  6968.51  82.6266
 46.9456  7062.15  82.8118
 46.9876  6992.56  82.4876
 47.0296  6987.83  83.1263
 47.0716  7035.17  83.239
 47.1136  6880.04  82.0036
 47.1556  6997.1  82.5626
 47.1976  7054.34  83.0614
 47.2396  6911.21  82.5221
 47.2816  6948.23  82.4606
 47.3236  6910.29  82.592
 47.3656  7043.07  83.3146
 47.4076  6943.52  82.4451
 47.4496  6783.89  81.6658
 47.4916  6976  82.9911
 47.5336  6983.54  82.8648
 47.5756  7020.85  83.1605
 47.6176  6826.71  81.9452
 47.6596  6942.21  82.3596
 47.7016  7046.47  82.7877
 47.7436  7069.49  83.2644
 47.7856  6936.6  82.4884
 47.8276  6873.56  82.1651
 47.8696  6916.05  82.5021
 47.9116  6956.64  82.4617
 47.9536  6910.62  82.1251
 47.9956  6883.85  82.6687
 48.0376  6786.14  81.8671
 48.0796  7054.42  83.5909
 48.1216  7009.11  83.1508
 48.1636  7047.64  82.9503
 48.2056  6950.53  82.6355
 48.2476  6942.69  82.8912
 48.2896  6842.69  82.2068
 48.3316  6862.81  82.2616
 48.3736  6846.54  82.1941
 48.4156  6821.58  81.9051
 48.4576  6789.52  81.9918
 48.4996  6877.76  81.9951
 48.5416  6857.07  82.185
 48.5836  6826.58  81.6878
 48.6256  6947.3  82.6147
 48.6676  6891.72  82.7849
 48.7096  6856.33  81.8538
 48.7516  6830.07  81.846
 48.7936  6783.84  81.6305
 48.8356  6851.45  82.0828
 48.8776  6753.39  81.97
 48.9196  6929.72  82.486
 48.9616  6873.23  82.5196
 49.0036  6793.04  82.3842
 49.0456  6840.98  82.6632
 49.0876  6875.33  82.508
 49.1296  6712.18  81.5768
 49.1716  6751.54  81.7001
 49.2136  6950.43  82.8164
 49.2556  6825.31  82.1028
 49.2976  6880  82.4958
 49.3396  6708.42  81.5195
 49.3816  6851.23  81.8242
 49.4236  6733.3  81.5228
 49.4656  6703.3  81.3649
 49.5076  6752.5  81.4165
 49.5496  6757.85  81.3921
 49.5916  6737.61  81.3076
 49.6336  6764.53  81.6728
 49.6756  6744.83  81.7835
 49.7176  6746.68  81.7297
 49.7596  6771.52  81.8198
 49.8016  6842.99  82.0011
 49.8436  6708.75  81.4899
 49.8856  6675.68  81.2925
 49.9276  6597.91  80.9157
 49.9696  6713.73  81.6032
 50.0116  6757.15  81.9926
 50.0536  6720.42  81.7233
 50.0956  6600.81  81.0525
 50.1376  6717.5  81.466
 50.1796  6545.52  80.6876
 50.2216  6578.7  80.8872
 50.2636  6597.63  80.6259
 50.3056  6577.18  80.6822
 50.3476  6627.43  81.0075
 50.3896  6557.19  80.5451
 50.4316  6661.48  81.0251
 50.4736  6579.82  80.7386
 50.5156  6625.07  81.0048
 50.5576  6639.53  80.8578
 50.5996  6596.34  80.8718
 50.6416  6578.85  80.6949
 50.6836  6638.19  81.1214
 50.7256  6605.81  80.8432
 50.7676  6709.1  81.7522
 50.8096  6549.09  80.3476
 50.8516  6554.19  80.7929
 50.8936  6541.54  80.4936
 50.9356  6667.42  81.3703
 50.9776  6641.27  81.3647
 51.0196  6417.18  80.1129
 51.0616  6438.2  79.5907
 51.1036  6559.28  80.6821
 51.1456  6598.35  80.8403
 51.1876  6482.78  79.4831
 51.2296  6534.68  80.4238
 51.2716  6513.82  79.9962
 51.3136  6354.6  79.4575
 51.3556  6483.84  79.8924
 51.3976  6438.68  79.7706
 51.4396  6317.31  79.3057
 51.4816  6414.15  79.765
 51.5236  6486.96  80.3115
 51.5656  6431.36  79.5745
 51.6076  6467.15  79.8844
 51.6496  6493.15  80.2185
 51.6916  6378.48  79.8657
 51.7336  6409.94  80.1386
 51.7756  6504.45  80.4372
 51.8176  6346.11  79.5369
 51.8596  6464  80.3052
 51.9016  6558.35  80.5034
 51.9436  6375.1  80.7927
 51.9856  6271.7  80.5517
 52.0276  6413.57  79.9835
 52.0696  6430.56  80.1529
 52.1116  6320.42  79.575
 52.1536  6397.55  79.8967
 52.1956  6413.35  79.5157
 52.2376  6488.95  80.1578
 52.2796  6452.25  79.7468
 52.3216  6256.25  79.1986
 52.3636  6425.42  79.847
 52.4056  6353.04  79.2587
 52.4476  6321.3  79.4174
 52.4896  6301.18  79.3405
 52.5316  6305.52  79.4066
 52.5736  6377.6  79.5901
 52.6156  6353.99  79.8148
 52.6576  6470.79  79.9941
 52.6996  6240.13  79.5099
 52.7416  6330.38  79.9368
 52.7836  6306.5  79.6764
 52.8256  6346.93  79.1625
 52.8676  6219.72  78.9214
 52.9096  6369.53  79.9535
 52.9516  6301.87  79.8991
 52.9936  6264.48  80.0522
 53.0356  6248.49  78.9835
 53.0776  6174.28  78.779
 53.1196  6095.82  78.3858
 53.1616  6150.65  78.7856
 53.2036  6175.5  78.9017
 53.2456  6002.34  77.8781
 53.2876  6055.45  77.9417
 53.3296  6182.42  79.0754
 53.3716  6235.73  79.1543
 53.4136  6116.15  78.5481
 53.4556  6127.18  78.6485
 53.4976  6075.33  78.1681
 53.5396  6136.74  78.952
 53.5816  6130.89  78.5522
 53.6236  6085.95  78.5886
 53.6656  6107.94  78.3769
 53.7076  6209.01  78.9838
 53.7496  6082.88  78.2857
 53.7916  6042.84  78.1586
 53.8336  6068.74  78.2153
 53.8756  6090.72  78.8966
 53.9176  6208.81  79.027
 53.9596  6231.18  79.9038
 54.0016  6099.72  78.4172
 54.0436  6166.82  79.0516
 54.0856  6193.69  78.6533
 54.1276  6128.44  78.4391
 54.1696  6159.98  78.8086
 54.2116  6109.38  78.2469
 54.2536  6049.93  77.6841
 54.2956  6176.15  78.5444
 54.3376  6111.74  78.6045
 54.3796  6115.49  78.5367
 54.4216  6260.66  79.5048
 54.4636  6142.47  78.7069
 54.5056  6087.78  78.1744
 54.5476  6059.21  78.3245
 54.5896  6149.71  78.7343
 54.6316  6109.46  78.3447
 54.6736  6106.8  78.3579
 54.7156  6063.26  78.1416
 54.7576  6053.95  78.0858
 54.7996  6058.78  78.2527
 54.8416  6146.22  78.8554
 54.8836  6017.25  78.1314
 54.9256  6037.97  78.0198
 54.9676  6150.47  78.588
 55.0096  6094.03  78.3089
 55.0516  6144.26  78.8006
 55.0936  6123.64  78.358
 55.1356  6017.06  77.7281
 55.1776  6048.88  78.1831
 55.2196  5973.33  77.489
 55.2616  6013.05  77.9553
 55.3036  5993.78  77.9843
 55.3456  6009.37  78.2299
 55.3876  6083.06  78.4617
 55.4296  6148.9  78.8604
 55.4716  6116.13  78.685
 55.5136  6079.88  78.2157
 55.5556  5982.06  77.6464
 55.5976  6055.75  78.1821
 55.6396  6020.22  77.8195
 55.6816  6059.46  78.0336
 55.7236  5967.85  77.5738
 55.7656  6058.26  77.8289
 55.8076  6104.56  78.1103
 55.8496  5961.07  77.6035
 55.8916  5994.68  77.8786
 55.9336  5978.08  77.6239
 55.9756  5980.35  77.5326
 56.0176  5984.93  77.7128
 56.0596  6036.1  78.0333
 56.1016  6006.98  77.8854
 56.1436  5991.93  78.0149
 56.1856  6032.32  78.0235
 56.2276  5984.35  77.7586
 56.2696  6007.34  77.8823
 56.3116  5999.95  78.2258
 56.3536  6013.02  77.9799
 56.3956  5989.22  77.82
 56.4376  5936.93  77.5131
 56.4796  6018.59  77.8499
 56.5216  5990.23  78.032
 56.5636  6080.85  78.2176
 56.6056  5971.01  77.7246
 56.6476  5948.43  77.2216
 56.6896  6002.18  78.002
 56.7316  6022.24  78.0341
 56.7736  5940.15  77.5103
 56.8156  6036.24  78.1296
 56.8576  5993.02  77.7959
 56.8996  6039.64  78.0427
 56.9416  6037.81  78.1889
 56.9836  5934.86  77.1773
 57.0256  5941.63  77.5374
 57.0676  5954.94  77.743
 57.1096  6008.48  77.8845
 57.1516  6070.43  78.3142
 57.1936  6062.95  78.0494
 57.2356  6001.39  77.9681
 57.2776  6032.05  78.1219
 57.3196  5993.6  78.2361
 57.3616  5983.62  77.6735
 57.4036  6016.56  77.9483
 57.4456  5929.26  77.342
 57.4876  6031.39  77.8733
 57.5296  5946.65  77.5574
 57.5716  5954.62  77.6918
 57.6136  6006.63  77.8558
 57.6556  5971.99  77.7724
 57.6976  6027.64  77.9509
 57.7396  5911.94  77.5729
 57.7816  5908.81  77.9008
 57.8236  6051.38  78.6293
 57.8656  6031.56  78.1608
 57.9076  5956.84  77.7059
 57.9496  5908.43  77.7336
 57.9916  5936.74  77.3904
 58.0336  5926.34  77.6464
 58.0756  5957.31  77.4467
 58.1176  5975.62  77.6034
 58.1596  5917.06  77.7795
 58.2016  5995.99  77.547
 58.2436  5985.89  77.8779
 58.2856  6021.44  78.0206
 58.3276  5961.01  78.0032
 58.3696  5965.49  77.7933
 58.4116  5944.12  77.5138
 58.4536  5992.25  77.7091
 58.4956  5987.25  77.8616
 58.5376  6057.79  77.891
 58.5796  5928.68  77.4665
 58.6216  5826.92  76.6265
 58.6636  6004.17  77.9839
 58.7056  6014.11  77.9162
 58.7476  5956.98  77.9874
 58.7896  5893.03  77.2136
 58.8316  5901.84  77.2773
 58.8736  6054.64  78.2722
 58.9156  5860.17  77.0573
 58.9576  6132.68  79.0225
 58.9996  6093.96  78.1328
 59.0416  6127.93  78.7127
 59.0836  6072.89  78.288
 59.1256  5976.21  78.0457
 59.1676  5854.73  77.8621
 59.2096  5948.62  77.7767
 59.2516  6087.19  78.2569
 59.2936  5974.25  77.8537
 59.3356  6047.28  78.2058
 59.3776  6070.4  78.5245
 59.4196  6037.34  78.2469
 59.4616  5925.17  77.3774
 59.5036  5947.33  77.5558
 59.5456  6107.9  78.2888
 59.5876  5983.91  77.6803
 59.6296  5969.36  77.6545
 59.6716  5982.24  77.7959
 59.7136  6062.07  78.3015
 59.7556  5890.35  77.3193
 59.7976  5934.29  77.3516
 59.8396  5942.45  77.2999
 59.8816  5940.89  77.8309
 59.9236  6116.42  78.6135
 59.9656  6003.11  78.1419
 60.0076  6186.65  78.677
 60.0496  6016.58  78.0894
 60.0916  6123.04  78.193
 60.1336  6018.26  78.6262
 60.1756  5976.31  79.5295
 60.1996  0.0000000E+00  0.0000000E+00