File: docs/examples/opeando_xrd/IS17_D/Data/IS17_D/17_Db_f00022.xye
# /beamlines/bl04/projects/cycle2025-II/20250340211-lsimonelli/DATA/IS17_D/17_Db_f00022.xye : mythproc.py merge -s 0.006 -l 0.5 -f /beamlines/bl04/inhouse/ff/FlatField/ff_20Nov2024rod8mm60s_17keV.raw -b True -c true -o xye /beamlines/bl04/projects/cycle2025-II/20250340211-lsimonelli/DATA/IS17_D/17_Db_00022.dat
# IsMon = [6750005, 6755159, 6751649]  IsPos = [-1.5000, -2.4885, -3.4986]
# Wave = 0.4962  CalPath /beamlines/bl04/projects/cycle2025-II/20250340211-lsimonelli/DATA/Align/Si_Pos1_25keV_f00001.cal
# Date = 2025-09-23_23:49:56 Dt = 4.8000  Bin = 0.0060  <imon> = 6752271 +/- 2150 (Min/Max) 6750005 / 6755159
# icurr 250.2201  mocoIn 1.7068E-05  mocoOut 0.8011  i15 7.07069e+06  imon 6.75227e+06  i7 4.6667  iEMpd_timer 4.8000  iEMpd_1 3.5677E-08  iEMpd_2 7.6829E-08  iEMpd_3 1.7098E-08  iEMpd_4 4.8064E-08  iEMhp_timer 4.8000  iEMhp_1 4.8884E-06  iEMhp_2 -2.4775E-08  iEMhp_3 -2.3732E-08  iEMhp_4 -2.1652E-08
#      9776
 1.5856  42956.3  212.858
 1.6276  49693.3  225.013
 1.6696  55284.9  236.498
 1.7116  63490.2  253.938
 1.7536  70387.4  266.236
 1.7956  75205.3  275.885
 1.8376  71408.2  269.256
 1.8796  61525.9  248.106
 1.9216  50357.2  225.342
 1.9636  43901.6  210.071
 2.0056  39041.1  196.835
 2.0476  36230.7  191.697
 2.0896  34952.3  187.18
 2.1316  34224.5  184.331
 2.1736  32784  181.841
 2.2156  33690.7  182.859
 2.2576  31889.9  178.542
 2.2996  30867.9  176.303
 2.3416  31159.5  175.719
 2.3836  30399.1  173.67
 2.4256  29854.3  172.667
 2.4676  29006.6  169.957
 2.5096  29181.4  170.524
 2.5516  31369  180.779
 2.5936  72649.6  269.652
 2.6356  29155.8  171.547
 2.6776  27256  164.772
 2.7196  26745.4  163.711
 2.7616  26632.6  163.156
 2.8036  25983.3  161.313
 2.8456  25887.8  161.651
 2.8876  25726.6  160.986
 2.9296  25206.1  159.494
 2.9716  24887.6  157.983
 3.0136  24463.4  156.697
 3.0556  24597  157.513
 3.0976  24645.8  156.591
 3.1396  23932.3  155.021
 3.1816  23973  155.095
 3.2236  23682.9  154.151
 3.2656  23807.4  153.599
 3.3076  23539.8  154.187
 3.3496  23945.3  154.681
 3.3916  24096.1  154.757
 3.4336  24491.3  156.597
 3.4756  24935  157.956
 3.5176  25590.6  159.782
 3.5596  25218.5  161.593
 3.6016  25503.7  159.584
 3.6436  24407.9  157.2
 3.6856  24246.6  155.009
 3.7276  23190.4  152.648
 3.7696  23109.7  152.376
 3.8116  22798.8  151.446
 3.8536  22829.7  151.482
 3.8956  22979.7  151.795
 3.9376  22740.9  151.304
 3.9796  22567.3  150.189
 4.0216  22727.7  149.764
 4.0636  22609.3  150.821
 4.1056  22579.2  150.379
 4.1476  22936  151.879
 4.1896  23094.5  152.249
 4.2316  23120.7  152.177
 4.2736  23511.3  153.256
 4.3156  23738.4  154.225
 4.3576  24686.9  157.185
 4.3996  24582.8  156.917
 4.4416  25337.1  159.101
 4.4836  26090.1  161.6
 4.5256  26479.8  163.417
 4.5676  26290.6  163.078
 4.6096  26389.8  162.426
 4.6516  27069.9  163.841
 4.6936  27288.1  165.324
 4.7356  27682.7  166.337
 4.7776  27182  164.652
 4.8196  27144.6  165.192
 4.8616  26385  162.489
 4.9036  26554.7  162.608
 4.9456  26398.2  162.787
 4.9876  25446  159.716
 5.0296  25869.9  160.884
 5.0716  25637.1  160.761
 5.1136  26056.2  161.938
 5.1556  26198.9  161.836
 5.1976  29632.2  172.119
 5.2396  26833.6  163.479
 5.2816  26700.2  163.546
 5.3236  26492.8  162.6
 5.3656  26225.8  162.701
 5.4076  25860.9  161.7
 5.4496  25814.2  161.059
 5.4916  25981.1  161.338
 5.5336  25736.8  160.584
 5.5756  26040.7  161.549
 5.6176  25977.9  160.801
 5.6596  26214.4  162.344
 5.7016  26354  162.204
 5.7436  26538.3  163.048
 5.7856  26375.4  162.614
 5.8276  26466.6  162.605
 5.8696  26960.1  164.182
 5.9116  26432.5  163.239
 5.9536  27158.8  165.24
 5.9956  27183.7  164.713
 6.0376  26939.6  164.58
 6.0796  27420.1  165.87
 6.1216  27221.7  165.462
 6.1636  27740.4  166.098
 6.2056  27402.6  165.755
 6.2476  27950.6  167.098
 6.2896  28234.6  167.808
 6.3316  28131.5  167.674
 6.3736  28022.3  167.234
 6.4156  27984.7  167.073
 6.4576  28119.6  167.047
 6.4996  28224.3  167.819
 6.5416  28537.7  168.874
 6.5836  28375.6  168.631
 6.6256  28349.7  168.125
 6.6676  29084  169.862
 6.7096  29020  170.527
 6.7516  29234  170.805
 6.7936  30043.4  172.324
 6.8356  30259.9  173.289
 6.8776  29850.4  172.893
 6.9196  29734.6  172.959
 6.9616  30124  173.505
 7.0036  30788.8  175.091
 7.0456  30746.6  174.287
 7.0876  30716.1  175.78
 7.1296  30467.5  174.297
 7.1716  30517.3  173.996
 7.2136  30074.4  172.51
 7.2556  30481.6  173.816
 7.2976  30544.8  174.494
 7.3396  30390.2  174.252
 7.3816  30217.8  173.983
 7.4236  30528.1  174.184
 7.4656  30744.8  174.27
 7.5076  31028  175.214
 7.5496  30800.2  175.103
 7.5916  30975.2  175.643
 7.6336  31433.9  176.83
 7.6756  31212.4  176.056
 7.7176  31742.2  177.861
 7.7596  31732.7  179.039
 7.8016  34104.6  187.882
 7.8436  31899.4  178.412
 7.8856  31919  178.081
 7.9276  32604.4  180.386
 7.9696  32682.8  180.894
 8.0116  33804.1  182.916
 8.0536  34140.1  183.7
 8.0956  34965.4  187.066
 8.1376  34337.1  184.871
 8.1796  34407.6  185.573
 8.2216  35562.4  187.44
 8.2636  35774  188.24
 8.3056  35392.6  187.994
 8.3476  36751.9  190.897
 8.3896  35615.9  188.437
 8.4316  35645.9  188.242
 8.4736  35823.2  188.19
 8.5156  35343.7  187.197
 8.5576  35203.3  187.757
 8.5996  35075.1  186.334
 8.6416  34937.6  187.182
 8.6836  34569  186.049
 8.7256  35470.7  187.902
 8.7676  36192.4  192.726
 8.8096  36633.7  191.22
 8.8516  36007.5  189.202
 8.8936  36056.6  189.232
 8.9356  35413.3  187.864
 8.9776  35412.3  187.938
 9.0196  35189.9  187.033
 9.0616  35104.4  186.313
 9.1036  35843.3  189.421
 9.1456  34428.4  184.98
 9.1876  34621.5  185.449
 9.2296  34002.7  183.247
 9.2716  33843.2  182.851
 9.3136  34052.9  183.408
 9.3556  34097.3  183.511
 9.3976  33073.1  181.237
 9.4396  33288.7  181.728
 9.4816  33041.3  180.918
 9.5236  32837.6  180.26
 9.5656  32302.8  179.135
 9.6076  31592.8  177.662
 9.6496  31980.3  178.628
 9.6916  31741.7  177.913
 9.7336  32434.5  179.641
 9.7756  32035.1  179.712
 9.8176  31630.6  178.123
 9.8596  31711.6  176.833
 9.9016  31082.7  175.047
 9.9436  30622.2  173.503
 9.9856  30801.9  174.454
 10.0276  30273  173.99
 10.0696  30956.3  174.991
 10.1116  29880.5  172.191
 10.1536  29807.1  171.653
 10.1956  29234.5  170.09
 10.2376  29186  169.483
 10.2796  29155.2  169.491
 10.3216  28630.8  168.076
 10.3636  28582  168.117
 10.4056  29582  171.429
 10.4476  29943.5  172.085
 10.4896  31691  176.484
 10.5316  30380.4  173.175
 10.5736  28126.5  167.37
 10.6156  27941.7  166.588
 10.6576  30426.6  172.348
 10.6996  27655.5  165.011
 10.7416  27379.8  164.399
 10.7836  27265.8  164.707
 10.8256  26334  162.296
 10.8676  26303  161.748
 10.9096  26211.5  161.518
 10.9516  25849.1  159.35
 10.9936  26346.7  161.094
 11.0356  25746.6  159.84
 11.0776  26271.3  160.802
 11.1196  26073.4  160.953
 11.1616  25179.1  157.832
 11.2036  25566.3  158.903
 11.2456  26524.2  162.558
 11.2876  25387.3  158.778
 11.3296  25104.4  157.799
 11.3716  25167.4  157.736
 11.4136  25011.2  158.067
 11.4556  25137  158.135
 11.4976  26101.7  160.136
 11.5396  26465.2  161.407
 11.5816  25674.1  159.412
 11.6236  24927.6  157.509
 11.6656  24841.9  156.211
 11.7076  24215.3  155.035
 11.7496  24033.5  158.372
 11.7916  24400.9  154.887
 11.8336  23385.7  152.517
 11.8756  23747.1  153.24
 11.9176  23361.6  151.905
 11.9596  23553.1  152.469
 12.0016  23254.6  152.247
 12.0436  23239.2  151.655
 12.0856  22992.4  151.336
 12.1276  23109.8  151.673
 12.1696  22933.6  150.233
 12.2116  23057.5  150.636
 12.2536  24196.3  155.115
 12.2956  22965.7  150.492
 12.3376  23170.5  151.375
 12.3796  22954  151.131
 12.4216  23167.2  151.038
 12.4636  23197.8  152.062
 12.5056  22907.6  150.387
 12.5476  22801.2  149.561
 12.5896  22427.3  148.955
 12.6316  22780  150.273
 12.6736  22528.9  149.781
 12.7156  22785.3  150.62
 12.7576  22753.9  150.753
 12.7996  22978.7  150.163
 12.8416  22744.1  150.423
 12.8836  23288  152.017
 12.9256  23208.6  150.846
 12.9676  23167.6  151.092
 13.0096  23381.1  152.897
 13.0516  23245.7  151.49
 13.0936  23172.4  151.384
 13.1356  23492  151.683
 13.1776  23226.3  151.817
 13.2196  23356.3  151.885
 13.2616  22987.4  150.993
 13.3036  23318.7  152.216
 13.3456  22922.3  150.89
 13.3876  23635.7  152.707
 13.4296  23155.8  151.307
 13.4716  23313.7  151.46
 13.5136  23253.9  151.385
 13.5556  23253.8  151.998
 13.5976  23195.9  151.987
 13.6396  23390.3  151.986
 13.6816  23645.7  153.159
 13.7236  24048.6  154.167
 13.7656  25707.9  159.848
 13.8076  26588.1  161.225
 13.8496  25003.5  157.168
 13.8916  23620.9  153.703
 13.9336  22917.2  150.684
 13.9756  23118.1  150.743
 14.0176  22557.7  149.56
 14.0596  23359.9  152.13
 14.1016  22771.9  150.626
 14.1436  22586.4  149.164
 14.1856  22280.6  148.435
 14.2276  22179.8  148.572
 14.2696  22237.9  148.614
 14.3116  21682.5  146.656
 14.3536  21267.5  145.406
 14.3956  21343.2  145.392
 14.4376  21595.3  146.045
 14.4796  21527.5  145.813
 14.5216  21105.4  145.15
 14.5636  21433.3  145.847
 14.6056  21261.4  144.834
 14.6476  20799.2  142.512
 14.6896  20720.8  142.769
 14.7316  20351.3  142.502
 14.7736  20151.9  140.959
 14.8156  19991.8  140.428
 14.8576  20119.6  140.733
 14.8996  19753.6  140.622
 14.9416  19216.7  138.707
 14.9836  19445.5  139.521
 15.0256  18873  136.384
 15.0676  18853.9  136.617
 15.1096  18576.8  135.357
 15.1516  18410.7  135.281
 15.1936  18166.5  133.839
 15.2356  18048.5  133.666
 15.2776  17976.6  133.008
 15.3196  17809.2  133.35
 15.3616  17727  132.814
 15.4036  17509.5  131.858
 15.4456  17889.8  132.724
 15.4876  17547.9  131.353
 15.5296  17307.3  130.722
 15.5716  17187.4  129.891
 15.6136  17076.7  129.778
 15.6556  18243.3  133.389
 15.6976  17216.1  129.654
 15.7396  16998.7  129.424
 15.7816  16950.7  128.763
 15.8236  16474.8  127.614
 15.8656  16564.5  127.758
 15.9076  16522  127.415
 15.9496  17514.6  133.992
 15.9916  16927.5  132.102
 16.0336  17048.6  129.521
 16.0756  16730.8  128.63
 16.1176  16473.2  127.552
 16.1596  16179.6  127.701
 16.2016  16246.3  126.759
 16.2436  16168.6  126.841
 16.2856  16104.3  126.114
 16.3276  15843.6  125.522
 16.3696  16032  126.079
 16.4116  15898.7  126.007
 16.4536  16121.8  126.689
 16.4956  16378.7  127.436
 16.5376  15981.6  126.059
 16.5796  15915.2  125.174
 16.6216  15798  124.955
 16.6636  15557.8  124.205
 16.7056  15878.3  125.342
 16.7476  15690.2  124.274
 16.7896  15609.4  124.547
 16.8316  15703.9  124.896
 16.8736  16002  126.331
 16.9156  15819.5  125.931
 16.9576  15473.7  125.304
 16.9996  15427.1  125.581
 17.0416  15587.5  124.632
 17.0836  15486.6  124.004
 17.1256  15296.9  123.251
 17.1676  15618.9  124.503
 17.2096  15505.2  123.952
 17.2516  15540  124.184
 17.2936  15249.8  123.062
 17.3356  15049.8  122.245
 17.3776  15026  122.326
 17.4196  14876.1  121.41
 17.4616  14873.6  121.319
 17.5036  14948.4  121.977
 17.5456  14473.7  120.646
 17.5876  14680.3  120.576
 17.6296  14682.4  120.406
 17.6716  14661.4  120.897
 17.7136  14988.3  122.372
 17.7556  14448.5  120.435
 17.7976  14192.9  118.961
 17.8396  14322.8  119.158
 17.8816  14041.9  118.524
 17.9236  14057.1  118.4
 17.9656  14359.6  120.32
 18.0076  14451.8  120.166
 18.0496  14580.2  119.835
 18.0916  16718.1  128.914
 18.1336  15462.7  124.066
 18.1756  14686  120.462
 18.2176  15181.2  122.695
 18.2596  14173.4  118.282
 18.3016  14414.7  119.544
 18.3436  14741.4  121.13
 18.3856  14288.5  119.155
 18.4276  13971.2  117.52
 18.4696  13915.4  117.362
 18.5116  14178.2  118.742
 18.5536  13866.9  117.788
 18.5956  14052.7  118.133
 18.6376  13996.7  118.292
 18.6796  13834.5  116.952
 18.7216  13932.9  117.903
 18.7636  13638.2  116.59
 18.8056  13382.1  115.416
 18.8476  13278.6  115.287
 18.8896  13423.1  115.552
 18.9316  13537  115.865
 18.9736  13524.4  115.673
 19.0156  13697.1  116.806
 19.0576  13721.8  115.804
 19.0996  13557.2  115.791
 19.1416  13516.8  116.02
 19.1836  13366.6  114.976
 19.2256  13138.5  114.216
 19.2676  13204.8  114.58
 19.3096  13190.9  114.76
 19.3516  13464.4  115.721
 19.3936  13246.3  114.92
 19.4356  13458.5  115.663
 19.4776  13211.1  114.683
 19.5196  13245.3  114.689
 19.5616  13172.1  114.612
 19.6036  13360.8  114.811
 19.6456  13331.8  114.937
 19.6876  13525.1  115.392
 19.7296  13513.1  115.806
 19.7716  13272.3  114.801
 19.8136  13626.6  116.663
 19.8556  13776.5  116.785
 19.8976  13752.3  116.738
 19.9396  13680.3  116.034
 19.9816  13849.7  116.993
 20.0236  14276.4  118.985
 20.0656  13752.6  116.774
 20.1076  13694.9  117.005
 20.1496  13370  115.6
 20.1916  13396.5  115.195
 20.2336  13200.4  114.326
 20.2756  13095.3  114.288
 20.3176  12847.3  112.955
 20.3596  12807.8  112.765
 20.4016  12938.6  113.14
 20.4436  12796.2  113.082
 20.4856  12873  113.211
 20.5276  12746.5  113.1
 20.5696  12656.5  112.268
 20.6116  12802.2  113.075
 20.6536  12503.2  111.317
 20.6956  12644.1  112.029
 20.7376  12496.3  111.57
 20.7796  12600  111.737
 20.8216  12723.3  112.005
 20.8636  12704.1  112.294
 20.9056  13234.8  114.543
 20.9476  12703.6  112.075
 20.9896  13168.7  113.975
 21.0316  12541  111.115
 21.0736  12699.5  112.33
 21.1156  12800.3  112.935
 21.1576  12689.6  112.471
 21.1996  12622  112.172
 21.2416  12599.4  111.903
 21.2836  12552.3  111.669
 21.3256  12614.8  112.027
 21.3676  12499.4  111.035
 21.4096  12494.1  111.391
 21.4516  12317.5  110.42
 21.4936  12099.8  109.698
 21.5356  12381.5  110.924
 21.5776  12398.8  110.841
 21.6196  12272.9  110.313
 21.6616  12194.3  110.036
 21.7036  12328.9  110.418
 21.7456  12249  110.14
 21.7876  12072.8  109.11
 21.8296  12135.5  109.246
 21.8716  12186.6  109.692
 21.9136  12379.6  110.759
 21.9556  12266.2  109.935
 21.9976  12187.6  109.608
 22.0396  12073.3  109.34
 22.0816  11970.4  109.391
 22.1236  12410.5  110.848
 22.1656  11986.1  109.117
 22.2076  11720.7  107.327
 22.2496  11787.9  107.655
 22.2916  11833  107.753
 22.3336  12021  109.295
 22.3756  11925.5  108.606
 22.4176  11828.2  108.025
 22.4596  11605.7  107.572
 22.5016  11767  107.829
 22.5436  11851.1  108.101
 22.5856  11957  108.815
 22.6276  12347.1  110.691
 22.6696  12040.4  109.676
 22.7116  11818.2  108.178
 22.7536  11874.7  108.42
 22.7956  11863.1  107.714
 22.8376  11679.3  107.39
 22.8796  11773.3  107.62
 22.9216  11848  108.497
 22.9636  11791.6  107.411
 23.0056  11767.6  107.433
 23.0476  11866.7  108.441
 23.0896  12231.8  109.482
 23.1316  12096.8  109.3
 23.1736  12016.2  111.815
 23.2156  12273.9  110.374
 23.2576  12314.1  110.757
 23.2996  12053  109.355
 23.3416  12197.7  110.532
 23.3836  12128.2  109.438
 23.4256  12257  110.155
 23.4676  12166.2  109.451
 23.5096  12206.1  110.269
 23.5516  12048.6  108.871
 23.5936  12036.4  109.713
 23.6356  12264.7  110.411
 23.6776  11915.3  109.352
 23.7196  12016.7  109.296
 23.7616  11898.4  108.467
 23.8036  12177.8  109.784
 23.8456  11916.9  108.171
 23.8876  11934.4  108.595
 23.9296  11674.4  107.884
 23.9716  11896.2  108.12
 24.0136  11894.8  108.999
 24.0556  11719  107.915
 24.0976  11732.1  107.795
 24.1396  11652.2  109.99
 24.1816  11698.7  108.978
 24.2236  11674.8  108.163
 24.2656  11658.7  107.575
 24.3076  11609.9  107.615
 24.3496  11587.7  107.378
 24.3916  11676.7  107.849
 24.4336  11626.7  107.826
 24.4756  11660.4  107.865
 24.5176  11553  106.998
 24.5596  11493.3  107.043
 24.6016  11402.3  106.706
 24.6436  11557.9  106.956
 24.6856  11415.1  106.037
 24.7276  11327.8  105.942
 24.7696  11274  105.805
 24.8116  11207.5  105.643
 24.8536  11202.2  105.644
 24.8956  11124.3  105.016
 24.9376  11251.7  105.799
 24.9796  10957.5  104.508
 25.0216  11028.8  104.966
 25.0636  11006.7  104.514
 25.1056  10876.9  104.306
 25.1476  10807.6  105.823
 25.1896  10811.8  104.408
 25.2316  10842.1  103.731
 25.2736  10837.2  103.484
 25.3156  10818.6  103.467
 25.3576  10785.3  103.73
 25.3996  10898.5  104.262
 25.4416  10810.7  103.816
 25.4836  10471.6  102.666
 25.5256  10712.6  103.228
 25.5676  10718.7  102.987
 25.6096  10478  102.391
 25.6516  10573.6  102.362
 25.6936  10658  103.086
 25.7356  10538.1  102.637
 25.7776  10505.2  102.153
 25.8196  10512.9  102.357
 25.8616  10438.6  101.93
 25.9036  10693  102.627
 25.9456  10541.3  102.477
 25.9876  10536.9  102.378
 26.0296  10633.3  102.601
 26.0716  10573.6  102.642
 26.1136  10658.9  102.988
 26.1556  10682.6  102.406
 26.1976  10503.5  102.541
 26.2396  10479.9  101.846
 26.2816  10475.6  102.177
 26.3236  10584.3  102.77
 26.3656  10625  102.788
 26.4076  10416.2  101.969
 26.4496  10656.7  102.735
 26.4916  10750.1  103.087
 26.5336  10930.1  104.285
 26.5756  10962  104.31
 26.6176  10638.6  102.784
 26.6596  10443.3  102.132
 26.7016  10320  101.34
 26.7436  10374.2  101.692
 26.7856  10259.7  101.12
 26.8276  10117.5  100.383
 26.8696  10308.8  101.199
 26.9116  10238.7  100.793
 26.9536  10236.2  100.83
 26.9956  10004.3  99.7024
 27.0376  10073.8  100.284
 27.0796  10093.6  100.15
 27.1216  10128.1  100.338
 27.1636  9878.45  99.2596
 27.2056  10038.9  99.9287
 27.2476  9946.7  99.4793
 27.2896  9993.3  99.7458
 27.3316  9917.82  99.175
 27.3736  9851.54  99.103
 27.4156  9923.51  99.3094
 27.4576  9958.97  99.7036
 27.4996  9968.95  99.365
 27.5416  9900.48  99.3253
 27.5836  9831.27  98.8212
 27.6256  9879.96  99.2312
 27.6676  9806.88  98.8629
 27.7096  9911.6  99.2736
 27.7516  10054.6  100.131
 27.7936  10317  101.568
 27.8356  10003.8  99.635
 27.8776  10136.7  100.365
 27.9196  9905.07  99.0738
 27.9616  9933  99.4086
 28.0036  9934.5  99.3716
 28.0456  9695.27  98.3072
 28.0876  9644.64  98.1291
 28.1296  9807.58  98.8031
 28.1716  9836.77  98.9654
 28.2136  9786.08  98.6705
 28.2556  9743.61  98.5728
 28.2976  9525.21  97.4507
 28.3396  9610.18  97.6845
 28.3816  9585.88  97.5288
 28.4236  9642.62  97.9759
 28.4656  9446.78  97.0189
 28.5076  9438.35  96.622
 28.5496  9498.1  97.1734
 28.5916  9617.9  97.5977
 28.6336  9533.65  97.5156
 28.6756  9571.39  96.9064
 28.7176  9476.73  96.9778
 28.7596  9392.78  96.4394
 28.8016  9367.22  96.4252
 28.8436  9398.43  96.7429
 28.8856  9467.6  96.9556
 28.9276  9451.64  97.1094
 28.9696  9401.28  96.5183
 29.0116  9279.6  96.0615
 29.0536  9226.69  96.0003
 29.0956  9385.69  96.5309
 29.1376  9275.33  95.9318
 29.1796  9342.56  96.3265
 29.2216  9218.64  95.5282
 29.2636  9497.1  96.9607
 29.3056  9276.66  95.6862
 29.3476  9322.01  96.4406
 29.3896  9317.69  96.5359
 29.4316  9172.15  95.1164
 29.4736  9024.52  94.4142
 29.5156  9120.09  94.8298
 29.5576  9134.86  95.6197
 29.5996  9020.62  94.313
 29.6416  9105.33  94.8607
 29.6836  9018.52  94.3475
 29.7256  9079.62  95.2154
 29.7676  8956.35  94.2425
 29.8096  8996.01  94.3926
 29.8516  8873.47  94.0746
 29.8936  9048.41  95.0814
 29.9356  8867.68  93.8908
 29.9776  8902.83  94.2183
 30.0196  8962.15  93.9441
 30.0616  8975.11  94.3732
 30.1036  8940  94.0185
 30.1456  8909.92  94.1116
 30.1876  8925.72  94.1485
 30.2296  8789.5  93.3873
 30.2716  8912.86  93.6842
 30.3136  8894.3  94.1673
 30.3556  9159.11  95.8194
 30.3976  9062.45  96.7605
 30.4396  9358.34  95.7355
 30.4816  9235.19  94.7185
 30.5236  9229.22  94.6867
 30.5656  9071.1  94.5162
 30.6076  9085.42  94.3511
 30.6496  9233.06  95.1786
 30.6916  8920.61  93.6404
 30.7336  9001.46  94.2128
 30.7756  9051.79  94.7694
 30.8176  9047.88  94.4543
 30.8596  9123.09  94.6083
 30.9016  9319.06  95.4944
 30.9436  9145.79  94.8247
 30.9856  9162.36  95.0207
 31.0276  9045.69  94.056
 31.0696  8980.53  94.1281
 31.1116  8918  93.9107
 31.1536  8957  93.9795
 31.1956  9052.41  94.5685
 31.2376  8835.16  93.466
 31.2796  8840.3  93.0385
 31.3216  8954.97  93.5564
 31.3636  9032.64  94.6451
 31.4056  8895.96  95.2193
 31.4476  8959.99  93.5036
 31.4896  8859.59  93.4572
 31.5316  9066.32  94.0049
 31.5736  9219.48  94.5858
 31.6156  9152.07  94.2335
 31.6576  9076.51  93.9332
 31.6996  9185.03  94.1592
 31.7416  9100.44  94.6724
 31.7836  9058.23  93.6016
 31.8256  9069.47  94.0046
 31.8676  8968.36  93.3887
 31.9096  9024.7  93.8962
 31.9516  8899.95  93.5573
 31.9936  8715.24  92.4022
 32.0356  8880.5  93.3353
 32.0776  8971.69  93.7068
 32.1196  9031.66  94.042
 32.1616  8969.26  93.2552
 32.2036  8841.87  93.0911
 32.2456  8853.64  93.524
 32.2876  8701.21  92.051
 32.3296  8802.21  92.7221
 32.3716  8605.3  91.7932
 32.4136  8596  91.9511
 32.4556  8835.28  92.6638
 32.4976  8807.18  92.4161
 32.5396  8659.07  91.6527
 32.5816  8727.66  92.0499
 32.6236  8617.75  91.6141
 32.6656  8778.52  93.0048
 32.7076  8593.13  91.6764
 32.7496  8621.57  91.5095
 32.7916  8579.39  91.249
 32.8336  8633.44  91.6268
 32.8756  8683.81  91.717
 32.9176  8457.45  90.8913
 32.9596  8520.08  91.2997
 33.0016  8689.26  91.9784
 33.0436  8570.5  91.5205
 33.0856  8501.6  91.2397
 33.1276  8510.37  91.01
 33.1696  8535.86  90.9816
 33.2116  8489.65  90.9725
 33.2536  8664.37  91.8969
 33.2956  8561.15  91.4225
 33.3376  8436.09  90.5722
 33.3796  8706.6  92.1631
 33.4216  8562.21  90.9925
 33.4636  8515.37  90.897
 33.5056  8455.91  90.6604
 33.5476  8461.64  90.8297
 33.5896  8532.87  90.9851
 33.6316  8477.81  91.0103
 33.6736  8309.3  90.3469
 33.7156  8276.78  90.202
 33.7576  8392.47  90.4794
 33.7996  8472.8  90.6728
 33.8416  8251.69  89.6675
 33.8836  8417.15  90.3362
 33.9256  8418.82  90.4055
 33.9676  8482.5  90.6498
 34.0096  8335.29  90.1664
 34.0516  8352.8  89.8953
 34.0936  8356.6  90.188
 34.1356  8366.7  89.9855
 34.1776  8208.18  89.1144
 34.2196  8316.18  89.8908
 34.2616  8191.12  89.4108
 34.3036  8323.14  90.3091
 34.3456  8277.26  89.8157
 34.3876  8434.8  90.7283
 34.4296  8206.29  89.106
 34.4716  8310.1  89.8112
 34.5136  8223.78  89.529
 34.5556  8189.44  89.5965
 34.5976  8372.58  90.4369
 34.6396  8217.06  89.2732
 34.6816  8322.52  89.9638
 34.7236  8251.34  89.3535
 34.7656  8320.18  89.9242
 34.8076  8095.34  89.0308
 34.8496  8267.93  89.8226
 34.8916  8204.77  89.3464
 34.9336  8221.25  89.4134
 34.9756  8413.64  90.4053
 35.0176  8308.93  90.334
 35.0596  8315.62  90.1969
 35.1016  8266.81  89.6821
 35.1436  8293.27  89.5225
 35.1856  8204.9  89.1692
 35.2276  8198.23  89.3048
 35.2696  8185.18  89.4211
 35.3116  8150.93  89.3326
 35.3536  8194.39  89.3093
 35.3956  8179.49  88.9224
 35.4376  8269.93  89.9708
 35.4796  8175.14  89.4948
 35.5216  8163.47  89.3212
 35.5636  7880.11  88.537
 35.6056  8095.75  88.7814
 35.6476  8068.86  88.5461
 35.6896  8107.14  88.9184
 35.7316  8009.43  88.2837
 35.7736  8051.02  88.6928
 35.8156  8061.14  88.7478
 35.8576  8096.38  89.1763
 35.8996  8198.01  89.7229
 35.9416  8135.1  88.8889
 35.9836  7991.71  88.534
 36.0256  8334.92  90.3249
 36.0676  8241.83  89.3388
 36.1096  8134.77  89.1334
 36.1516  8259.21  89.7053
 36.1936  8147.02  88.9306
 36.2356  8121.65  89.4447
 36.2776  8030.1  88.4107
 36.3196  8095.25  88.4547
 36.3616  8001.79  88.0701
 36.4036  8009.81  88.1822
 36.4456  8148.68  89.1548
 36.4876  7953.58  88.0225
 36.5296  8029.54  88.478
 36.5716  8004.06  89.0961
 36.6136  8047.56  88.1381
 36.6556  7869.77  87.3573
 36.6976  7811.59  87.5101
 36.7396  7802.58  87.2903
 36.7816  7832.02  87.7306
 36.8236  7870.58  87.8629
 36.8656  7696.06  86.9517
 36.9076  7654.19  86.7298
 36.9496  7566.87  86.2438
 36.9916  7698.21  86.484
 37.0336  7909.29  87.9748
 37.0756  7811  87.2205
 37.1176  7724.7  87.0938
 37.1596  7736.13  87.07
 37.2016  7632.45  86.6493
 37.2436  7719.35  86.5176
 37.2856  7641.69  86.3268
 37.3276  7718.73  86.1467
 37.3696  7638.79  86.5495
 37.4116  7720.73  86.9297
 37.4536  7644.42  86.3655
 37.4956  7591.24  86.1149
 37.5376  7815.83  88.9336
 37.5796  7786.47  88.6931
 37.6216  7739.07  86.7439
 37.6636  7903.55  87.5464
 37.7056  7745.18  86.8437
 37.7476  7985.32  87.7314
 37.7896  7767.58  87.0309
 37.8316  7755.4  87.1127
 37.8736  7807.51  86.9428
 37.9156  7705.69  86.36
 37.9576  7767.56  86.7673
 37.9996  7723.09  86.0987
 38.0416  7693.48  86.72
 38.0836  7835.1  87.419
 38.1256  7775.39  87.0612
 38.1676  7647.73  86.4465
 38.2096  7902.07  87.4999
 38.2516  7900.72  87.6242
 38.2936  7895.4  87.4803
 38.3356  7768.9  86.7107
 38.3776  7677.32  86.4397
 38.4196  7673.49  86.28
 38.4616  7821.39  87.3529
 38.5036  7716.71  86.6064
 38.5456  7680.39  87.2076
 38.5876  7662.16  87.1165
 38.6296  7648.61  86.0493
 38.6716  7661.76  85.927
 38.7136  7557.35  85.2835
 38.7556  7585.29  85.9371
 38.7976  7713.78  86.5823
 38.8396  7685.36  86.8749
 38.8816  7514.58  85.711
 38.9236  7640.99  86.2282
 38.9656  7608.53  85.9512
 39.0076  7654.69  85.6346
 39.0496  7846.58  87.2571
 39.0916  7771.55  86.4802
 39.1336  7644.79  86.1739
 39.1756  7682.38  86.4388
 39.2176  7622.7  86.634
 39.2596  7656.99  86.75
 39.3016  7633.01  86.2133
 39.3436  7653.91  86.7347
 39.3856  7692.53  86.4127
 39.4276  7919.91  88.1863
 39.4696  7744.39  86.8263
 39.5116  7651.72  86.8128
 39.5536  7718.3  87.5979
 39.5956  7641.17  86.2797
 39.6376  7624.1  86.0235
 39.6796  7610.4  85.8558
 39.7216  7624.53  86.0412
 39.7636  7713.86  87.094
 39.8056  7648.11  86.5207
 39.8476  7587.89  86.4224
 39.8896  7641.56  86.3645
 39.9316  7594.76  86.3422
 39.9736  7617.08  86.0489
 40.0156  7565.77  85.5955
 40.0576  7572.15  85.9697
 40.0996  7742.93  86.1376
 40.1416  7607.38  86.1519
 40.1836  7753.52  86.8771
 40.2256  7652.81  86.3379
 40.2676  7481.89  85.5425
 40.3096  7685.48  86.5614
 40.3516  7621.34  86.3784
 40.3936  7779.42  86.748
 40.4356  7524.82  85.5189
 40.4776  7766.73  87.1268
 40.5196  7656.09  86.7875
 40.5616  7693.05  86.6498
 40.6036  7630.32  86.5447
 40.6456  7684.92  86.4654
 40.6876  7616.75  86.0746
 40.7296  7613.68  86.1813
 40.7716  7698.15  86.7841
 40.8136  7618.8  86.2746
 40.8556  7786.37  87.3584
 40.8976  7648.89  86.4979
 40.9396  7639.52  86.7945
 40.9816  7710.4  86.499
 41.0236  7700.27  86.2309
 41.0656  7774.6  87.1762
 41.1076  7614.29  86.042
 41.1496  7767.11  86.8076
 41.1916  7619.07  86.2744
 41.2336  7593.08  86.1469
 41.2756  7679.95  86.2465
 41.3176  7601.18  86.4027
 41.3596  7645.61  86.3947
 41.4016  7608.73  86.4367
 41.4436  7703.28  86.761
 41.4856  7650.32  86.6246
 41.5276  7575.52  86.2192
 41.5696  7674.85  86.4043
 41.6116  7681.61  86.8392
 41.6536  7639.52  86.4532
 41.6956  7677.74  86.6598
 41.7376  7583.51  86.2253
 41.7796  7542.87  85.9227
 41.8216  7667.67  86.8211
 41.8636  7627.34  86.5336
 41.9056  7586.16  86.0979
 41.9476  7578.07  86.28
 41.9896  7717.18  86.7333
 42.0316  7642.52  86.4052
 42.0736  7644.95  86.5458
 42.1156  7760.93  87.0046
 42.1576  7572.21  86.0487
 42.1996  7742.06  87.1313
 42.2416  7620.6  86.0408
 42.2836  7608.37  86.0874
 42.3256  7491.86  85.5369
 42.3676  7764.4  86.8749
 42.4096  7647.48  86.2024
 42.4516  7669.7  86.3999
 42.4936  7538.51  85.7316
 42.5356  7493.8  85.6104
 42.5776  7616.83  86.2467
 42.6196  7555.81  85.8736
 42.6616  7488.95  85.7456
 42.7036  7563.37  85.5646
 42.7456  7645.9  86.3724
 42.7876  7582.74  86.1063
 42.8296  7620.37  86.2307
 42.8716  7497.33  85.6291
 42.9136  7472.9  85.2413
 42.9556  7602.65  86.1483
 42.9976  7540.4  85.7582
 43.0396  7424.38  84.8334
 43.0816  7537.99  85.8627
 43.1236  7513.94  85.7656
 43.1656  7604.2  86.1172
 43.2076  7513.81  85.7139
 43.2496  7414.82  84.9667
 43.2916  7487.54  85.7338
 43.3336  7387.12  84.9985
 43.3756  7578.35  85.8423
 43.4176  7364.45  84.7048
 43.4596  7483.76  85.2463
 43.5016  7350.38  84.8849
 43.5436  7520.89  85.7627
 43.5856  7415.42  85.1964
 43.6276  7380.12  84.8731
 43.6696  7438.11  85.3491
 43.7116  7465.22  85.1251
 43.7536  7570.02  86.2115
 43.7956  7321.3  85.9713
 43.8376  7230.31  83.9838
 43.8796  7219.9  84.0089
 43.9216  7451.65  85.2699
 43.9636  7359.92  84.8497
 44.0056  7213.45  84.224
 44.0476  7286.09  84.2856
 44.0896  7177.88  83.9915
 44.1316  7276.82  84.2351
 44.1736  7237.29  83.9964
 44.2156  7318.04  84.3142
 44.2576  7229.35  84.1249
 44.2996  7259.11  84.2638
 44.3416  7334.38  84.471
 44.3836  7182.5  83.9118
 44.4256  7243.21  83.9173
 44.4676  7220.92  83.9379
 44.5096  7178.59  83.8323
 44.5516  7186.49  83.8432
 44.5936  7156.82  83.6248
 44.6356  7256.34  83.9469
 44.6776  7174.38  83.7744
 44.7196  7306.56  84.8145
 44.7616  7216.91  85.6273
 44.8036  7405.54  85.3965
 44.8456  7372.94  85.2093
 44.8876  7357.04  84.9593
 44.9296  7547.84  85.5145
 44.9716  7426.55  85.2376
 45.0136  7410.13  85.091
 45.0556  7418.19  85.2213
 45.0976  7311.16  84.6448
 45.1396  7179.02  83.6372
 45.1816  7313.8  84.1989
 45.2236  7255.22  83.9349
 45.2656  7190.88  84.0441
 45.3076  7289.9  84.417
 45.3496  7245.91  84.4575
 45.3916  7291.66  84.9886
 45.4336  7283.24  84.7846
 45.4756  7289.49  84.6806
 45.5176  7448.73  85.2179
 45.5596  7390.84  85.0022
 45.6016  7279.71  84.7816
 45.6436  7319.27  84.1865
 45.6856  7223.18  84.2848
 45.7276  7266.43  86.3342
 45.7696  7355.28  86.0319
 45.8116  7158.97  84.3137
 45.8536  7223.72  84.5801
 45.8956  7262.19  84.1774
 45.9376  7244.08  83.5467
 45.9796  7383.7  85.0479
 46.0216  7283.87  84.7802
 46.0636  7312.62  84.0989
 46.1056  7328.42  84.1914
 46.1476  7235.77  84.2335
 46.1896  7420.6  85.4552
 46.2316  7316  84.7215
 46.2736  7269.39  84.6617
 46.3156  7240.13  84.2367
 46.3576  7226.47  84.3602
 46.3996  7318.59  85.0603
 46.4416  7241  84.1519
 46.4836  7129.56  83.8822
 46.5256  7182.13  84.1286
 46.5676  7073.3  83.6018
 46.6096  7296.04  84.8343
 46.6516  7320.9  84.0408
 46.6936  7184.98  83.742
 46.7356  7332.58  84.6927
 46.7776  7273.17  85.1946
 46.8196  7117.21  84.0138
 46.8616  7093.76  83.6905
 46.9036  7090.06  83.3302
 46.9456  7116.26  83.1295
 46.9876  7229.62  83.8733
 47.0296  7074.56  83.6473
 47.0716  7138.78  83.8474
 47.1136  7125.91  83.4596
 47.1556  7263.48  84.1241
 47.1976  7233.85  84.1032
 47.2396  7135.79  83.8606
 47.2816  7065.42  83.1453
 47.3236  7178.06  84.176
 47.3656  7130.05  83.8159
 47.4076  7182.31  83.8658
 47.4496  7047.22  83.2352
 47.4916  7141.25  83.9845
 47.5336  7152.16  83.8542
 47.5756  7087.35  83.5596
 47.6176  7074.55  83.4178
 47.6596  7063.62  83.0627
 47.7016  7356.95  84.5847
 47.7436  7238.1  84.2353
 47.7856  7185.16  83.9595
 47.8276  7164.85  83.8667
 47.8696  7106.87  83.6314
 47.9116  7183.99  83.7999
 47.9536  7127.37  83.4142
 47.9956  7119.51  84.0731
 48.0376  7120.76  83.8485
 48.0796  7163.19  84.2277
 48.1216  7076.42  83.5397
 48.1636  7248.72  84.1263
 48.2056  7242.47  84.3553
 48.2476  7197.35  84.4029
 48.2896  7140.42  83.9786
 48.3316  7208.14  84.3071
 48.3736  7097.3  83.679
 48.4156  7039.19  83.1984
 48.4576  7156.29  84.1785
 48.4996  7182.39  83.7777
 48.5416  7263.27  84.59
 48.5836  7200.08  83.8916
 48.6256  7178.3  83.9782
 48.6676  7099.28  84.0132
 48.7096  7216.89  83.9829
 48.7516  7091.74  83.3922
 48.7936  6950.94  82.6261
 48.8356  7136.45  83.7739
 48.8776  7249.09  84.9285
 48.9196  7246.69  84.3571
 48.9616  7097.9  83.8703
 49.0036  7076.15  84.0854
 49.0456  7076.44  84.0682
 49.0876  7109.53  83.8877
 49.1296  7073.28  83.7538
 49.1716  6899.58  82.5869
 49.2136  7128.33  83.8598
 49.2556  7115.88  83.8287
 49.2976  7122.83  83.9443
 49.3396  6991.43  83.2194
 49.3816  7174.98  83.7398
 49.4236  7180.82  84.1964
 49.4656  7047.1  83.4189
 49.5076  7138.69  83.7108
 49.5496  7053.95  83.1503
 49.5916  7100.5  83.4638
 49.6336  7039.89  83.3104
 49.6756  7108.66  83.9486
 49.7176  7062.59  83.619
 49.7596  7087.46  83.7117
 49.8016  7134.96  83.722
 49.8436  7042.03  83.4834
 49.8856  7015.12  83.3284
 49.9276  6946.43  83.0142
 49.9696  7016.57  83.4228
 50.0116  7072.33  83.8899
 50.0536  6944.48  83.068
 50.0956  6928.59  83.0391
 50.1376  6956.79  82.9128
 50.1796  6978.11  83.3129
 50.2216  6979.5  83.3038
 50.2636  7072.82  83.4742
 50.3056  6944.25  82.8907
 50.3476  6986.44  83.1639
 50.3896  6975.55  83.0728
 50.4316  6990.54  82.9966
 50.4736  6974.29  83.1179
 50.5156  6971.11  83.0863
 50.5576  7015.96  83.1115
 50.5996  6954.27  83.0324
 50.6416  7006.09  83.2708
 50.6836  6970.06  83.1152
 50.7256  7068.89  83.6256
 50.7676  7105.32  84.1174
 50.8096  7025.67  83.2255
 50.8516  6969.63  83.3051
 50.8936  6838.23  82.3106
 50.9356  7002.87  83.3949
 50.9776  6944.61  83.2101
 51.0196  6776.23  82.3052
 51.0616  6829.58  81.9575
 51.1036  6899.22  82.7329
 51.1456  6954.45  82.9743
 51.1876  6861.23  81.7603
 51.2296  6785.06  81.9386
 51.2716  6828.95  81.9125
 51.3136  6682.86  81.4812
 51.3556  6787.46  81.7373
 51.3976  6776.05  81.8198
 51.4396  6620.77  81.1859
 51.4816  6652.97  81.2352
 51.5236  6851.29  82.511
 51.5656  6773.64  81.6533
 51.6076  6857.52  82.237
 51.6496  6732.48  81.6817
 51.6916  6756.16  82.178
 51.7336  6681.48  81.8182
 51.7756  6715.84  81.718
 51.8176  6677.77  81.5914
 51.8596  6596.53  81.1154
 51.9016  6916.77  82.6645
 51.9436  6777.8  83.32
 51.9856  6756.25  83.5961
 52.0276  6868.13  82.7836
 52.0696  6927.48  83.2048
 52.1116  6719.12  82.0718
 52.1536  6882.73  82.8961
 52.1956  6750.26  81.6062
 52.2376  6963.85  83.0551
 52.2796  6795.23  81.8721
 52.3216  6748.43  82.273
 52.3636  6789.55  82.08
 52.4056  6776.16  81.8733
 52.4476  6746.54  82.0534
 52.4896  6714.47  81.9123
 52.5316  6802.54  82.495
 52.5736  6621.59  81.1179
 52.6156  6832.37  82.7967
 52.6576  6739.65  81.6644
 52.6996  6690.39  82.3494
 52.7416  6635.43  81.8689
 52.7836  6855.63  83.1027
 52.8256  6842.47  82.23
 52.8676  6562.61  81.0956
 52.9096  6735.39  82.2385
 52.9516  6705.01  82.4197
 52.9936  6726.08  82.9176
 53.0356  6805.56  82.4087
 53.0776  6853.76  83.0079
 53.1196  6714.88  82.2486
 53.1616  6719.12  82.3327
 53.2036  6671.45  82.0002
 53.2456  6700.77  82.2851
 53.2876  6768.75  82.3904
 53.3296  6781.29  82.7975
 53.3716  6886.84  83.1843
 53.4136  6677.3  82.0607
 53.4556  6666.81  82.023
 53.4976  6790.88  82.6155
 53.5396  6691.31  82.4045
 53.5816  6757.37  82.455
 53.6236  6542.29  81.4759
 53.6656  6714.53  82.1368
 53.7076  6615.37  81.4971
 53.7496  6762.56  82.5346
 53.7916  6551.92  81.3647
 53.8336  6705.55  82.2157
 53.8756  6567.66  81.9001
 53.9176  6596.91  81.4107
 53.9596  6480.84  81.4778
 54.0016  6368.87  80.0794
 54.0436  6331.13  80.0877
 54.0856  6564.75  80.9691
 54.1276  6427.19  80.3223
 54.1696  6382.16  80.1965
 54.2116  6510.06  80.7372
 54.2536  6421.49  80.0042
 54.2956  6452.59  80.2413
 54.3376  6383.22  80.3108
 54.3796  6432.26  80.4993
 54.4216  6400.19  80.3676
 54.4636  6385.74  80.2397
 54.5056  6470.75  80.5789
 54.5476  6359.06  80.2201
 54.5896  6309.67  79.744
 54.6316  6476.75  80.6294
 54.6736  6298.79  79.5557
 54.7156  6349.4  79.9524
 54.7576  6286  79.5161
 54.7996  6462.46  80.8035
 54.8416  6303.76  79.8502
 54.8836  6432.01  80.7391
 54.9256  6340.48  79.9179
 54.9676  6247.2  79.2212
 55.0096  6300.96  79.5662
 55.0516  6177.18  78.9823
 55.0936  6289.3  79.4112
 55.1356  6319.27  79.6282
 55.1776  6389.68  80.3196
 55.2196  6358.88  79.9137
 55.2616  6469.56  80.8309
 55.3036  6249.11  79.6039
 55.3456  6207.07  79.4784
 55.3876  6287.98  79.6987
 55.4296  6074.11  78.3544
 55.4716  6168.89  78.9965
 55.5136  6233.51  79.167
 55.5556  6411.21  80.3454
 55.5976  6200.56  79.1018
 55.6396  6255.07  79.3155
 55.6816  6189.47  78.8263
 55.7236  6193.29  79.0128
 55.7656  6313.58  79.3987
 55.8076  6200.96  78.693
 55.8496  6361.94  80.1421
 55.8916  6156.67  78.8697
 55.9336  6308.19  79.7271
 55.9756  6072.74  78.0991
 56.0176  6309.6  79.7604
 56.0596  6196.68  79.0307
 56.1016  6088.41  78.3954
 56.1436  6085.39  78.5955
 56.1856  6058.91  78.1701
 56.2276  6352.56  80.0965
 56.2696  6144.15  78.7535
 56.3116  6266.83  79.9055
 56.3536  6096.61  78.4852
 56.3956  6100.94  78.4981
 56.4376  6138.87  78.7968
 56.4796  6028.08  77.8861
 56.5216  6138.18  78.9723
 56.5636  6066.75  78.081
 56.6056  6220.2  79.3007
 56.6476  6129.78  78.3413
 56.6896  6280.71  79.7547
 56.7316  6061.59  78.2679
 56.7736  6149.71  78.8467
 56.8156  6088.52  78.4696
 56.8576  5916.53  77.2849
 56.8996  6093.22  78.3593
 56.9416  5933.29  77.4674
 56.9836  6177.4  78.7295
 57.0256  6030.21  78.0793
 57.0676  6186.38  79.2171
 57.1096  6118.26  78.5585
 57.1516  5979.33  77.6673
 57.1936  6001.71  77.6309
 57.2356  6014.84  78.0289
 57.2776  5997.08  77.88
 57.3196  6072.63  78.7015
 57.3616  6041.59  77.9922
 57.4036  6031.92  77.9988
 57.4456  6111.69  78.5095
 57.4876  6040.85  77.9079
 57.5296  5990.44  77.8126
 57.5716  5905.69  77.3654
 57.6136  5872.94  76.9836
 57.6556  6024.18  78.0892
 57.6976  5957.45  77.4916
 57.7396  5941.03  77.7419
 57.7816  5910.03  77.8912
 57.8236  5945.68  77.9259
 57.8656  6026.91  78.1161
 57.9076  6033.7  78.1868
 57.9496  5889.41  77.5877
 57.9916  5961.35  77.538
 58.0336  5915.94  77.5648
 58.0756  6002.72  77.7329
 58.1176  6011.82  77.8264
 58.1596  5948.46  77.9842
 58.2016  5806.76  76.3084
 58.2436  5711.67  76.0578
 58.2856  5689.06  75.8356
 58.3276  5724.61  76.4299
 58.3696  5697.29  76.0064
 58.4116  5744.7  76.1937
 58.4536  5770.56  76.2478
 58.4956  5672.26  75.7764
 58.5376  5738.05  75.7961
 58.5796  5676.51  75.8024
 58.6216  5715.62  75.8852
 58.6636  5724.15  76.1481
 58.7056  5645.15  75.4763
 58.7476  5677.92  76.1281
 58.7896  5704.57  75.9626
 58.8316  5739.35  76.1852
 58.8736  5860.14  76.998
 58.9156  5697.27  75.9579
 58.9576  5818.11  76.9689
 58.9996  5811.36  76.2936
 59.0416  5753.97  76.279
 59.0836  5705.83  75.8715
 59.1256  5703.93  76.2508
 59.1676  5657.55  76.5329
 59.2096  5657.12  75.8687
 59.2516  5862.14  76.8185
 59.2936  5683.06  75.9543
 59.3356  5654.4  75.6443
 59.3776  5658.57  75.8357
 59.4196  5743.69  76.3418
 59.4616  5578.36  75.1002
 59.5036  5625.21  75.4489
 59.5456  5695.99  75.6244
 59.5876  5699.86  75.8357
 59.6296  5556.17  74.9402
 59.6716  5620.07  75.4258
 59.7136  5649.43  75.6112
 59.7556  5685.9  75.9873
 59.7976  5731.46  76.0399
 59.8396  5677.43  75.5781
 59.8816  5674.07  76.0829
 59.9236  5574.8  75.0736
 59.9656  5655.19  75.8654
 60.0076  5603.73  74.9002
 60.0496  5636.21  75.6038
 60.0916  5751.14  75.8028
 60.1336  5684.02  76.4335
 60.1756  5679.37  77.5507
 60.1996  0.0000000E+00  0.0000000E+00