File: docs/examples/opeando_xrd/IS17_D/Data/IS17_D/17_Da_f00119.xye
# /beamlines/bl04/projects/cycle2025-II/20250340211-lsimonelli/DATA/IS17_D/17_Da_f00119.xye : mythproc.py merge -s 0.006 -l 0.5 -f /beamlines/bl04/inhouse/ff/FlatField/ff_20Nov2024rod8mm60s_17keV.raw -b True -c true -o xye /beamlines/bl04/projects/cycle2025-II/20250340211-lsimonelli/DATA/IS17_D/17_Da_00119.dat
# IsMon = [6780555, 6779283, 6780614]  IsPos = [-1.5000, -2.4884, -3.4988]
# Wave = 0.4962  CalPath /beamlines/bl04/projects/cycle2025-II/20250340211-lsimonelli/DATA/Align/Si_Pos1_25keV_f00001.cal
# Date = 2025-09-25_02:43:27 Dt = 4.8000  Bin = 0.0060  <imon> = 6780151 +/- 614 (Min/Max) 6779283 / 6780614
# icurr 251.7074  mocoIn 1.7179E-05  mocoOut 0.8057  i15 7.09696e+06  imon 6.78015e+06  i7 3.3333  iEMpd_timer 4.8000  iEMpd_1 3.4987E-08  iEMpd_2 7.8487E-08  iEMpd_3 1.6563E-08  iEMpd_4 4.8197E-08  iEMhp_timer 4.8000  iEMhp_1 4.9185E-06  iEMhp_2 -2.4542E-08  iEMhp_3 -2.4688E-08  iEMhp_4 -2.1105E-08
#      9776
 1.5856  40805.5  207.42
 1.6276  48432.7  222.097
 1.6696  54895.3  235.617
 1.7116  63249.5  253.405
 1.7536  72960  271.004
 1.7956  77257.2  279.568
 1.8376  73792.8  273.661
 1.8796  61852.2  248.7
 1.9216  50362.1  225.309
 1.9636  42694.1  207.12
 2.0056  37716.3  193.428
 2.0476  35283.4  189.137
 2.0896  34080.4  184.794
 2.1316  32954.5  180.843
 2.1736  31779.3  178.998
 2.2156  32199.8  178.732
 2.2576  31037.1  176.106
 2.2996  29975.6  173.702
 2.3416  30182.6  172.91
 2.3836  29423.3  170.826
 2.4256  28963  170.037
 2.4676  28374.4  168.061
 2.5096  28037.6  167.116
 2.5516  27431.6  169.143
 2.5936  27469.6  165.835
 2.6356  27117.8  165.467
 2.6776  26981.1  163.92
 2.7196  26675.3  163.519
 2.7616  26667.9  163.27
 2.8036  26297.3  162.306
 2.8456  26197.7  162.618
 2.8876  25847.3  161.408
 2.9296  25416.7  160.182
 2.9716  25059  158.538
 3.0136  24783.4  157.731
 3.0556  24977.1  158.749
 3.0976  24604.1  156.479
 3.1396  24721.4  157.578
 3.1816  24333.3  156.27
 3.2236  24398.6  156.477
 3.2656  24320.9  155.265
 3.3076  23963  155.58
 3.3496  24282.5  155.544
 3.3916  24466.7  155.954
 3.4336  24962.2  158.108
 3.4756  25476.5  159.652
 3.5176  26136  161.495
 3.5596  25759.5  163.336
 3.6016  26120.5  161.506
 3.6436  25366.4  160.272
 3.6856  24807.6  156.779
 3.7276  23778.1  154.59
 3.7696  23594  153.975
 3.8116  23382  153.373
 3.8536  23578.1  153.944
 3.8956  23410  153.223
 3.9376  23354.3  153.293
 3.9796  23292.4  152.597
 4.0216  23355.9  151.836
 4.0636  23280.3  153.067
 4.1056  23232.2  152.553
 4.1476  23480.1  153.672
 4.1896  23783.4  154.527
 4.2316  23773.1  154.319
 4.2736  24183  155.426
 4.3156  24702.3  157.322
 4.3576  25258.6  159.008
 4.3996  25333.4  159.507
 4.4416  25960.1  161.048
 4.4836  26443.3  162.695
 4.5256  26881.1  164.65
 4.5676  27062  165.462
 4.6096  27226.1  164.977
 4.6516  27576.2  165.376
 4.6936  27837.4  166.974
 4.7356  28121.4  167.651
 4.7776  28014.6  167.162
 4.8196  27768.6  167.08
 4.8616  27342.2  165.278
 4.9036  26941.4  163.803
 4.9456  27006.8  164.655
 4.9876  26335.7  162.498
 5.0296  26694.9  163.417
 5.0716  26520.8  163.666
 5.1136  26691.9  163.901
 5.1556  27056.1  164.475
 5.1976  27369.3  165.412
 5.2396  27471.3  165.418
 5.2816  27485.4  165.923
 5.3236  27562  165.861
 5.3656  27211  165.727
 5.4076  26983.6  165.187
 5.4496  26888.4  164.38
 5.4916  27051.9  164.634
 5.5336  27095.4  164.775
 5.5756  26860.4  164.084
 5.6176  27289.3  164.821
 5.6596  27447.1  166.128
 5.7016  27524.4  165.775
 5.7436  27665.7  166.473
 5.7856  27397.2  165.722
 5.8276  27934  167.06
 5.8696  27828.4  166.798
 5.9116  27995.9  168.026
 5.9536  27961.7  167.67
 5.9956  28536.7  168.752
 6.0376  28534.5  169.385
 6.0796  28622.9  169.477
 6.1216  28940  170.621
 6.1636  29016.4  169.896
 6.2056  29162.7  170.996
 6.2476  29175.7  170.723
 6.2896  29401.4  171.246
 6.3316  29289.4  171.094
 6.3736  29673.7  172.104
 6.4156  29517.4  171.606
 6.4576  29871.3  172.175
 6.4996  29902.5  172.753
 6.5416  29936.3  172.986
 6.5836  29899.5  173.115
 6.6256  30231.8  173.63
 6.6676  30468.2  173.869
 6.7096  30380.6  174.475
 6.7516  30823.7  175.398
 6.7936  31008.9  175.345
 6.8356  31329.3  176.329
 6.8776  31496.6  177.613
 6.9196  31444.5  177.867
 6.9616  31895.2  178.581
 7.0036  32343  179.473
 7.0456  32570.1  179.39
 7.0876  32463.2  180.718
 7.1296  32320.2  179.535
 7.1716  32340.9  179.122
 7.2136  32180.1  178.458
 7.2556  32363.6  179.129
 7.2976  32036.2  178.723
 7.3396  32287.5  179.637
 7.3816  32117  179.379
 7.4236  32493.8  179.712
 7.4656  32824.9  180.104
 7.5076  32930.1  180.527
 7.5496  32840.2  180.824
 7.5916  32976.1  181.224
 7.6336  33391.7  182.262
 7.6756  33386.6  182.099
 7.7176  33829.4  183.615
 7.7596  33781.5  184.745
 7.8016  34097.7  187.821
 7.8436  34587.5  185.797
 7.8856  34688.1  185.666
 7.9276  35506.6  188.251
 7.9696  35879.1  189.556
 8.0116  36679  190.167
 8.0536  36692.1  190.466
 8.0956  36886.3  192.161
 8.1376  37221  192.497
 8.1796  37289.5  193.228
 8.2216  38245.9  194.402
 8.2636  38307.8  194.811
 8.3056  38186.9  195.284
 8.3476  38813.5  196.198
 8.3896  38406.1  195.245
 8.4316  39148.4  197.294
 8.4736  38788  195.84
 8.5156  38672.6  195.833
 8.5576  38350  196.007
 8.5996  38435.5  195.068
 8.6416  38297.7  196.008
 8.6836  38136.9  195.417
 8.7256  38599.2  196.036
 8.7676  38062  197.608
 8.8096  37864.3  194.359
 8.8516  37659.3  193.49
 8.8936  37263  192.319
 8.9356  37103.2  192.249
 8.9776  37651.3  193.762
 9.0196  37125.5  192.07
 9.0616  37405.6  192.272
 9.1036  37015.6  192.459
 9.1456  37111.2  192.054
 9.1876  37054.8  191.858
 9.2296  37058.6  191.265
 9.2716  36571.3  190.064
 9.3136  36359.6  189.492
 9.3556  36705.6  190.364
 9.3976  35064.6  186.603
 9.4396  35921.6  188.763
 9.4816  35194.4  186.698
 9.5236  35028.4  186.173
 9.5656  35205  186.962
 9.6076  34699.7  186.166
 9.6496  34788.4  186.318
 9.6916  34952  186.729
 9.7336  34757.7  185.983
 9.7756  34675.2  186.893
 9.8176  33784.3  184.114
 9.8596  33957.7  183.018
 9.9016  33709.2  182.341
 9.9436  33386.7  181.214
 9.9856  32958.6  180.439
 10.0276  32517.3  180.346
 10.0696  32912.9  180.465
 10.1116  31771.7  177.573
 10.1536  31400  176.198
 10.1956  31312.8  176.048
 10.2376  30966.5  174.569
 10.2796  31343.6  175.762
 10.3216  31262.2  175.669
 10.3636  30541.9  173.799
 10.4056  30095.2  172.932
 10.4476  30163.3  172.742
 10.4896  30180.5  172.241
 10.5316  29595  170.941
 10.5736  29565.1  171.597
 10.6156  28883.4  169.372
 10.6576  29446.4  169.568
 10.6996  28988  168.895
 10.7416  28801.8  168.615
 10.7836  28750.3  169.161
 10.8256  28286.2  168.222
 10.8676  28377  168.025
 10.9096  28159.2  167.414
 10.9516  27874.7  165.488
 10.9936  27944  165.892
 11.0356  27675  165.732
 11.0776  27453.1  164.378
 11.1196  27102.2  164.061
 11.1616  27028.3  163.542
 11.2036  27034  163.406
 11.2456  27005.4  164.037
 11.2876  26840.3  163.256
 11.3296  26567.1  162.322
 11.3716  27043  163.491
 11.4136  26967.7  164.138
 11.4556  27332.4  164.902
 11.4976  27621.5  164.725
 11.5396  28072.9  166.242
 11.5816  28103.7  166.791
 11.6236  27615.4  165.574
 11.6656  26989.5  162.827
 11.7076  26393.9  161.872
 11.7496  25950.3  164.486
 11.7916  26080.7  160.163
 11.8336  25819.9  160.258
 11.8756  25571.2  159.017
 11.9176  25554.2  158.611
 11.9596  25302.5  158.012
 12.0016  25209.6  158.532
 12.0436  25405  158.559
 12.0856  25078  158.064
 12.1276  24913.8  157.469
 12.1696  25062.3  157.057
 12.2116  25214.7  157.533
 12.2536  24478.1  156.014
 12.2956  24980  156.963
 12.3376  24697.2  156.279
 12.3796  24751.6  156.915
 12.4216  24732.4  156.068
 12.4636  24547.5  156.394
 12.5056  24569.7  155.747
 12.5476  24768  155.894
 12.5896  24703.3  156.324
 12.6316  24345  155.35
 12.6736  24537.7  156.452
 12.7156  24216.3  155.288
 12.7576  24472.9  156.357
 12.7996  24763.9  155.908
 12.8416  24514.7  156.183
 12.8836  24959.8  157.425
 12.9256  24994.1  156.52
 12.9676  25220.9  157.671
 13.0096  24929.7  157.867
 13.0516  25139.4  157.555
 13.0936  25010.4  157.271
 13.1356  25488.1  158.021
 13.1776  25173.3  158.045
 13.2196  25221.4  157.851
 13.2616  25199.5  158.098
 13.3036  25254.2  158.401
 13.3456  25237.9  158.546
 13.3876  25130.4  157.489
 13.4296  25332.3  158.275
 13.4716  25300.7  157.778
 13.5136  25281  157.877
 13.5556  25209.8  158.271
 13.5976  25174.7  158.31
 13.6396  25559.8  158.875
 13.6816  24821.2  156.931
 13.7236  25701.9  159.462
 13.7656  24994  157.784
 13.8076  25306.4  157.536
 13.8496  24908.6  157.084
 13.8916  24834.6  157.681
 13.9336  24826.1  156.868
 13.9756  24837.3  156.251
 14.0176  24665.9  156.398
 14.0596  24615.2  156.201
 14.1016  24369.8  155.818
 14.1436  24110.7  154.107
 14.1856  23923  153.81
 14.2276  23615.6  153.305
 14.2696  23945.1  154.21
 14.3116  23655.5  153.181
 14.3536  23316  152.25
 14.3956  23177.7  151.527
 14.4376  23254  151.547
 14.4796  23248.9  151.526
 14.5216  22952.3  151.366
 14.5636  22781.1  150.353
 14.6056  22885.4  150.272
 14.6476  22909.2  149.573
 14.6896  22322  148.187
 14.7316  22035.3  148.272
 14.7736  22074.9  147.549
 14.8156  21859.9  146.857
 14.8576  21814.3  146.55
 14.8996  21392  146.351
 14.9416  20972.4  144.9
 14.9836  21232.6  145.76
 15.0256  20814.5  143.239
 15.0676  20770.4  143.407
 15.1096  20655.7  142.745
 15.1516  20451.5  142.604
 15.1936  20384.3  141.787
 15.2356  20027.1  140.82
 15.2776  19952.9  140.142
 15.3196  19800.5  140.619
 15.3616  19728.8  140.117
 15.4036  19625  139.601
 15.4456  19715.4  139.573
 15.4876  19355.1  137.964
 15.5296  19200.5  137.708
 15.5716  19042.1  136.73
 15.6136  19100.2  137.273
 15.6556  18836.4  135.553
 15.6976  18799.6  135.719
 15.7396  18750.2  135.935
 15.7816  18543.3  134.683
 15.8236  18368.9  134.76
 15.8656  18269.7  134.185
 15.9076  18182.5  133.69
 15.9496  18021.9  135.899
 15.9916  18044.1  136.424
 16.0336  17747.6  132.17
 16.0756  17691.3  132.271
 16.1176  17906.8  132.99
 16.1596  17267.8  131.935
 16.2016  17487.3  131.508
 16.2436  17347.2  131.369
 16.2856  17194.5  130.328
 16.3276  17079  130.307
 16.3696  17370.7  131.235
 16.4116  16805.2  129.545
 16.4536  17245.1  131.006
 16.4956  16861.9  129.28
 16.5376  17018.9  130.07
 16.5796  16863.4  128.828
 16.6216  16968.2  129.533
 16.6636  16812.7  129.096
 16.7056  16796  128.901
 16.7476  17033.3  129.325
 16.7896  16949.6  129.773
 16.8316  16872.4  129.44
 16.8736  16737.6  129.181
 16.9156  16637  129.132
 16.9576  16612  129.852
 16.9996  16612.4  130.344
 17.0416  16906.7  129.817
 17.0836  16912.4  129.588
 17.1256  16544.1  128.185
 17.1676  16469.3  127.891
 17.2096  16251.1  126.913
 17.2516  16106.9  126.425
 17.2936  16318  127.276
 17.3356  15782  125.177
 17.3776  15855.5  125.665
 17.4196  15889.7  125.489
 17.4616  15972.5  125.734
 17.5036  15605.6  124.653
 17.5456  15484.4  124.812
 17.5876  15588.8  124.265
 17.6296  15442.9  123.481
 17.6716  15450.4  124.111
 17.7136  15426.7  124.155
 17.7556  15159.1  123.37
 17.7976  15275.4  123.582
 17.8396  15068.8  122.238
 17.8816  15173.5  123.21
 17.9236  15100.3  122.721
 17.9656  15205  123.695
 18.0076  15011.3  122.477
 18.0496  15065.5  121.823
 18.0916  14992.2  122.071
 18.1336  15039.3  122.355
 18.1756  15029.9  121.853
 18.2176  14663  120.581
 18.2596  14771.2  120.761
 18.3016  14908.6  121.573
 18.3436  14942.8  121.721
 18.3856  14641.2  120.619
 18.4276  14624.1  120.22
 18.4696  14687.8  120.577
 18.5116  14756.2  121.152
 18.5536  14767  121.558
 18.5956  14563.6  120.267
 18.6376  14544.9  120.593
 18.6796  14525.3  119.835
 18.7216  14742.7  121.223
 18.7636  14463.2  120.056
 18.8056  14547.9  120.35
 18.8476  14310.7  119.99
 18.8896  14483.7  120.043
 18.9316  14627.2  120.622
 18.9736  14371.4  119.257
 19.0156  14407.7  119.82
 19.0576  14513.3  119.103
 19.0996  14675.1  120.492
 19.1416  14307  119.362
 19.1836  14347.2  119.131
 19.2256  14324.1  119.244
 19.2676  14360.1  119.497
 19.3096  14546.7  120.519
 19.3516  14178.5  118.759
 19.3936  14320  119.435
 19.4356  14332  119.352
 19.4776  14300.5  119.315
 19.5196  14412.5  119.622
 19.5616  14278.5  119.332
 19.6036  14332.8  119.05
 19.6456  14335.8  119.182
 19.6876  14420.7  119.183
 19.7296  14283.7  119.072
 19.7716  14218.7  118.969
 19.8136  14420.7  120.018
 19.8556  14465.4  119.676
 19.8976  14498.4  119.88
 19.9396  14753.7  120.498
 19.9816  14879.1  121.262
 20.0236  15082  122.305
 20.0656  15368.6  123.457
 20.1076  15169.1  123.124
 20.1496  15093.2  122.83
 20.1916  14693.4  120.653
 20.2336  14449.5  119.619
 20.2756  14310.1  119.479
 20.3176  14170.6  118.639
 20.3596  14080.7  118.24
 20.4016  13968.9  117.568
 20.4436  13941.4  118.018
 20.4856  13716.3  116.849
 20.5276  13797.3  117.659
 20.5696  13809.5  117.262
 20.6116  13679.1  116.891
 20.6536  13719  116.557
 20.6956  13798.1  117.027
 20.7376  13675.3  116.738
 20.7796  13733.1  116.66
 20.8216  13802.5  116.662
 20.8636  13498.2  115.728
 20.9056  13632  116.263
 20.9476  13444.8  115.293
 20.9896  13570.6  115.701
 21.0316  13563.6  115.566
 21.0736  13547.7  116.021
 21.1156  13422.7  115.653
 21.1576  13421.8  115.697
 21.1996  13376.2  115.479
 21.2416  13246.3  114.744
 21.2836  13366.1  115.225
 21.3256  13286.3  114.967
 21.3676  13445.6  115.197
 21.4096  13289.3  114.897
 21.4516  13345.1  114.959
 21.4936  13025.5  113.825
 21.5356  13397.4  115.375
 21.5776  13390.1  115.182
 21.6196  12936.1  113.244
 21.6616  13146.7  114.25
 21.7036  13183.4  114.192
 21.7456  13244.6  114.533
 21.7876  13006.4  113.246
 21.8296  13073.4  113.394
 21.8716  13001.3  113.315
 21.9136  13303.1  114.826
 21.9556  13072.3  113.493
 21.9976  13017.2  113.27
 22.0396  12988.2  113.399
 22.0816  13152.5  114.661
 22.1236  13179  114.229
 22.1656  13089.6  113.958
 22.2076  13119  113.564
 22.2496  13195.7  113.924
 22.2916  13071  113.26
 22.3336  13084.6  114.054
 22.3756  13062.8  113.681
 22.4176  13065.3  113.546
 22.4596  12904.7  113.439
 22.5016  13000.2  113.345
 22.5436  13196.5  114.076
 22.5856  13067.7  113.768
 22.6276  12896.4  113.162
 22.6696  12848.9  113.303
 22.7116  12909.9  113.083
 22.7536  12988.1  113.4
 22.7956  12890.8  112.295
 22.8376  12855.6  112.672
 22.8796  13009.7  113.141
 22.9216  13126.3  114.206
 22.9636  12921.5  112.453
 23.0056  12939.1  112.667
 23.0476  13155.9  114.19
 23.0896  13276.3  114.073
 23.1316  13084.9  113.687
 23.1736  12896  115.857
 23.2156  13105.1  114.101
 23.2576  13154.9  114.442
 23.2996  13018.4  113.645
 23.3416  12820.3  113.288
 23.3836  13003.4  113.326
 23.4256  12966  113.278
 23.4676  12802.1  112.258
 23.5096  12997.8  113.797
 23.5516  12815  112.271
 23.5936  12920.1  113.646
 23.6356  12968.4  113.524
 23.6776  12971.9  113.742
 23.7196  12683.3  112.268
 23.7616  12845  112.684
 23.8036  12991.7  113.364
 23.8456  13055.9  113.207
 23.8876  12639.5  111.743
 23.9296  12687.7  112.453
 23.9716  12715.9  111.763
 24.0136  12656.7  112.409
 24.0556  12608  111.915
 24.0976  12490.6  111.202
 24.1396  12427.2  113.584
 24.1816  12464.8  112.17
 24.2236  12449.6  111.713
 24.2656  12178.1  109.956
 24.3076  12352.6  110.999
 24.3496  12311.4  110.706
 24.3916  12285.7  110.638
 24.4336  12296.4  110.895
 24.4756  12121.4  109.97
 24.5176  11921.5  108.71
 24.5596  11971.9  109.263
 24.6016  11917  109.104
 24.6436  12010.7  109.017
 24.6856  11901.6  108.282
 24.7276  12003.8  109.066
 24.7696  11822.8  108.356
 24.8116  11776.1  108.328
 24.8536  11632.1  107.65
 24.8956  11567.3  107.092
 24.9376  11549.6  107.191
 24.9796  11573.6  107.416
 25.0216  11395.1  106.694
 25.0636  11565.2  107.135
 25.1056  11477.2  107.44
 25.1476  11527.8  109.381
 25.1896  11617.2  108.239
 25.2316  11574.6  107.301
 25.2736  11568.9  106.926
 25.3156  11496.1  106.659
 25.3576  11487  107.05
 25.3996  11436.3  106.79
 25.4416  11436.4  106.774
 25.4836  11214.5  106.26
 25.5256  11285.6  105.958
 25.5676  11297.1  105.74
 25.6096  11272.5  106.203
 25.6516  11321.1  105.926
 25.6936  11275.6  106.026
 25.7356  11373.4  106.623
 25.7776  11354.9  106.214
 25.8196  11178.1  105.55
 25.8616  11234.7  105.734
 25.9036  11395.2  105.948
 25.9456  11181.9  105.556
 25.9876  11082.8  105.009
 26.0296  11338.5  105.859
 26.0716  11112.1  105.217
 26.1136  11285.2  105.978
 26.1556  11252.1  105.195
 26.1976  11111.6  105.474
 26.2396  11193.1  105.001
 26.2816  11182.9  105.567
 26.3236  11218.1  105.901
 26.3656  11114.6  105.13
 26.4076  11158.2  105.552
 26.4496  11599.3  107.101
 26.4916  11210.3  105.286
 26.5336  11045  104.831
 26.5756  11667.1  107.542
 26.6176  11133.9  105.168
 26.6596  11010.5  104.887
 26.7016  11054.3  104.853
 26.7436  10880.4  104.154
 26.7856  10850.7  104.001
 26.8276  10891.2  104.146
 26.8696  10933.3  104.224
 26.9116  10834.7  103.693
 26.9536  10782.1  103.486
 26.9956  10814.4  103.674
 27.0376  10766.2  103.658
 27.0796  10858.8  103.836
 27.1216  10721.5  103.25
 27.1636  10627.1  102.963
 27.2056  10633.6  102.874
 27.2476  10737.1  103.376
 27.2896  10731.8  103.464
 27.3316  10624.8  102.658
 27.3736  10627.8  102.941
 27.4156  10558.1  102.438
 27.4576  10659.8  103.168
 27.4996  10494.2  101.95
 27.5416  10525.9  102.431
 27.5836  10500.1  102.123
 27.6256  10884.3  104.145
 27.6676  10753.5  103.537
 27.7096  10497.9  102.153
 27.7516  10480.2  102.234
 27.7936  10412.1  102.066
 27.8356  10548.7  102.352
 27.8776  10433.7  101.832
 27.9196  10337  101.21
 27.9616  10453.8  101.976
 28.0036  10389.8  101.636
 28.0456  10348.9  101.571
 28.0876  10311  101.472
 28.1296  10277.1  101.145
 28.1716  10335.7  101.44
 28.2136  10308.6  101.275
 28.2556  10206.6  100.885
 28.2976  10227.3  100.979
 28.3396  10191.5  100.557
 28.3816  10275  100.994
 28.4236  10210.3  100.833
 28.4656  10092.2  100.279
 28.5076  10162.8  100.26
 28.5496  10259  101.002
 28.5916  10222.3  100.63
 28.6336  10153.1  100.631
 28.6756  10183.9  99.9771
 28.7176  10133.8  100.286
 28.7596  10057.5  99.801
 28.8016  10104.8  100.068
 28.8436  9928.71  99.4403
 28.8856  10094.7  100.117
 28.9276  10012.5  99.9543
 28.9696  10142.1  100.258
 29.0116  9986.45  99.6682
 29.0536  9933.76  99.6049
 29.0956  9942.83  99.3658
 29.1376  9991.11  99.5689
 29.1796  9916.8  99.2446
 29.2216  9912  99.0641
 29.2636  9943.31  99.2947
 29.3056  9986.94  99.3005
 29.3476  10019.8  99.9928
 29.3896  9907.82  99.5372
 29.4316  10051.3  99.581
 29.4736  9846.56  98.6261
 29.5156  9923.92  98.9303
 29.5576  9976.84  99.9517
 29.5996  10022.2  99.4209
 29.6416  9899.47  98.9335
 29.6836  10008.8  99.401
 29.7256  9944.93  99.6588
 29.7676  9824.59  98.7096
 29.8096  9733.05  98.1914
 29.8516  9744.11  98.5827
 29.8936  9862.78  99.2773
 29.9356  9965.5  99.5436
 29.9776  9763.32  98.6829
 30.0196  9883.04  98.6605
 30.0616  9748.58  98.3686
 30.1036  9946.11  99.183
 30.1456  9822.91  98.8007
 30.1876  9819.88  98.767
 30.2296  9808.93  98.6524
 30.2716  9812.32  98.306
 30.3136  9860.77  99.4212
 30.3556  9937.57  99.8179
 30.3976  9609.27  99.6861
 30.4396  9694.4  97.4397
 30.4816  9701.06  97.0648
 30.5236  9757.51  97.3687
 30.5656  9599.01  97.2278
 30.6076  9717.94  97.6043
 30.6496  9810.54  98.1068
 30.6916  9729.83  97.798
 30.7336  9649.64  97.5466
 30.7756  9545.24  97.1071
 30.8176  9612.21  97.3637
 30.8596  9669.7  97.4241
 30.9016  9637.19  97.1251
 30.9436  9724.14  97.793
 30.9856  9547.67  97.0067
 31.0276  9711.29  97.4329
 31.0696  9543.93  97.1778
 31.1116  9462.56  96.7379
 31.1536  9603.06  97.337
 31.1956  9459.62  96.6931
 31.2376  9392.1  96.3588
 31.2796  9379.23  95.8282
 31.3216  9430.75  96.0349
 31.3636  9503.03  97.1013
 31.4056  9538.79  98.6225
 31.4476  9579.31  96.6819
 31.4896  9388.3  96.2216
 31.5316  9443.55  95.9032
 31.5736  9628.66  96.6591
 31.6156  9401.06  95.5224
 31.6576  9478.79  96.0161
 31.6996  9534.97  95.9667
 31.7416  9329.53  95.8549
 31.7836  9407.84  95.4028
 31.8256  9340.85  95.3328
 31.8676  9425.13  95.7574
 31.9096  9412.68  95.9186
 31.9516  9193.33  95.0873
 31.9936  9318.68  95.5618
 32.0356  9417.96  96.1333
 32.0776  9475.77  96.3136
 32.1196  9312.61  95.4852
 32.1616  9541.2  96.1852
 32.2036  9268.16  95.3132
 32.2456  9335.23  96.0449
 32.2876  9319.21  95.4537
 32.3296  9284.08  95.235
 32.3716  9220.42  95.0113
 32.4136  9291.37  95.5951
 32.4556  9389.18  95.466
 32.4976  9256.28  94.7347
 32.5396  9424.71  95.6268
 32.5816  9232.98  94.765
 32.6236  9212.79  94.7403
 32.6656  9417.41  96.3356
 32.7076  9128.28  94.4907
 32.7496  9219.19  94.6296
 32.7916  9323.54  95.1237
 32.8336  9315.75  95.1815
 32.8756  9243.11  94.527
 32.9176  8959.31  93.552
 32.9596  9048.33  94.0853
 33.0016  9159.88  94.457
 33.0436  9208.3  94.884
 33.0856  9208.43  94.9472
 33.1276  9032.5  93.771
 33.1696  9232.93  94.6425
 33.2116  9161.71  94.5101
 33.2536  9159.49  94.4985
 33.2956  9090.34  94.2279
 33.3376  9070.37  93.9414
 33.3796  9144.83  94.4582
 33.4216  9267.5  94.6717
 33.4636  9162.78  94.2844
 33.5056  9040  93.902
 33.5476  9046.71  93.9233
 33.5896  9141.45  94.1874
 33.6316  9017.17  93.8595
 33.6736  8901.03  93.5007
 33.7156  9091.27  94.5376
 33.7576  9133.12  94.373
 33.7996  9117.41  94.0595
 33.8416  8861.17  92.9146
 33.8836  9029.19  93.5674
 33.9256  9033.21  93.6475
 33.9676  9123.82  94.0063
 34.0096  8831.37  92.8084
 34.0516  8892.25  92.7645
 34.0936  8941.35  93.2869
 34.1356  8959.15  93.1105
 34.1776  8898.89  92.8145
 34.2196  8806.57  92.5136
 34.2616  8866.24  92.9629
 34.3036  8834.42  93.0441
 34.3456  8903.3  93.162
 34.3876  8914.79  93.2779
 34.4296  8865.71  92.6146
 34.4716  8936.3  93.1275
 34.5136  8964.29  93.484
 34.5556  8803.37  92.9014
 34.5976  8820.15  92.8204
 34.6396  8755.79  92.1573
 34.6816  8888.17  92.9669
 34.7236  8889.99  92.7598
 34.7656  8836.78  92.6784
 34.8076  8796.5  92.7861
 34.8496  8791.33  92.6217
 34.8916  8655.9  91.7785
 34.9336  8928.43  93.1734
 34.9756  8863.07  92.7777
 35.0176  8988.16  93.948
 35.0596  8692.1  92.2092
 35.1016  8718.34  92.1132
 35.1436  8929.53  92.9036
 35.1856  8735.88  92.0203
 35.2276  8791.96  92.4913
 35.2696  8740.91  92.4157
 35.3116  8727.8  92.4425
 35.3536  8715.13  92.113
 35.3956  8657.04  91.484
 35.4376  8654.61  92.0353
 35.4796  8774.73  92.7279
 35.5216  8605.24  91.7804
 35.5636  8530.08  92.1339
 35.6056  8738.34  92.2541
 35.6476  8754.15  92.2291
 35.6896  8721.64  92.1523
 35.7316  8581.49  91.3753
 35.7736  8560.25  91.465
 35.8156  8510.58  91.1898
 35.8576  8577.43  91.8122
 35.8996  8654.04  92.182
 35.9416  8514.38  90.9469
 35.9836  8491.57  91.2611
 36.0256  8535.69  91.4216
 36.0676  8598.89  91.5198
 36.1096  8429.28  90.7459
 36.1516  8575.68  91.42
 36.1936  8552.45  91.14
 36.2356  8528.11  91.6554
 36.2776  8556.94  91.2784
 36.3196  8542.35  90.8769
 36.3616  8538.73  90.9904
 36.4036  8551.61  91.114
 36.4456  8559.52  91.3738
 36.4876  8523.95  91.1232
 36.5296  8543.28  91.265
 36.5716  8458.96  91.6036
 36.6136  8656.44  91.4157
 36.6556  8747.98  92.1082
 36.6976  8599.59  91.8306
 36.7396  8559.94  91.3426
 36.7816  8493.36  91.3687
 36.8236  8538.85  91.5342
 36.8656  8468.34  91.2277
 36.9076  8336.48  90.3921
 36.9496  8386.18  90.6449
 36.9916  8546.58  91.1352
 37.0336  8551.25  91.4793
 37.0756  8465.34  90.806
 37.1176  8301.44  90.1965
 37.1596  8438.03  90.9431
 37.2016  8485.07  91.4257
 37.2436  8486.68  90.7386
 37.2856  8294.99  89.9637
 37.3276  8433.51  90.0551
 37.3696  8389.08  90.7154
 37.4116  8465.73  91.0323
 37.4536  8272.5  89.8495
 37.4956  8375.91  90.4588
 37.5376  8370.14  91.9971
 37.5796  8286.4  91.494
 37.6216  8256.29  89.5818
 37.6636  8082.32  88.5259
 37.7056  8356.99  90.2153
 37.7476  8371.45  89.8185
 37.7896  8280.86  89.8491
 37.8316  8055.43  88.7803
 37.8736  8391.11  90.1288
 37.9156  8317.22  89.7303
 37.9576  8256.74  89.2917
 37.9996  8226.14  88.8417
 38.0416  8052.67  88.7122
 38.0836  8306.31  89.9955
 38.1256  8161.16  89.1723
 38.1676  8085.27  88.8894
 38.2096  8190.55  89.0863
 38.2516  8279.42  89.7709
 38.2936  8201.87  89.1479
 38.3356  8270.49  89.4435
 38.3776  8191.1  89.2859
 38.4196  8285.05  89.6502
 38.4616  8078.77  88.7637
 38.5036  8265.56  89.6231
 38.5456  8115.12  89.6477
 38.5876  8235.93  90.3488
 38.6296  8056.77  88.3289
 38.6716  8187.14  88.8306
 38.7136  8038.53  87.9631
 38.7556  8124.57  88.9418
 38.7976  8175.1  89.1574
 38.8396  8040.32  88.8727
 38.8816  8050.28  88.7054
 38.9236  8079.41  88.6777
 38.9656  8032.35  88.3319
 39.0076  8160.69  88.4319
 39.0496  8127.81  88.8004
 39.0916  8102.35  88.3033
 39.1336  8066.57  88.5268
 39.1756  8152.96  89.0679
 39.2176  8052.37  89.0568
 39.2596  8103.01  89.2538
 39.3016  8092.6  88.7575
 39.3436  8074.1  89.0926
 39.3856  8063.64  88.479
 39.4276  8099.46  89.1765
 39.4696  7923.2  87.8235
 39.5116  7951.01  88.4928
 39.5536  8143.73  89.9942
 39.5956  8139.48  89.0576
 39.6376  8186.44  89.3176
 39.6796  8090.08  88.5288
 39.7216  8140.01  88.8996
 39.7636  8167.09  89.6239
 39.8056  8147.85  89.2916
 39.8476  8106.19  89.3267
 39.8896  8053.18  88.6573
 39.9316  8077.56  89.0497
 39.9736  8106.05  88.7729
 40.0156  8169.53  88.9342
 40.0576  8191.52  89.4269
 40.0996  8188.06  88.5773
 40.1416  8123.4  89.0259
 40.1836  8131.94  88.9601
 40.2256  8168.19  89.2106
 40.2676  8002.37  88.4719
 40.3096  8213.67  89.4931
 40.3516  8201.93  89.534
 40.3936  8260.38  89.4066
 40.4356  8217.4  89.372
 40.4776  8138.84  89.1894
 40.5196  8251.52  90.1031
 40.5616  8165.25  89.27
 40.6036  8014.69  88.7002
 40.6456  8204.13  89.3428
 40.6876  8312.67  89.9179
 40.7296  8166.59  89.268
 40.7716  8071.83  88.8724
 40.8136  8094.78  88.9456
 40.8556  8108.86  89.1542
 40.8976  8202.8  89.5892
 40.9396  8076.74  89.251
 40.9816  8177.42  89.0778
 41.0236  8140.78  88.6626
 41.0656  8248.44  89.7956
 41.1076  8246.16  89.55
 41.1496  8141.82  88.8892
 41.1916  8050.04  88.7132
 41.2336  8112.15  89.0417
 41.2756  8147.84  88.8327
 41.3176  8041.39  88.8698
 41.3596  8173.58  89.3257
 41.4016  8027.63  88.7895
 41.4436  8215.98  89.6061
 41.4856  8203.27  89.7027
 41.5276  8117.84  89.2541
 41.5696  8073.95  88.6413
 41.6116  8073.09  89.0288
 41.6536  8187.37  89.5185
 41.6956  8241.4  89.7935
 41.7376  8096.92  89.1062
 41.7796  8065.56  88.8137
 41.8216  8104.02  89.2635
 41.8636  8027.31  88.781
 41.9056  7976.62  88.287
 41.9476  8017.25  88.7458
 41.9896  8183.79  89.3262
 42.0316  8229.28  89.6588
 42.0736  8162.48  89.4348
 42.1156  8029.91  88.5125
 42.1576  8065.65  88.8105
 42.1996  8072.2  88.9862
 42.2416  8142.97  88.9557
 42.2836  8015.56  88.3712
 42.3256  7963.41  88.1981
 42.3676  8051.29  88.4793
 42.4096  8066.35  88.5324
 42.4516  8069.3  88.6346
 42.4936  8063.65  88.6739
 42.5356  8037.99  88.6686
 42.5776  8122.71  89.0682
 42.6196  8103.43  89.0235
 42.6616  7910.12  88.1261
 42.7036  8028.43  88.1583
 42.7456  8061.76  88.7007
 42.7876  7992.58  88.4215
 42.8296  7945.53  87.988
 42.8716  7914.24  87.979
 42.9136  7945.37  87.9001
 42.9556  7897.97  87.8133
 42.9976  7969.57  88.1732
 43.0396  7990.88  88.0173
 43.0816  7932.75  88.0774
 43.1236  7900.56  87.9583
 43.1656  7957.11  88.1015
 43.2076  7893.35  87.8505
 43.2496  7961.77  88.0396
 43.2916  7951.64  88.3576
 43.3336  7896.94  87.8892
 43.3756  7934.08  87.8467
 43.4176  7762.34  86.9746
 43.4596  7822.72  87.166
 43.5016  7910.24  88.062
 43.5436  7860.1  87.6812
 43.5856  7813.51  87.4444
 43.6276  7901.14  87.8276
 43.6696  7848.22  87.7962
 43.7116  7847.26  87.2854
 43.7536  7903.4  88.0943
 43.7956  7783.87  88.6247
 43.8376  7851.15  87.5299
 43.8796  7825  87.4695
 43.9216  7887.06  87.7343
 43.9636  7897.72  87.9008
 44.0056  7729.9  87.1853
 44.0476  7761.28  86.9974
 44.0896  7829.32  87.7285
 44.1316  7806.96  87.1203
 44.1736  7723.79  86.7835
 44.2156  7782.82  86.9666
 44.2576  7717.26  86.9175
 44.2996  7767.38  87.1749
 44.3416  7807.96  87.1623
 44.3836  7700.04  86.8781
 44.4256  7670.06  86.3589
 44.4676  7718.51  86.7896
 44.5096  7745.79  87.0889
 44.5516  7636.64  86.4386
 44.5936  7544.74  85.8658
 44.6356  7748.87  86.757
 44.6776  7628.48  86.4015
 44.7196  7746.74  87.381
 44.7616  7672.25  88.2923
 44.8036  7624.99  86.642
 44.8456  7696.12  87.0421
 44.8876  7643.11  86.5879
 44.9296  7741.39  86.5896
 44.9716  7646.29  86.4876
 45.0136  7633.6  86.3556
 45.0556  7666.13  86.6215
 45.0976  7631.19  86.4825
 45.1396  7464.68  85.2754
 45.1816  7504.32  85.4431
 45.2236  7764.59  86.8161
 45.2656  7501.26  85.8337
 45.3076  7490.74  85.5626
 45.3496  7557.77  86.2494
 45.3916  7558.96  86.5236
 45.4336  7596.61  86.581
 45.4756  7414.54  85.3991
 45.5176  7523.97  85.6357
 45.5596  7562.09  85.9723
 45.6016  7461.81  85.8233
 45.6436  7419.04  84.7586
 45.6856  7450.43  85.5912
 45.7276  7424.44  86.7656
 45.7696  7453.36  86.5911
 45.8116  7465.03  86.1129
 45.8536  7450.89  85.9234
 45.8956  7578.1  85.9978
 45.9376  7644.61  85.8311
 45.9796  7458.63  85.4623
 46.0216  7471.23  85.8836
 46.0636  7473.13  85.036
 46.1056  7512.64  85.2466
 46.1476  7526.18  85.9211
 46.1896  7543.64  86.1704
 46.2316  7474.15  85.6435
 46.2736  7486.33  85.9117
 46.3156  7378.28  85.0459
 46.3576  7417.93  85.4779
 46.3996  7477.51  85.9783
 46.4416  7384.74  85.0025
 46.4836  7334.43  85.0876
 46.5256  7426.62  85.557
 46.5676  7353.14  85.2483
 46.6096  7487.17  85.9587
 46.6516  7486.11  84.9817
 46.6936  7426.59  85.1407
 46.7356  7493.86  85.6139
 46.7776  7321.47  85.4787
 46.8196  7293.68  85.0615
 46.8616  7205.93  84.351
 46.9036  7293.44  84.5225
 46.9456  7284.86  84.1138
 46.9876  7345.44  84.5453
 47.0296  7383.81  85.4534
 47.0716  7201.57  84.2158
 47.1136  7281.22  84.3607
 47.1556  7269.44  84.1577
 47.1976  7359.71  84.8441
 47.2396  7250.81  84.5306
 47.2816  7270.72  84.3499
 47.3236  7273.52  84.7369
 47.3656  7282.62  84.7156
 47.4076  7317.36  84.648
 47.4496  7262.26  84.4966
 47.4916  7204.05  84.3431
 47.5336  7278.51  84.5918
 47.5756  7398.62  85.4098
 47.6176  7187.05  84.0779
 47.6596  7177.23  83.739
 47.7016  7312.24  84.3366
 47.7436  7305.12  84.6318
 47.7856  7349.09  84.9102
 47.8276  7281.28  84.5686
 47.8696  7261.11  84.5316
 47.9116  7168.96  83.7129
 47.9536  7157.82  83.5942
 47.9956  7093.53  83.9206
 48.0376  7060.65  83.4973
 48.0796  7308.87  85.0811
 48.1216  7377.34  85.2979
 48.1636  7355.4  84.7406
 48.2056  7220.29  84.2245
 48.2476  7269.73  84.8209
 48.2896  7337.32  85.1302
 48.3316  7186.07  84.1848
 48.3736  7075.3  83.558
 48.4156  7148.83  83.846
 48.4576  7167.81  84.248
 48.4996  7191.82  83.8445
 48.5416  7262.27  84.5781
 48.5836  7160.16  83.6645
 48.6256  7168.97  83.9169
 48.6676  7098.57  84.0159
 48.7096  7123.78  83.436
 48.7516  7139.14  83.6684
 48.7936  7060.1  83.2759
 48.8356  7100.57  83.563
 48.8776  7194.84  84.6826
 48.9196  7212.1  84.1574
 48.9616  7157.48  84.2216
 49.0036  7093.39  84.1874
 49.0456  7030.9  83.7982
 49.0876  7040.32  83.3865
 49.1296  6960.59  83.0911
 49.1716  6983.73  83.0926
 49.2136  7050.37  83.4132
 49.2556  7093.88  83.7037
 49.2976  7037.11  83.431
 49.3396  7018.39  83.374
 49.3816  7149.82  83.5858
 49.4236  6985.42  83.0453
 49.4656  6986.66  83.0639
 49.5076  7059.56  83.2434
 49.5496  6907.47  82.4074
 49.5916  7143.22  83.7175
 49.6336  6965.68  82.8621
 49.6756  7077.96  83.7704
 49.7176  6982.26  83.1444
 49.7596  6949.97  82.7215
 49.8016  7091.85  83.4667
 49.8436  7033.94  83.4367
 49.8856  7014.29  83.3246
 49.9276  6887.99  82.6648
 49.9696  7067.67  83.7254
 50.0116  6927.4  83.0309
 50.0536  6886.98  82.7317
 50.0956  6885.09  82.7868
 50.1376  6918.13  82.6738
 50.1796  6844.86  82.5132
 50.2216  6953.08  83.1538
 50.2636  6817.59  81.9647
 50.3056  6794.39  81.9981
 50.3476  6926.66  82.8159
 50.3896  6841.27  82.2672
 50.4316  6909.58  82.5183
 50.4736  6916.85  82.7823
 50.5156  6951.48  82.9815
 50.5576  6931.76  82.6264
 50.5996  6799.06  82.1046
 50.6416  6933.13  82.8415
 50.6836  6868.89  82.5136
 50.7256  6872.96  82.464
 50.7676  6833.18  82.5363
 50.8096  6940.96  82.7242
 50.8516  6833.79  82.4959
 50.8936  6815.53  82.1674
 50.9356  6843.95  82.4455
 50.9776  6912.67  83.008
 51.0196  6744.62  82.1299
 51.0616  6783.47  81.6933
 51.1036  6727.34  81.7058
 51.1456  6808.52  82.1097
 51.1876  6723.39  80.9436
 51.2296  6710.56  81.4974
 51.2716  6781.3  81.6287
 51.3136  6813.79  82.2756
 51.3556  6699.03  81.2115
 51.3976  6763.43  81.7551
 51.4396  6630.73  81.252
 51.4816  6772.15  81.9682
 51.5236  6701.3  81.6236
 51.5656  6670.29  81.0386
 51.6076  6769.7  81.7235
 51.6496  6700.91  81.4961
 51.6916  6703.88  81.8698
 51.7336  6672.83  81.7702
 51.7756  6774.35  82.0908
 51.8176  6654.94  81.46
 51.8596  6690.64  81.6974
 51.9016  6723.85  81.5115
 51.9436  6622.53  82.337
 51.9856  6577.45  82.4931
 52.0276  6658.26  81.5051
 52.0696  6667.61  81.6252
 52.1116  6727.38  82.1059
 52.1536  6567.24  80.9634
 52.1956  6643.87  80.9512
 52.2376  6860.63  82.4318
 52.2796  6833.36  82.0774
 52.3216  6531.17  80.9296
 52.3636  6618.21  81.0473
 52.4056  6628.69  80.9701
 52.4476  6589.03  81.0905
 52.4896  6519.32  80.7127
 52.5316  6584.83  81.1612
 52.5736  6564.16  80.7586
 52.6156  6671.22  81.7829
 52.6576  6688.4  81.341
 52.6996  6484.03  81.059
 52.7416  6503.51  81.027
 52.7836  6686.41  82.0325
 52.8256  6619.32  80.8473
 52.8676  6427.73  80.2538
 52.9096  6640.02  81.6453
 52.9516  6608.92  81.8328
 52.9936  6535.04  81.7637
 53.0356  6449.01  80.231
 53.0776  6516.07  80.9089
 53.1196  6507.05  80.9806
 53.1616  6520.9  81.1138
 53.2036  6364.43  80.0931
 53.2456  6415.15  80.5102
 53.2876  6503.27  80.766
 53.3296  6485.3  80.9809
 53.3716  6511.63  80.8868
 53.4136  6481.35  80.8469
 53.4556  6396.49  80.3517
 53.4976  6555.12  81.1877
 53.5396  6460.92  80.9973
 53.5816  6483.93  80.763
 53.6236  6394.07  80.547
 53.6656  6378.32  80.0849
 53.7076  6436.32  80.4036
 53.7496  6426.09  80.4605
 53.7916  6512.22  81.1257
 53.8336  6259.54  79.4344
 53.8756  6370.34  80.6873
 53.9176  6450.36  80.5378
 53.9596  6464.61  81.3941
 54.0016  6376.65  80.1741
 54.0436  6479.78  81.0366
 54.0856  6466.68  80.3761
 54.1276  6446.5  80.4448
 54.1696  6308.05  79.7534
 54.2116  6420.22  80.2127
 54.2536  6417.19  80.0066
 54.2956  6464.73  80.3568
 54.3376  6365.69  80.2179
 54.3796  6452.03  80.6624
 54.4216  6455.2  80.7315
 54.4636  6354.84  80.0568
 54.5056  6517.64  80.8946
 54.5476  6421.47  80.6326
 54.5896  6465.13  80.7263
 54.6316  6452.06  80.5099
 54.6736  6355.24  79.9808
 54.7156  6391.64  80.2354
 54.7576  6350.09  79.9675
 54.7996  6347.13  80.0997
 54.8416  6424.73  80.6195
 54.8836  6275.39  79.7907
 54.9256  6362.92  80.0921
 54.9676  6377.2  80.0396
 55.0096  6440.91  80.5094
 55.0516  6379.05  80.3528
 55.0936  6445.15  80.3877
 55.1356  6356.11  79.8841
 55.1776  6320.09  79.9219
 55.2196  6381.37  80.0923
 55.2616  6401.86  80.4341
 55.3036  6348.01  80.2543
 55.3456  6354.47  80.4441
 55.3876  6346.57  80.1388
 55.4296  6361.66  80.212
 55.4716  6448.48  80.794
 55.5136  6390.19  80.1813
 55.5556  6388.03  80.2364
 55.5976  6391.69  80.3182
 55.6396  6368.47  80.0386
 55.6816  6287.5  79.4887
 55.7236  6327.01  79.7728
 55.7656  6356.38  79.7155
 55.8076  6355.15  79.6998
 55.8496  6348.83  80.0893
 55.8916  6345.39  80.166
 55.9336  6317.24  79.7984
 55.9756  6246.64  79.2448
 56.0176  6306.54  79.7754
 56.0596  6341.73  79.9812
 56.1016  6278.72  79.5897
 56.1436  6251.97  79.6867
 56.1856  6292.97  79.6838
 56.2276  6288.56  79.7178
 56.2696  6294.95  79.7243
 56.3116  6242.35  79.7986
 56.3536  6323.61  79.9734
 56.3956  6253.8  79.5215
 56.4376  6251.9  79.5418
 56.4796  6305.07  79.6792
 56.5216  6309.16  80.0667
 56.5636  6368.43  80.0454
 56.6056  6290.81  79.7843
 56.6476  6254.77  79.1842
 56.6896  6275.99  79.7645
 56.7316  6257.06  79.5543
 56.7736  6284.2  79.7291
 56.8156  6320.02  79.9468
 56.8576  6251.13  79.4583
 56.8996  6355.78  80.059
 56.9416  6313.66  80.0992
 56.9836  6173.35  78.7106
 57.0256  6206.37  79.241
 57.0676  6251.63  79.6573
 57.1096  6276.54  79.6023
 57.1516  6330.08  80.0053
 57.1936  6251.89  79.2574
 57.2356  6323.33  80.034
 57.2776  6323.21  79.9857
 57.3196  6264.15  79.9864
 57.3616  6340.13  79.9539
 57.4036  6206.09  79.1652
 57.4456  6229.09  79.2779
 57.4876  6255.9  79.307
 57.5296  6212.1  79.3685
 57.5716  6137.73  78.8863
 57.6136  6258.32  79.4754
 57.6556  6345.98  80.1684
 57.6976  6300.09  79.6965
 57.7396  6109.51  78.8562
 57.7816  6184.93  79.7032
 57.8236  6099.4  78.9449
 57.8656  6258.23  79.6152
 57.9076  6270.67  79.7256
 57.9496  6235.63  79.8581
 57.9916  6208.92  79.1947
 58.0336  6217.19  79.5302
 58.0756  6326.58  79.8336
 58.1176  6244.92  79.3344
 58.1596  6162.27  79.3718
 58.2016  6346.54  79.7637
 58.2436  6196.07  79.2249
 58.2856  6207.39  79.2213
 58.3276  6265.63  79.9704
 58.3696  6242.44  79.5688
 58.4116  6199.63  79.1579
 58.4536  6284.25  79.5803
 58.4956  6149.35  78.9059
 58.5376  6419.62  80.1769
 58.5796  6202.73  79.2374
 58.6216  6154.42  78.74
 58.6636  6325.54  80.0503
 58.7056  6257.28  79.4747
 58.7476  6168.19  79.3539
 58.7896  6230.09  79.3926
 58.8316  6220.49  79.3268
 58.8736  6162.28  78.9611
 58.9156  6122.94  78.749
 58.9576  6335.72  80.434
 58.9996  6459.87  80.4459
 59.0416  6439  80.6814
 59.0836  6328.86  79.918
 59.1256  6255.67  80.1661
 59.1676  6291.39  80.7138
 59.2096  6297.02  80.0383
 59.2516  6296.32  79.6061
 59.2936  6310.65  80.032
 59.3356  6302.74  79.8569
 59.3776  6379.88  80.5178
 59.4196  6229.2  79.496
 59.4616  6207.51  79.2158
 59.5036  6222.21  79.3443
 59.5456  6421.15  80.2877
 59.5876  6290.64  79.6626
 59.6296  6349.74  80.1069
 59.6716  6264.27  79.625
 59.7136  6283.93  79.7379
 59.7556  6208.87  79.3986
 59.7976  6256.9  79.4427
 59.8396  6407.08  80.2815
 59.8816  6178.56  79.3887
 59.9236  6351.38  80.1257
 59.9656  6185.44  79.3344
 60.0076  6396.96  80.0195
 60.0496  6313.28  80.0097
 60.0916  6384.79  79.8632
 60.1336  6180.3  79.694
 60.1756  6252.63  81.364
 60.1996  0.0000000E+00  0.0000000E+00