File: docs/examples/opeando_xrd/IS17_D/Data/IS17_D/17_Da_f00063.xye
# /beamlines/bl04/projects/cycle2025-II/20250340211-lsimonelli/DATA/IS17_D/17_Da_f00063.xye : mythproc.py merge -s 0.006 -l 0.5 -f /beamlines/bl04/inhouse/ff/FlatField/ff_20Nov2024rod8mm60s_17keV.raw -b True -c true -o xye /beamlines/bl04/projects/cycle2025-II/20250340211-lsimonelli/DATA/IS17_D/17_Da_00063.dat
# IsMon = [6770298, 6772387, 6768375]  IsPos = [-1.4999, -2.4884, -3.4988]
# Wave = 0.4962  CalPath /beamlines/bl04/projects/cycle2025-II/20250340211-lsimonelli/DATA/Align/Si_Pos1_25keV_f00001.cal
# Date = 2025-09-24_11:07:12 Dt = 4.8000  Bin = 0.0060  <imon> = 6770353 +/- 1638 (Min/Max) 6768375 / 6772387
# icurr 250.8360  mocoIn 1.7113E-05  mocoOut 0.8031  i15 7.08943e+06  imon 6.77035e+06  i7 4.0000  iEMpd_timer 4.8000  iEMpd_1 3.3836E-08  iEMpd_2 7.9002E-08  iEMpd_3 1.6185E-08  iEMpd_4 4.9599E-08  iEMhp_timer 4.8000  iEMhp_1 4.9006E-06  iEMhp_2 -2.4633E-08  iEMhp_3 -2.4473E-08  iEMhp_4 -2.0970E-08
#      9776
 1.5856  40487.7  206.617
 1.6276  47321.7  219.542
 1.6696  54027.9  233.756
 1.7116  62524.9  251.958
 1.7536  71735.2  268.729
 1.7956  76887  278.906
 1.8376  73344.6  272.837
 1.8796  61140.3  247.265
 1.9216  49131.4  222.546
 1.9636  41561  203.845
 2.0056  37799.5  193.648
 2.0476  34486  186.994
 2.0896  33364.2  182.848
 2.1316  32631.3  179.96
 2.1736  30479.2  175.304
 2.2156  31238.5  176.05
 2.2576  30019.8  173.202
 2.2996  28700.1  169.972
 2.3416  29079.8  169.727
 2.3836  28614.7  168.468
 2.4256  27756  166.462
 2.4676  27704.2  166.071
 2.5096  27228.3  164.692
 2.5516  28673.2  172.897
 2.5936  49198.1  221.911
 2.6356  27299.4  166.003
 2.6776  26228.9  161.61
 2.7196  25587.3  160.134
 2.7616  25539.2  159.764
 2.8036  24984.8  158.189
 2.8456  24981.9  158.79
 2.8876  24409  156.833
 2.9296  24222.6  156.36
 2.9716  23956.8  154.999
 3.0136  23541.1  153.715
 3.0556  23913.1  155.317
 3.0976  23846.8  154.049
 3.1396  23666.5  154.167
 3.1816  23431.3  153.338
 3.2236  23156  152.427
 3.2656  23197.8  151.617
 3.3076  23056.9  152.594
 3.3496  23275.8  152.265
 3.3916  23624.3  153.231
 3.4336  24143  155.479
 3.4756  24487.4  156.514
 3.5176  25230.2  158.662
 3.5596  25205.2  161.015
 3.6016  25661  160.08
 3.6436  24474.5  157.419
 3.6856  24169  154.743
 3.7276  23176.4  152.611
 3.7696  23065.1  152.446
 3.8116  22658  150.978
 3.8536  22912.4  151.761
 3.8956  22727.2  150.971
 3.9376  22791.3  151.434
 3.9796  22708.7  150.673
 4.0216  22805.1  150.027
 4.0636  22652.1  150.991
 4.1056  22705.5  150.807
 4.1476  22795.6  151.423
 4.1896  23122.3  152.368
 4.2316  23368.5  153.006
 4.2736  23723.9  153.95
 4.3156  23876.5  154.678
 4.3576  24710.5  157.278
 4.3996  24853.8  157.988
 4.4416  25295.6  158.974
 4.4836  26122.6  161.699
 4.5256  26436  163.283
 4.5676  26364.1  163.316
 4.6096  26788.6  163.286
 4.6516  27346.2  164.686
 4.6936  27402.9  165.671
 4.7356  27718  166.445
 4.7776  27498  165.618
 4.8196  27186.9  165.319
 4.8616  26800.2  163.624
 4.9036  26395.7  162.134
 4.9456  26550.8  163.26
 4.9876  25782.6  160.782
 5.0296  26203  161.892
 5.0716  26066.6  162.261
 5.1136  26157.4  162.248
 5.1556  26480.5  162.715
 5.1976  28622.7  169.158
 5.2396  27042  164.12
 5.2816  27007.7  164.475
 5.3236  27115.5  164.512
 5.3656  26319.8  162.994
 5.4076  26337  163.196
 5.4496  26503.8  163.199
 5.4916  26478.1  162.873
 5.5336  26319.4  162.398
 5.5756  26308.3  162.382
 5.6176  26661.7  162.915
 5.6596  26667.8  163.898
 5.7016  26952.2  164.041
 5.7436  26978.4  164.392
 5.7856  27090.8  164.792
 5.8276  27322.4  165.222
 5.8696  27382.2  165.573
 5.9116  27429.2  166.318
 5.9536  27571.7  166.499
 5.9956  28051.1  167.303
 6.0376  27976.4  167.72
 6.0796  28296.1  168.507
 6.1216  28229.2  168.512
 6.1636  28383.7  168.033
 6.2056  28570.7  169.256
 6.2476  28709  169.534
 6.2896  28863.4  169.675
 6.3316  28767.6  169.563
 6.3736  28847.3  169.693
 6.4156  28978  169.972
 6.4576  29133.8  170.036
 6.4996  29313.7  171.04
 6.5416  29276.3  171.067
 6.5836  29471.7  171.868
 6.6256  29443.8  171.352
 6.6676  30161.8  172.994
 6.7096  29788.6  172.764
 6.7516  30164.1  173.511
 6.7936  30676.4  174.404
 6.8356  30773.8  174.758
 6.8776  31021.2  176.266
 6.9196  30927.6  176.398
 6.9616  31443  177.298
 7.0036  31840.4  178.073
 7.0456  31798.7  177.252
 7.0876  31663.1  178.561
 7.1296  31762.7  177.979
 7.1716  31650.3  177.205
 7.2136  31564.8  176.744
 7.2556  31664.9  177.185
 7.2976  31617.3  177.551
 7.3396  31806.6  178.289
 7.3816  31583  177.881
 7.4236  32178.1  178.834
 7.4656  32162.8  178.276
 7.5076  32529.7  179.426
 7.5496  32199.8  179.06
 7.5916  32249.5  179.219
 7.6336  32777.9  180.58
 7.6756  32832.5  180.582
 7.7176  33143.8  181.735
 7.7596  33108.9  182.897
 7.8016  34420.3  188.688
 7.8436  34342.5  185.135
 7.8856  34135.1  184.178
 7.9276  34889.3  186.617
 7.9696  35026.6  187.286
 8.0116  36095.2  188.648
 8.0536  36497  189.95
 8.0956  36334.6  190.705
 8.1376  36756.7  191.289
 8.1796  36863.7  192.103
 8.2216  37642.7  192.862
 8.2636  37878.7  193.714
 8.3056  37921.6  194.612
 8.3476  38924.1  196.474
 8.3896  37977.6  194.152
 8.4316  38269.9  195.064
 8.4736  38346.7  194.722
 8.5156  38071.4  194.301
 8.5576  37739.7  194.422
 8.5996  38079.3  194.16
 8.6416  37652.4  194.334
 8.6836  37553.9  193.924
 8.7256  38322.6  195.316
 8.7676  38149.2  197.837
 8.8096  37801.1  194.209
 8.8516  37234.8  192.367
 8.8936  37255.7  192.32
 8.9356  36748.6  191.33
 8.9776  37006.7  192.106
 9.0196  36807.7  191.257
 9.0616  36949.7  191.116
 9.1036  36856.1  192.066
 9.1456  36894.8  191.519
 9.1876  36620.4  190.749
 9.2296  36687.6  190.33
 9.2716  35686.8  187.772
 9.3136  35755  187.932
 9.3556  36282.7  189.3
 9.3976  34644.9  185.5
 9.4396  35296.6  187.132
 9.4816  34415.7  184.638
 9.5236  34763.7  185.487
 9.5656  34436.9  184.934
 9.6076  34243.8  184.963
 9.6496  34105.7  184.501
 9.6916  34217  184.778
 9.7336  34233.1  184.594
 9.7756  34434.1  186.401
 9.8176  33666.7  183.782
 9.8596  33359.3  181.381
 9.9016  33116  180.713
 9.9436  32648.3  179.346
 9.9856  32470.6  179.091
 10.0276  31987.7  178.85
 10.0696  32367.8  178.947
 10.1116  31090.7  175.642
 10.1536  31348.1  176.536
 10.1956  30864.3  174.768
 10.2376  30323.9  172.736
 10.2796  30776.4  174.148
 10.3216  30243.7  172.902
 10.3636  30454.3  173.532
 10.4056  30578  174.287
 10.4476  30582.2  173.921
 10.4896  31650.3  176.37
 10.5316  30456.9  173.73
 10.5736  29416.3  171.141
 10.6156  28950.1  169.56
 10.6576  30165.5  171.611
 10.6996  28889.5  168.609
 10.7416  28521.9  167.773
 10.7836  28879.6  169.534
 10.8256  28144  167.8
 10.8676  28459.4  168.261
 10.9096  27797.7  166.344
 10.9516  27676.2  164.889
 10.9936  27755  165.335
 11.0356  27720  165.87
 11.0776  27700.1  165.113
 11.1196  27213.5  164.413
 11.1616  26904.1  163.155
 11.2036  27087.2  163.569
 11.2456  27190.1  164.593
 11.2876  26535.1  162.326
 11.3296  26473.4  162.038
 11.3716  27005.7  163.353
 11.4136  27046.6  164.382
 11.4556  27485.7  165.376
 11.4976  27960.7  165.74
 11.5396  27757.7  165.302
 11.5816  26711.8  162.625
 11.6236  26228.7  161.353
 11.6656  26116.9  160.175
 11.7076  25646.4  159.565
 11.7496  25282.8  162.346
 11.7916  25520.1  158.432
 11.8336  25259.9  158.515
 11.8756  25161.8  157.734
 11.9176  25070.3  157.097
 11.9596  24839.5  156.562
 12.0016  24816.6  157.293
 12.0436  24799.2  156.652
 12.0856  24498.1  156.228
 12.1276  24707.7  156.801
 12.1696  24699.3  155.916
 12.2116  24868.6  156.446
 12.2536  24994.2  157.683
 12.2956  24578.4  155.696
 12.3376  24233.8  154.813
 12.3796  24559.4  156.302
 12.4216  24479.4  155.269
 12.4636  24405.8  155.946
 12.5056  24223.9  154.642
 12.5476  24435.8  154.847
 12.5896  24393.3  155.344
 12.6316  23951.4  154.091
 12.6736  24054.1  154.904
 12.7156  24083.8  154.863
 12.7576  24163.6  155.359
 12.7996  24434.9  154.869
 12.8416  24324.4  155.576
 12.8836  24781.6  156.86
 12.9256  25088.1  156.824
 12.9676  24941.9  156.797
 13.0096  24601.5  156.823
 13.0516  24911  156.84
 13.0936  24673.9  156.492
 13.1356  24909.3  156.216
 13.1776  24535.2  156.015
 13.2196  24884.8  156.794
 13.2616  24870  157.053
 13.3036  24587.7  156.133
 13.3456  24731.2  156.947
 13.3876  24770.8  156.358
 13.4296  24531.7  155.751
 13.4716  24727.1  155.984
 13.5136  24820.2  156.431
 13.5556  24827.9  157.059
 13.5976  24765.2  157.009
 13.6396  25061.1  157.31
 13.6816  24617.3  156.411
 13.7236  25377.2  158.453
 13.7656  24576.7  156.463
 13.8076  24817.1  156.002
 13.8496  24495.7  155.59
 13.8916  24639  157.053
 13.9336  24439.1  155.644
 13.9756  24353.6  154.718
 14.0176  24347.9  155.382
 14.0596  24415.5  155.569
 14.1016  23920.6  154.372
 14.1436  23793.8  153.097
 14.1856  23522.3  152.504
 14.2276  23311.3  152.315
 14.2696  23504  152.781
 14.3116  23290.1  151.985
 14.3536  22892.5  150.865
 14.3956  22733.7  150.062
 14.4376  22806.4  150.088
 14.4796  22760.3  149.929
 14.5216  22255.4  149.049
 14.5636  22238.2  148.552
 14.6056  22465.2  148.891
 14.6476  22371.8  147.804
 14.6896  22027.7  147.203
 14.7316  21699.9  147.128
 14.7736  21513.5  145.648
 14.8156  21231.9  144.732
 14.8576  21225  144.56
 14.8996  20953.8  144.841
 14.9416  20612.8  143.645
 14.9836  20732.8  144.034
 15.0256  20634.2  142.616
 15.0676  20467  142.354
 15.1096  20270.7  141.406
 15.1516  20001.2  141.016
 15.1936  19961.9  140.308
 15.2356  19776.6  139.936
 15.2776  19658.3  139.097
 15.3196  19110.3  138.148
 15.3616  19316.6  138.653
 15.4036  19167.1  137.965
 15.4456  19551.4  138.989
 15.4876  19087.1  137.006
 15.5296  18926.6  136.708
 15.5716  18658  135.343
 15.6136  18657.9  135.664
 15.6556  18880.7  135.711
 15.6976  18803.2  135.72
 15.7396  18394.7  134.645
 15.7816  18269.5  133.687
 15.8236  18024  133.495
 15.8656  17927.2  132.921
 15.9076  17768.3  132.155
 15.9496  17916  135.498
 15.9916  17629.5  134.879
 16.0336  17268.1  130.383
 16.0756  17653.9  132.147
 16.1176  17374.3  131.168
 16.1596  16792  130.115
 16.2016  17264.2  130.685
 16.2436  16969.4  129.942
 16.2856  16865.2  129.087
 16.3276  16755.1  129.084
 16.3696  16885.4  129.399
 16.4116  16654.3  128.975
 16.4536  16869.7  129.588
 16.4956  16802.8  129.066
 16.5376  16916.6  129.691
 16.5796  16568.1  127.709
 16.6216  16819.8  128.982
 16.6636  16647.5  128.478
 16.7056  16713.7  128.594
 16.7476  16519.3  127.377
 16.7896  16739.6  128.977
 16.8316  16557  128.241
 16.8736  16501.2  128.278
 16.9156  16643.3  129.173
 16.9576  16429  129.127
 16.9996  16363.6  129.371
 17.0416  16412.5  127.89
 17.0836  16451.6  127.798
 17.1256  15938.3  125.801
 17.1676  16228.9  126.941
 17.2096  15917.9  125.594
 17.2516  16124.8  126.189
 17.2936  15789.3  125.186
 17.3356  15521.9  124.136
 17.3776  15543.1  124.406
 17.4196  15685.7  124.661
 17.4616  15591.1  124.212
 17.5036  15452.2  124.022
 17.5456  15209  123.685
 17.5876  15223.9  122.791
 17.6296  15285.5  122.852
 17.6716  15156  122.9
 17.7136  15069.6  122.704
 17.7556  15162.8  123.371
 17.7976  15021.6  122.54
 17.8396  14992  121.915
 17.8816  14867  121.951
 17.9236  14810.9  121.531
 17.9656  15089.7  123.219
 18.0076  15022.1  122.525
 18.0496  15222.9  122.458
 18.0916  16203.4  126.907
 18.1336  15661.6  124.865
 18.1756  15315.1  122.999
 18.2176  15165.4  122.63
 18.2596  14894.8  121.258
 18.3016  15253.4  122.975
 18.3436  15315.6  123.22
 18.3856  14718.7  120.935
 18.4276  14840.3  121.102
 18.4696  14749.2  120.838
 18.5116  14770.3  121.208
 18.5536  14946.4  122.302
 18.5956  14557.4  120.241
 18.6376  14623.4  120.915
 18.6796  14597.8  120.131
 18.7216  14736.2  121.191
 18.7636  14445  119.98
 18.8056  14498.2  120.144
 18.8476  14230.9  119.663
 18.8896  14275.5  119.175
 18.9316  14513.2  120.154
 18.9736  14331.6  119.091
 19.0156  14225.6  119.054
 19.0576  14245.6  118.002
 19.0996  14398.8  119.35
 19.1416  14041.6  118.252
 19.1836  14146.5  118.293
 19.2256  13976.2  117.789
 19.2676  14095.1  118.377
 19.3096  14286.4  119.438
 19.3516  14004.5  118.208
 19.3936  14134.3  118.648
 19.4356  14168.3  118.661
 19.4776  14058.5  118.306
 19.5196  14155  118.558
 19.5616  14036.3  118.312
 19.6036  14152.2  118.306
 19.6456  14074.7  118.096
 19.6876  14388.9  119.045
 19.7296  14264.6  118.988
 19.7716  14235.9  119.032
 19.8136  14437.6  120.09
 19.8556  14724.5  120.741
 19.8976  14802.2  121.128
 19.9396  14944.4  121.276
 19.9816  15011.9  121.798
 20.0236  14924.2  121.66
 20.0656  14524.1  120.019
 20.1076  14131.2  118.841
 20.1496  14059.6  118.548
 20.1916  14000.8  117.816
 20.2336  13835.3  117.052
 20.2756  13827.2  117.446
 20.3176  13570.9  116.101
 20.3596  13745.6  116.824
 20.4016  13701.9  116.439
 20.4436  13666.9  116.849
 20.4856  13500.7  115.93
 20.5276  13473.4  116.261
 20.5696  13495.6  115.823
 20.6116  13377  115.591
 20.6536  13464.4  115.475
 20.6956  13327.5  115.012
 20.7376  13498.1  115.976
 20.7796  13420.9  115.328
 20.8216  13559.6  115.626
 20.8636  13415.2  115.372
 20.9056  13603.5  116.14
 20.9476  13327.3  114.792
 20.9896  13651.6  116.047
 21.0316  13593.7  115.695
 21.0736  13326.4  115.074
 21.1156  13433.2  115.694
 21.1576  13232.4  114.881
 21.1996  13220.5  114.805
 21.2416  13167.2  114.401
 21.2836  13244.1  114.699
 21.3256  13131.7  114.298
 21.3676  13178.5  114.047
 21.4096  13125.3  114.127
 21.4516  12925.1  113.133
 21.4936  12847.6  113.047
 21.5356  13054  113.894
 21.5776  13116.1  113.994
 21.6196  12942.9  113.282
 21.6616  12975.1  113.511
 21.7036  13013.3  113.459
 21.7456  13063.1  113.744
 21.7876  12936.3  112.943
 21.8296  12898.3  112.631
 21.8716  12813.6  112.489
 21.9136  12980.5  113.424
 21.9556  13089.5  113.569
 21.9976  12799.4  112.323
 22.0396  12620.2  111.785
 22.0816  12907.3  113.599
 22.1236  12963.1  113.288
 22.1656  12885.6  113.078
 22.2076  13012.2  113.099
 22.2496  12929  112.756
 22.2916  12852.4  112.302
 22.3336  12932.9  113.389
 22.3756  12865  112.815
 22.4176  12712.7  112
 22.4596  12584.6  112.029
 22.5016  12875.9  112.802
 22.5436  12786.2  112.293
 22.5856  12852.2  112.826
 22.6276  12743.6  112.482
 22.6696  12798.9  113.074
 22.7116  12798.3  112.585
 22.7536  12695.3  112.111
 22.7956  12783.3  111.821
 22.8376  12662.3  111.826
 22.8796  12602.6  111.356
 22.9216  12961.9  113.492
 22.9636  12813.7  111.981
 23.0056  12790.8  112.017
 23.0476  12965.2  113.355
 23.0896  13306  114.199
 23.1316  13120.7  113.846
 23.1736  12664.1  114.798
 23.2156  12891.5  113.19
 23.2576  12757.5  112.715
 23.2996  12737.3  112.426
 23.3416  12618.2  112.41
 23.3836  12715.2  112.064
 23.4256  12830.3  112.69
 23.4676  12864.7  112.545
 23.5096  12642.4  112.243
 23.5516  12646.3  111.543
 23.5936  12650.2  112.458
 23.6356  12865.6  113.076
 23.6776  12788.6  112.958
 23.7196  12523.5  111.359
 23.7616  12646.6  111.819
 23.8036  12682.3  112.012
 23.8456  12642.3  111.414
 23.8876  12485.8  111.069
 23.9296  12256.3  110.529
 23.9716  12497.1  110.811
 24.0136  12542.9  111.903
 24.0556  12242.3  110.299
 24.0976  12268.5  110.222
 24.1396  12286.6  112.968
 24.1816  12320.6  111.525
 24.2236  12326.7  111.15
 24.2656  12121.1  109.69
 24.3076  12027.3  109.508
 24.3496  12143  109.929
 24.3916  12163.8  110.077
 24.4336  12111  110.047
 24.4756  11998.4  109.408
 24.5176  11849  108.369
 24.5596  11816.3  108.345
 24.6016  11882.3  108.936
 24.6436  11755.6  107.844
 24.6856  11697.6  107.338
 24.7276  11911.6  108.63
 24.7696  11614.9  107.388
 24.8116  11702.4  107.974
 24.8536  11538  107.202
 24.8956  11525.4  106.889
 24.9376  11418.8  106.332
 24.9796  11453.1  106.846
 25.0216  11367.4  106.559
 25.0636  11492.1  106.792
 25.1056  11248.5  106.354
 25.1476  11443.9  108.939
 25.1896  11381.3  107.13
 25.2316  11494.1  106.932
 25.2736  11427.9  106.263
 25.3156  11251.2  105.523
 25.3576  11359.5  106.45
 25.3996  11267.8  106.012
 25.4416  11326.8  106.263
 25.4836  11142.3  105.917
 25.5256  11228.9  105.692
 25.5676  11314.5  105.818
 25.6096  11041.4  105.108
 25.6516  11291.3  105.785
 25.6936  11060  105.011
 25.7356  11148.7  105.564
 25.7776  11131.9  105.093
 25.8196  11081.1  105.086
 25.8616  11119.9  105.201
 25.9036  11188.7  104.984
 25.9456  11097  105.147
 25.9876  10943.2  104.48
 26.0296  11091.4  104.695
 26.0716  11076.5  105.052
 26.1136  11208.6  105.622
 26.1556  11182  104.874
 26.1976  11008.2  104.984
 26.2396  11036.1  104.27
 26.2816  11063.9  105.002
 26.3236  11097.1  105.326
 26.3656  10921.4  104.209
 26.4076  11079.4  105.174
 26.4496  11615.1  107.198
 26.4916  11044.9  104.512
 26.5336  10961.1  104.435
 26.5756  11149.1  105.194
 26.6176  10915.3  104.128
 26.6596  10844.9  104.104
 26.7016  10718.2  103.246
 26.7436  10753.1  103.546
 26.7856  10636.4  102.968
 26.8276  10722.1  103.33
 26.8696  10801.1  103.59
 26.9116  10740.1  103.241
 26.9536  10670.9  102.952
 26.9956  10662.6  102.945
 27.0376  10546.8  102.598
 27.0796  10691.9  103.025
 27.1216  10578.8  102.561
 27.1636  10570.5  102.687
 27.2056  10607.9  102.751
 27.2476  10479.5  102.13
 27.2896  10589.5  102.772
 27.3316  10457.1  101.84
 27.3736  10398.6  101.824
 27.4156  10329.7  101.321
 27.4576  10491.4  102.352
 27.4996  10423.3  101.609
 27.5416  10444.4  102.034
 27.5836  10416.9  101.71
 27.6256  10783.3  103.661
 27.6676  10652.9  103.051
 27.7096  10429.7  101.828
 27.7516  10573.5  102.682
 27.7936  10464.8  102.325
 27.8356  10437.7  101.806
 27.8776  10258  100.968
 27.9196  10211.2  100.592
 27.9616  10350.8  101.462
 28.0036  10258.6  100.986
 28.0456  10242.1  101.042
 28.0876  10083.8  100.35
 28.1296  10223.4  100.88
 28.1716  10128.9  100.413
 28.2136  10210.3  100.78
 28.2556  10048.9  100.105
 28.2976  9993.67  99.8195
 28.3396  10197.2  100.594
 28.3816  10139.2  100.323
 28.4236  10115.1  100.36
 28.4656  9869.11  99.1575
 28.5076  10064.5  99.7779
 28.5496  9886.5  99.1538
 28.5916  10178.9  100.412
 28.6336  9906.15  99.4018
 28.6756  10055.9  99.3445
 28.7176  9998.56  99.6159
 28.7596  10005.3  99.5414
 28.8016  10044.1  99.7655
 28.8436  9826.66  98.9285
 28.8856  10070  99.9913
 28.9276  9926.17  99.5238
 28.9696  9872.06  98.9087
 29.0116  9890.1  99.1906
 29.0536  9779.25  98.833
 29.0956  9763.83  98.4716
 29.1376  9860.94  98.9211
 29.1796  9798.23  98.6451
 29.2216  9785.61  98.4303
 29.2636  9836.25  98.7575
 29.3056  9762.69  98.1801
 29.3476  9662.35  98.1965
 29.3896  9910.18  99.5479
 29.4316  9794.79  98.3024
 29.4736  9859.65  98.6962
 29.5156  9860.77  98.6074
 29.5576  9772.99  98.9163
 29.5996  9639.6  97.5035
 29.6416  9786.98  98.3566
 29.6836  9690.53  97.805
 29.7256  9825.33  99.055
 29.7676  9799.26  98.5862
 29.8096  9603.99  97.5384
 29.8516  9633.49  98.0213
 29.8936  9621.75  98.0543
 29.9356  9723.34  98.3248
 29.9776  9802.53  98.8808
 30.0196  9702.91  97.7513
 30.0616  9604.69  97.6393
 30.1036  9748.66  98.1859
 30.1456  9595.22  97.6551
 30.1876  9766.41  98.4899
 30.2296  9624.49  97.7292
 30.2716  9660.96  97.5447
 30.3136  9805.14  99.1381
 30.3556  9600.11  98.1068
 30.3976  9518.06  99.2269
 30.4396  9643.14  97.1896
 30.4816  9760.15  97.3684
 30.5236  9657.52  96.8769
 30.5656  9610.38  97.2968
 30.6076  9656.38  96.9587
 30.6496  9708.49  97.6033
 30.6916  9577.72  97.0433
 30.7336  9551.8  97.0604
 30.7756  9461.23  96.6926
 30.8176  9456.51  96.5835
 30.8596  9584.92  97.0069
 30.9016  9532.11  97.0789
 30.9436  9505.81  96.6943
 30.9856  9442.85  96.4837
 31.0276  9387.94  95.8111
 31.0696  9398.56  96.4445
 31.1116  9404.99  96.4536
 31.1536  9556.82  97.111
 31.1956  9356.66  96.1762
 31.2376  9269.25  95.7357
 31.2796  9291.53  95.3873
 31.3216  9392.24  95.8445
 31.3636  9450.51  96.8292
 31.4056  9479.98  98.3183
 31.4476  9429.36  95.9142
 31.4896  9194.52  95.2141
 31.5316  9374.35  95.5363
 31.5736  9694.89  96.9652
 31.6156  9452.79  95.7757
 31.6576  9472.23  95.9701
 31.6996  9364.51  95.0933
 31.7416  9254.76  95.5896
 31.7836  9275.65  94.7216
 31.8256  9314.97  95.1918
 31.8676  9340.8  95.3188
 31.9096  9222.15  95.0651
 31.9516  9110.38  94.6552
 31.9936  9155.19  94.7099
 32.0356  9207.4  95.0489
 32.0776  9199.36  94.8913
 32.1196  9259.6  95.2877
 32.1616  9326.53  95.0891
 32.2036  9034.77  94.098
 32.2456  9165.52  95.1589
 32.2876  9326.31  95.4794
 32.3296  9071.85  94.1343
 32.3716  9128.99  94.5383
 32.4136  9196.51  95.1119
 32.4556  9281.93  94.9157
 32.4976  9268.65  94.7644
 32.5396  9079.57  93.8512
 32.5816  9110.45  94.1401
 32.6236  9121.83  94.2687
 32.6656  9258.49  95.517
 32.7076  9041.55  94.0464
 32.7496  9092.12  93.9736
 32.7916  9056.14  93.749
 32.8336  9143.32  94.2921
 32.8756  9177.92  94.1922
 32.9176  9035.6  93.9415
 32.9596  9081.66  94.2627
 33.0016  9078.49  94.0353
 33.0436  9122.89  94.4434
 33.0856  9022.72  93.9887
 33.1276  8954.51  93.3674
 33.1696  9048.37  93.7013
 33.2116  9012.48  93.7333
 33.2536  9036.86  93.8661
 33.2956  9113.6  94.3478
 33.3376  8909.27  93.0285
 33.3796  9049.66  93.9578
 33.4216  9034.22  93.4812
 33.4636  8970.18  93.2884
 33.5056  8922.6  93.2782
 33.5476  8814.06  92.7061
 33.5896  9026.73  93.5788
 33.6316  8942.32  93.469
 33.6736  8721.84  92.5482
 33.7156  8816.66  93.101
 33.7576  8926.03  93.3022
 33.7996  9000.13  93.4554
 33.8416  8709.78  92.1106
 33.8836  8822.34  92.484
 33.9256  8956.63  93.2489
 33.9676  8952.03  93.1196
 34.0096  8641.17  91.8051
 34.0516  8792.36  92.24
 34.0936  8681.21  91.9223
 34.1356  8895.92  92.7838
 34.1776  8741.36  91.9918
 34.2196  8719.1  92.0526
 34.2616  8740.18  92.2975
 34.3036  8667.9  92.1673
 34.3456  8753.05  92.3738
 34.3876  8608.28  91.5633
 34.4296  8607.76  91.2544
 34.4716  8862.81  92.745
 34.5136  8776.42  92.5024
 34.5556  8646.58  92.0666
 34.5976  8648.13  91.8815
 34.6396  8723.06  91.9854
 34.6816  8721.24  92.0904
 34.7236  8787.72  92.2257
 34.7656  8764.91  92.2995
 34.8076  8613.85  91.8306
 34.8496  8667.89  91.9714
 34.8916  8660.65  91.8043
 34.9336  8834.2  92.6867
 34.9756  8683.21  91.8062
 35.0176  8727.16  92.5676
 35.0596  8537.7  91.39
 35.1016  8636.94  91.6802
 35.1436  8738.12  91.8999
 35.1856  8470.74  90.6132
 35.2276  8586.57  91.4089
 35.2696  8480.92  91.0327
 35.3116  8564.08  91.5709
 35.3536  8475.99  90.8126
 35.3956  8527.21  90.789
 35.4376  8490.85  91.1461
 35.4796  8576.49  91.6747
 35.5216  8523.8  91.3535
 35.5636  8248.2  90.5924
 35.6056  8610.15  91.5745
 35.6476  8646.47  91.66
 35.6896  8629.3  91.6541
 35.7316  8482.82  90.8453
 35.7736  8310.8  90.1218
 35.8156  8466.6  90.9611
 35.8576  8511.49  91.4472
 35.8996  8603.97  91.912
 35.9416  8817.76  92.4834
 35.9836  8463.7  91.017
 36.0256  8531.63  91.4002
 36.0676  8569.42  91.3582
 36.1096  8315.45  90.1303
 36.1516  8477.65  90.8989
 36.1936  8538.25  91.0609
 36.2356  8410.28  91.0252
 36.2776  8370.28  90.2935
 36.3196  8466.41  90.4723
 36.3616  8442.11  90.4747
 36.4036  8399.78  90.3038
 36.4456  8456.7  90.8118
 36.4876  8327.99  90.0674
 36.5296  8425.74  90.6369
 36.5716  8480.4  91.7191
 36.6136  8596.26  91.1009
 36.6556  8528.71  90.9514
 36.6976  8339.44  90.429
 36.7396  8268.32  89.77
 36.7816  8400.14  90.8652
 36.8236  8376.35  90.6555
 36.8656  8263.28  90.1095
 36.9076  8213.14  89.7157
 36.9496  8326.77  90.3321
 36.9916  8323.46  89.934
 37.0336  8400.92  90.6781
 37.0756  8486.57  90.9216
 37.1176  8179.15  89.5277
 37.1596  8294.78  90.155
 37.2016  8249.75  90.1475
 37.2436  8308.49  89.7799
 37.2856  8183.57  89.3553
 37.3276  8379.7  89.7656
 37.3696  8170.35  89.5184
 37.4116  8360.4  90.468
 37.4536  8299.53  89.9991
 37.4956  8174.43  89.3682
 37.5376  8254.57  91.3596
 37.5796  8202.47  91.037
 37.6216  8071.28  88.5729
 37.6636  8141.39  88.8578
 37.7056  8203.78  89.3941
 37.7476  8287.7  89.3728
 37.7896  8124.03  88.9963
 37.8316  8017.22  88.5721
 37.8736  8190.18  89.0487
 37.9156  8080.29  88.4526
 37.9576  8099.42  88.4524
 37.9996  8088.44  88.1069
 38.0416  8133.65  89.1675
 38.0836  8212.92  89.5026
 38.1256  8106.12  88.8679
 38.1676  7952.65  88.1693
 38.2096  8163.6  88.9471
 38.2516  8213.94  89.4359
 38.2936  8040.12  88.2695
 38.3356  8227.74  89.2038
 38.3776  8049.18  88.5193
 38.4196  8208.06  89.2449
 38.4616  7994.26  88.3082
 38.5036  8189.92  89.2165
 38.5456  8020.54  89.1302
 38.5876  8079.49  89.4793
 38.6296  7936.59  87.657
 38.6716  8013.92  87.8688
 38.7136  7991.59  87.6982
 38.7556  7907.97  87.7413
 38.7976  7956.94  87.9494
 38.8396  7826.87  87.6787
 38.8816  7780.93  87.1994
 38.9236  7950.37  87.9587
 38.9656  7936  87.7907
 39.0076  8010.45  87.6085
 39.0496  8059.14  88.4199
 39.0916  8080.04  88.1716
 39.1336  7858.19  87.3678
 39.1756  7932.08  87.8479
 39.2176  7971.33  88.595
 39.2596  7955  88.4223
 39.3016  8069.41  88.6328
 39.3436  7844.88  87.8108
 39.3856  7989.01  88.0606
 39.4276  7892.22  88.0225
 39.4696  7973.11  88.0931
 39.5116  7864.55  87.9988
 39.5536  7992.84  89.1546
 39.5956  8048.73  88.5559
 39.6376  8160.01  89.1781
 39.6796  8087.76  88.5134
 39.7216  8087.34  88.613
 39.7636  8064.92  89.067
 39.8056  7956.78  88.2431
 39.8476  7884.8  88.1005
 39.8896  7895.22  87.7776
 39.9316  8001.52  88.6295
 39.9736  8159.66  89.0617
 40.0156  8022.67  88.1369
 40.0576  8005.81  88.4024
 40.0996  8073.33  87.9542
 40.1416  8049.61  88.6221
 40.1836  8026.47  88.3907
 40.2256  8107.98  88.8807
 40.2676  7972.04  88.2403
 40.3096  8102.34  88.8845
 40.3516  8154.01  89.2741
 40.3936  8115.29  88.6176
 40.4356  8016.46  88.2653
 40.4776  8103.27  89.1626
 40.5196  7989.89  88.6655
 40.5616  8032.14  88.5394
 40.6036  7936.15  88.2639
 40.6456  8013.02  88.2976
 40.6876  8159.57  89.0823
 40.7296  8137.74  89.1057
 40.7716  8043.01  88.7083
 40.8136  7958.49  88.1875
 40.8556  8030.64  88.7226
 40.8976  8057.06  88.7913
 40.9396  8010.31  88.8817
 40.9816  8088.08  88.5953
 41.0236  8027.47  88.0453
 41.0656  8080.86  88.8756
 41.1076  8116.76  88.8455
 41.1496  8148.02  88.922
 41.1916  8072.01  88.8301
 41.2336  7973.21  88.2727
 41.2756  8027.3  88.1795
 41.3176  8052.02  88.9315
 41.3596  8115.85  89.0103
 41.4016  8051.14  88.9237
 41.4436  8046.72  88.6741
 41.4856  8081.14  89.0338
 41.5276  8015.56  88.687
 41.5696  8006.81  88.2673
 41.6116  8092.13  89.1285
 41.6536  7914.16  88.0125
 41.6956  8085.49  89.0123
 41.7376  7872.06  87.8608
 41.7796  8030.26  88.6172
 41.8216  7967.79  88.5106
 41.8636  8041.05  88.8552
 41.9056  7911.13  87.9256
 41.9476  7982.79  88.5595
 41.9896  8045.9  88.5679
 42.0316  8081.84  88.8426
 42.0736  7860.47  87.7315
 42.1156  7934.21  87.9839
 42.1576  7983.95  88.358
 42.1996  8000.29  88.5902
 42.2416  8072.35  88.567
 42.2836  7901.22  87.7355
 42.3256  7917.55  87.9423
 42.3676  7966.74  88.014
 42.4096  8013.65  88.2393
 42.4516  7923.1  87.8282
 42.4936  7866.13  87.5813
 42.5356  8009.33  88.5099
 42.5776  7930.8  88.0085
 42.6196  7961.82  88.2368
 42.6616  7716.79  87.037
 42.7036  7893.98  87.4165
 42.7456  7945.9  88.0625
 42.7876  7786.48  87.263
 42.8296  7888.92  87.6797
 42.8716  7754.64  87.0899
 42.9136  7824.18  87.2654
 42.9556  7948.97  88.0944
 42.9976  7961.48  88.1232
 43.0396  7952.08  87.8017
 43.0816  7908.54  87.9467
 43.1236  7791.24  87.346
 43.1656  7807.67  87.2682
 43.2076  7763.87  87.1297
 43.2496  7793.26  87.1064
 43.2916  7808.28  87.5589
 43.3336  7817.45  87.447
 43.3756  7833.33  87.2878
 43.4176  7758.56  86.9526
 43.4596  7787.72  86.9707
 43.5016  7719.58  86.9965
 43.5436  7735.18  86.9863
 43.5856  7802.26  87.39
 43.6276  7730.96  86.881
 43.6696  7726.43  87.1166
 43.7116  7790.15  86.9664
 43.7536  7842.36  87.7472
 43.7956  7701.5  88.1444
 43.8376  7713.69  86.7584
 43.8796  7784.53  87.2405
 43.9216  7708.75  86.7348
 43.9636  7698.63  86.7843
 44.0056  7654.03  86.7661
 44.0476  7647.47  86.3618
 44.0896  7616.62  86.527
 44.1316  7872.91  87.4849
 44.1736  7705.6  86.6789
 44.2156  7707.05  86.5291
 44.2576  7571.11  86.0951
 44.2996  7692.51  86.7496
 44.3416  7651.1  86.2848
 44.3836  7496.23  85.7273
 44.4256  7545.53  85.6596
 44.4676  7621.25  86.2414
 44.5096  7638.24  86.4803
 44.5516  7577.5  86.0951
 44.5936  7446.11  85.3036
 44.6356  7645.38  86.1739
 44.6776  7582.1  86.1318
 44.7196  7585.6  86.4709
 44.7616  7551.66  87.5942
 44.8036  7447.46  85.422
 44.8456  7507.31  85.9748
 44.8876  7571.93  86.1944
 44.9296  7631.47  85.9843
 44.9716  7506.59  85.6998
 45.0136  7568.77  85.9925
 45.0556  7520.84  85.6936
 45.0976  7458.51  85.5046
 45.1396  7513.1  85.5825
 45.1816  7523.56  85.5752
 45.2236  7524.79  85.4759
 45.2656  7461.1  85.6204
 45.3076  7574.98  86.0471
 45.3496  7373.32  85.2033
 45.3916  7451.9  85.9175
 45.4336  7453.56  85.7622
 45.4756  7368.82  85.1436
 45.5176  7399.32  84.9313
 45.5596  7495.05  85.6039
 45.6016  7336.7  85.1099
 45.6436  7336.55  84.2889
 45.6856  7439.5  85.5451
 45.7276  7382.54  86.5312
 45.7696  7392.87  86.2501
 45.8116  7486.2  86.2241
 45.8536  7292.71  84.9985
 45.8956  7434.81  85.1731
 45.9376  7493.74  84.9718
 45.9796  7327.49  84.7022
 46.0216  7394.44  85.4334
 46.0636  7456.17  84.9338
 46.1056  7317.38  84.1242
 46.1476  7311.94  84.6812
 46.1896  7388.9  85.2724
 46.2316  7478.17  85.6534
 46.2736  7186.26  84.3323
 46.3156  7441.61  85.4007
 46.3576  7353.35  85.0964
 46.3996  7398.38  85.5113
 46.4416  7358.91  84.8642
 46.4836  7305.39  84.9096
 46.5256  7350.2  85.1081
 46.5676  7227.12  84.5077
 46.6096  7392.99  85.3926
 46.6516  7320.54  84.0289
 46.6936  7412.61  85.0491
 46.7356  7460.66  85.4276
 46.7776  7198.69  84.7628
 46.8196  7317.35  85.0508
 46.8616  7133.51  83.9236
 46.9036  7116.9  83.4878
 46.9456  7198.24  83.6101
 46.9876  7262.51  84.0614
 47.0296  7171.91  84.2232
 47.0716  7137.4  83.8422
 47.1136  7244.94  84.1459
 47.1556  7191  83.7049
 47.1976  7197.38  83.8218
 47.2396  7221.92  84.3616
 47.2816  7173.47  83.7769
 47.3236  7149.99  84.0114
 47.3656  7248.43  84.5143
 47.4076  7137.82  83.6805
 47.4496  7176.56  83.9943
 47.4916  7111.57  83.7988
 47.5336  7279.35  84.6012
 47.5756  7331.95  85.0189
 47.6176  7091.62  83.5178
 47.6596  7114.23  83.3648
 47.7016  7241.68  83.9289
 47.7436  7243.89  84.2715
 47.7856  7299.96  84.6211
 47.8276  6996.36  82.9053
 47.8696  7077.78  83.4613
 47.9116  7137.25  83.5321
 47.9536  7059.47  83.0186
 47.9956  7146.05  84.2309
 48.0376  7009.12  83.1882
 48.0796  7166.68  84.2471
 48.1216  7150.32  83.9711
 48.1636  7275.1  84.279
 48.2056  7101.79  83.531
 48.2476  7133.9  84.0268
 48.2896  7136.36  83.95
 48.3316  7060.85  83.4492
 48.3736  7073.21  83.5376
 48.4156  6984.93  82.8794
 48.4576  7055.72  83.5854
 48.4996  7209.87  83.9468
 48.5416  7121.88  83.7577
 48.5836  7129.83  83.487
 48.6256  7089.04  83.4525
 48.6676  6983.15  83.3289
 48.7096  7082.64  83.1943
 48.7516  7084.91  83.3578
 48.7936  6928.47  82.4941
 48.8356  7007.38  83.0126
 48.8776  7079.67  84.0074
 48.9196  7061.46  83.2666
 48.9616  6944.38  82.9557
 49.0036  6959.3  83.3881
 49.0456  6996.4  83.5988
 49.0876  6943.11  82.8112
 49.1296  6856.28  82.4535
 49.1716  6804.6  82.0217
 49.2136  6971.9  82.9402
 49.2556  6948.78  82.8426
 49.2976  6963.64  82.9826
 49.3396  6966.17  83.0628
 49.3816  7054.72  83.0297
 49.4236  6957.92  82.8726
 49.4656  6917.91  82.6573
 49.5076  7047.62  83.1727
 49.5496  6910.51  82.4169
 49.5916  6903.84  82.3
 49.6336  6885.95  82.3875
 49.6756  6999.26  83.3034
 49.7176  6953.42  82.9731
 49.7596  6966.02  82.8157
 49.8016  6904.44  82.3655
 49.8436  6869.23  82.452
 49.8856  6846.31  82.326
 49.9276  6770.06  81.9568
 49.9696  6868.95  82.5372
 50.0116  6855.7  82.586
 50.0536  6904.14  82.8279
 50.0956  6814.71  82.3537
 50.1376  6839.68  82.2134
 50.1796  6787.62  82.1669
 50.2216  6855.35  82.5665
 50.2636  6769.83  81.6765
 50.3056  6750.46  81.7252
 50.3476  6793.92  82.0173
 50.3896  6826.33  82.1848
 50.4316  6782.12  81.7529
 50.4736  6701.92  81.4861
 50.5156  6859.33  82.4252
 50.5576  6849.08  82.1235
 50.5996  6779.48  81.9856
 50.6416  6709.71  81.4883
 50.6836  6774.82  81.9464
 50.7256  6805.09  82.0558
 50.7676  6832.65  82.5259
 50.8096  6646.17  80.9416
 50.8516  6714.96  81.778
 50.8936  6689.21  81.3997
 50.9356  6829.82  82.3612
 50.9776  6738  81.961
 51.0196  6633.51  81.449
 51.0616  6614.6  80.6632
 51.1036  6789.85  82.0844
 51.1456  6724.07  81.5905
 51.1876  6810.51  81.4643
 51.2296  6807.78  82.0848
 51.2716  6686.68  81.0594
 51.3136  6696.92  81.5748
 51.3556  6661.49  80.9886
 51.3976  6647.79  81.0521
 51.4396  6469.28  80.2522
 51.4816  6576.99  80.7763
 51.5236  6619.87  81.1129
 51.5656  6637.1  80.8356
 51.6076  6684.97  81.2041
 51.6496  6577.34  80.7437
 51.6916  6598.21  81.2176
 51.7336  6580.66  81.2076
 51.7756  6608.29  81.0759
 51.8176  6688.01  81.6658
 51.8596  6614.41  81.231
 51.9016  6665.98  81.1597
 51.9436  6589.04  82.1319
 51.9856  6520.51  82.1298
 52.0276  6560.47  80.9112
 52.0696  6496.03  80.575
 52.1116  6570.16  81.1522
 52.1536  6524.85  80.7525
 52.1956  6690.67  81.2502
 52.2376  6607.34  80.9102
 52.2796  6577.71  80.5409
 52.3216  6347.53  79.7873
 52.3636  6559.58  80.6963
 52.4056  6482.03  80.0709
 52.4476  6498.95  80.5441
 52.4896  6450.27  80.2928
 52.5316  6573.95  81.1005
 52.5736  6574.04  80.8321
 52.6156  6502.59  80.758
 52.6576  6596.12  80.7945
 52.6996  6404.96  80.5722
 52.7416  6516.35  81.1202
 52.7836  6587.9  81.4363
 52.8256  6654.73  81.0789
 52.8676  6451.4  80.4025
 52.9096  6486.3  80.7059
 52.9516  6458.79  80.9007
 52.9936  6440.09  81.1607
 53.0356  6421.21  80.052
 53.0776  6300.33  79.5485
 53.1196  6315.18  79.7685
 53.1616  6394.92  80.3186
 53.2036  6358.51  80.0433
 53.2456  6350.92  80.0964
 53.2876  6374.78  79.9568
 53.3296  6326.65  79.9755
 53.3716  6373.79  80.0245
 53.4136  6389.98  80.2645
 53.4556  6390.79  80.3058
 53.4976  6317.45  79.6941
 53.5396  6380.64  80.4819
 53.5816  6390.67  80.1826
 53.6236  6196.79  79.2939
 53.6656  6308.03  79.6345
 53.7076  6405.04  80.2035
 53.7496  6318.63  79.7785
 53.7916  6378.55  80.2827
 53.8336  6305.32  79.7217
 53.8756  6223.94  79.7474
 53.9176  6352.34  79.9142
 53.9596  6382.01  80.8828
 54.0016  6323.73  79.8361
 54.0436  6349.8  80.2212
 54.0856  6286.84  79.2429
 54.1276  6331.96  79.7332
 54.1696  6318.34  79.8151
 54.2116  6461.13  80.4692
 54.2536  6312.65  79.3585
 54.2956  6349.5  79.6309
 54.3376  6248.01  79.4744
 54.3796  6298.5  79.6934
 54.4216  6368.61  80.1881
 54.4636  6309.59  79.7686
 54.5056  6382.77  80.0576
 54.5476  6302.65  79.8829
 54.5896  6362.81  80.0942
 54.6316  6381.95  80.0722
 54.6736  6408.89  80.3157
 54.7156  6384.11  80.1815
 54.7576  6253.77  79.3547
 54.7996  6375.55  80.2569
 54.8416  6380.65  80.3461
 54.8836  6183.94  79.2053
 54.9256  6218.33  79.1809
 54.9676  6364.09  79.9645
 55.0096  6251.39  79.316
 55.0516  6336.65  80.0876
 55.0936  6289.32  79.4199
 55.1356  6230.67  79.0918
 55.1776  6223.73  79.3105
 55.2196  6180.8  78.8236
 55.2616  6347.25  80.0878
 55.3036  6228.35  79.4984
 55.3456  6265.84  79.89
 55.3876  6256.44  79.5681
 55.4296  6248.1  79.4926
 55.4716  6252.42  79.5549
 55.5136  6221.94  79.1166
 55.5556  6209.35  79.1058
 55.5976  6151.93  78.7979
 55.6396  6133.93  78.6248
 55.6816  6248.87  79.2396
 55.7236  6227.82  79.156
 55.7656  6292.55  79.3183
 55.8076  6294.96  79.3185
 55.8496  6146.96  78.6918
 55.8916  6162.29  78.9949
 55.9336  6223.13  79.2068
 55.9756  6275.55  79.4267
 56.0176  6251.69  79.429
 56.0596  6199.29  79.0773
 56.1016  6277.77  79.5898
 56.1436  6246.05  79.6531
 56.1856  6304.12  79.7587
 56.2276  6234.87  79.3784
 56.2696  6288.02  79.6849
 56.3116  6265.27  79.9389
 56.3536  6288.2  79.7493
 56.3956  6192.75  79.1315
 56.4376  6226.47  79.3783
 56.4796  6267.55  79.445
 56.5216  6184.84  79.2909
 56.5636  6333.86  79.827
 56.6056  6127.71  78.746
 56.6476  6232.9  79.0463
 56.6896  6292.6  79.8702
 56.7316  6322.17  79.9794
 56.7736  6226.01  79.3574
 56.8156  6208.09  79.2416
 56.8576  6270.82  79.583
 56.8996  6278.82  79.5717
 56.9416  6138.13  78.9712
 56.9836  6103.8  78.2718
 57.0256  6094.94  78.5292
 57.0676  6143.94  78.9659
 57.1096  6226.26  79.284
 57.1516  6266.74  79.6103
 57.1936  6260.47  79.3103
 57.2356  6185.25  79.154
 57.2776  6172.05  79.0251
 57.3196  6173.77  79.4087
 57.3616  6222.93  79.2118
 57.4036  6177.7  78.9852
 57.4456  6147.84  78.7557
 57.4876  6120.48  78.4493
 57.5296  6140.18  78.9106
 57.5716  6137.89  78.8851
 57.6136  6211.32  79.1704
 57.6556  6148.81  78.9063
 57.6976  6250.32  79.3757
 57.7396  6129.39  78.984
 57.7816  6051.23  78.8287
 57.8236  6122.86  79.0949
 57.8656  6153.47  78.9491
 57.9076  6160.13  79.0208
 57.9496  6104.87  79.017
 57.9916  6138.95  78.7449
 58.0336  6077.72  78.6289
 58.0756  6205.44  79.0842
 58.1176  6174.29  78.8804
 58.1596  6097.69  78.9597
 58.2016  6257.31  79.2069
 58.2436  6170.48  79.066
 58.2856  6190.36  79.1158
 58.3276  6092.49  78.8573
 58.3696  6050.8  78.3303
 58.4116  6260.79  79.5466
 58.4536  6304.95  79.7072
 58.4956  6090.4  78.5253
 58.5376  6233.26  79.0056
 58.5796  6136.59  78.8212
 58.6216  6331.55  79.8736
 58.6636  6233.18  79.471
 58.7056  6030.63  78.0202
 58.7476  6049.92  78.5904
 58.7896  6156.35  78.9203
 58.8316  6091.53  78.4943
 58.8736  6123.09  78.708
 58.9156  6166.32  79.0292
 58.9576  6223.81  79.7274
 58.9996  6315.78  79.5326
 59.0416  6354.15  80.1606
 59.0836  6199.51  79.0991
 59.1256  6059.38  78.8898
 59.1676  6152.21  79.8111
 59.2096  6240.29  79.6913
 59.2516  6226.05  79.1749
 59.2936  6363.19  80.3789
 59.3356  6092.47  78.5277
 59.3776  6156.77  79.1117
 59.4196  6047.06  78.3395
 59.4616  6231.52  79.3831
 59.5036  6146.8  78.8772
 59.5456  6321.84  79.6788
 59.5876  6230.45  79.2949
 59.6296  6079.86  78.4002
 59.6716  6223.04  79.3768
 59.7136  6210.08  79.2822
 59.7556  6290.91  79.9358
 59.7976  5939.85  77.4177
 59.8396  6178.71  78.852
 59.8816  6155.25  79.2527
 59.9236  6133.01  78.7504
 59.9656  6190.97  79.3838
 60.0076  6291.34  79.3705
 60.0496  6138.69  78.9094
 60.0916  6273.95  79.1812
 60.1336  6020.96  78.6741
 60.1756  6136.8  80.6213
 60.1996  0.0000000E+00  0.0000000E+00