File: docs/examples/opeando_xrd/IS17_D/Data/IS17_D/17_Db_f00121.xye
# /beamlines/bl04/projects/cycle2025-II/20250340211-lsimonelli/DATA/IS17_D/17_Db_f00121.xye : mythproc.py merge -s 0.006 -l 0.5 -f /beamlines/bl04/inhouse/ff/FlatField/ff_20Nov2024rod8mm60s_17keV.raw -b True -c true -o xye /beamlines/bl04/projects/cycle2025-II/20250340211-lsimonelli/DATA/IS17_D/17_Db_00121.dat
# IsMon = [6762458, 6763307, 6768294]  IsPos = [-1.4999, -2.4884, -3.4988]
# Wave = 0.4962  CalPath /beamlines/bl04/projects/cycle2025-II/20250340211-lsimonelli/DATA/Align/Si_Pos1_25keV_f00001.cal
# Date = 2025-09-25_03:27:15 Dt = 4.8000  Bin = 0.0060  <imon> = 6764686 +/- 2574 (Min/Max) 6762458 / 6768294
# icurr 250.8557  mocoIn 1.7118E-05  mocoOut 0.8026  i15 7.09045e+06  imon 6.76469e+06  i7 6.3333  iEMpd_timer 4.8000  iEMpd_1 3.4969E-08  iEMpd_2 7.9639E-08  iEMpd_3 1.7965E-08  iEMpd_4 4.9217E-08  iEMhp_timer 4.8000  iEMhp_1 4.9011E-06  iEMhp_2 -2.4931E-08  iEMhp_3 -2.4469E-08  iEMhp_4 -2.1586E-08
#      9776
 1.5856  44591.6  216.871
 1.6276  51301.8  228.625
 1.6696  56637.7  239.374
 1.7116  64430.7  255.811
 1.7536  71757.2  268.813
 1.7956  75881.2  277.121
 1.8376  72759.1  271.79
 1.8796  62793.9  250.641
 1.9216  52410  229.889
 1.9636  44848.3  211.787
 2.0056  41289.4  202.423
 2.0476  38545  197.724
 2.0896  36844.8  192.18
 2.1316  36038.5  189.152
 2.1736  34414.9  186.309
 2.2156  34794.5  185.83
 2.2576  33410  182.749
 2.2996  32255  180.22
 2.3416  32529.9  179.541
 2.3836  32168.9  178.653
 2.4256  31087.6  176.197
 2.4676  30270.5  173.62
 2.5096  30505.8  174.35
 2.5516  29104.9  174.214
 2.5936  28776.5  169.744
 2.6356  28487.7  169.586
 2.6776  28449.8  168.368
 2.7196  27978.9  167.463
 2.7616  27913.3  167.06
 2.8036  27345  165.507
 2.8456  27432.8  166.429
 2.8876  26772.6  164.274
 2.9296  26368.2  163.158
 2.9716  26264  162.321
 3.0136  25693.3  160.615
 3.0556  26070.4  162.187
 3.0976  25978.3  160.776
 3.1396  25745.5  160.795
 3.1816  25496.1  159.966
 3.2236  25274.3  159.267
 3.2656  25058.4  157.612
 3.3076  25025.9  159
 3.3496  25083.2  158.089
 3.3916  25560.8  159.414
 3.4336  25806.9  160.772
 3.4756  26310.6  162.272
 3.5176  26924.1  163.919
 3.5596  26693.3  165.686
 3.6016  26614.4  163.02
 3.6436  25869.2  161.845
 3.6856  25465.6  158.856
 3.7276  24530.9  157.012
 3.7696  24353.4  156.618
 3.8116  23875.1  154.978
 3.8536  24159  155.827
 3.8956  24058.1  155.32
 3.9376  23975.6  155.326
 3.9796  23966.6  154.78
 4.0216  23798.3  153.263
 4.0636  23752.5  154.587
 4.1056  23671.3  153.986
 4.1476  24059.2  155.559
 4.1896  24227.6  155.946
 4.2316  24308.2  156.024
 4.2736  24764.1  157.291
 4.3156  24823.6  157.698
 4.3576  25532.2  159.834
 4.3996  25742.9  160.787
 4.4416  26331.3  162.19
 4.4836  26656.3  163.357
 4.5256  27243.8  165.759
 4.5676  27286.2  166.139
 4.6096  27632.8  165.839
 4.6516  28025.3  166.704
 4.6936  28178.4  167.987
 4.7356  28207  167.906
 4.7776  28346.1  168.137
 4.8196  28023.1  167.845
 4.8616  27440  165.576
 4.9036  27483.7  165.435
 4.9456  27195.6  165.225
 4.9876  26665.6  163.503
 5.0296  26902.2  164.067
 5.0716  26715.8  164.25
 5.1136  26706.1  163.947
 5.1556  27075.9  164.522
 5.1976  27417.7  165.564
 5.2396  27604  165.811
 5.2816  27611.4  166.314
 5.3236  27772.5  166.484
 5.3656  27330.5  166.094
 5.4076  26975.6  165.153
 5.4496  26939  164.531
 5.4916  27192.9  165.054
 5.5336  27092.2  164.755
 5.5756  27352.2  165.561
 5.6176  27075.3  164.149
 5.6596  27400.1  166.143
 5.7016  27486.8  165.654
 5.7436  27726.8  166.661
 5.7856  27591.5  166.32
 5.8276  27698.3  166.348
 5.8696  28161.2  167.911
 5.9116  27913.8  167.781
 5.9536  28373.9  168.892
 5.9956  28410.9  168.393
 6.0376  28545.9  169.416
 6.0796  28659.6  169.577
 6.1216  28609.4  169.627
 6.1636  28831.8  169.345
 6.2056  28627.3  169.417
 6.2476  28987.7  170.352
 6.2896  29264.8  170.846
 6.3316  29393.6  171.395
 6.3736  29416.6  171.349
 6.4156  29575.5  171.706
 6.4576  29425.6  170.88
 6.4996  29630.7  171.953
 6.5416  29749.7  172.435
 6.5836  29579  172.172
 6.6256  29700.4  172.083
 6.6676  30259.6  173.261
 6.7096  30307.8  174.27
 6.7516  30470  174.389
 6.7936  30828.3  174.806
 6.8356  30883.4  175.059
 6.8776  30933.9  176
 6.9196  31298.6  177.447
 6.9616  31596.4  177.733
 7.0036  31973.8  178.437
 7.0456  31895  177.512
 7.0876  31795  178.932
 7.1296  31981.2  178.574
 7.1716  32083.7  178.397
 7.2136  31766.2  177.297
 7.2556  31933.8  177.911
 7.2976  32109.7  178.908
 7.3396  31915.1  178.591
 7.3816  31875.7  178.694
 7.4236  32178  178.825
 7.4656  32274.7  178.559
 7.5076  32782.7  180.115
 7.5496  32393.1  179.559
 7.5916  32567.1  180.101
 7.6336  32980.1  181.126
 7.6756  33167.6  181.487
 7.7176  33701.4  183.279
 7.7596  33453.9  183.83
 7.8016  34039.4  187.698
 7.8436  33532.1  182.918
 7.8856  34056  183.955
 7.9276  34433.8  185.359
 7.9696  34637.9  186.229
 8.0116  35486.9  187.039
 8.0536  35526.8  187.376
 8.0956  35611.3  188.809
 8.1376  35961.9  189.195
 8.1796  36572.3  191.339
 8.2216  36954.1  191.066
 8.2636  37250.7  192.087
 8.3056  37230.6  192.795
 8.3476  37855.8  193.736
 8.3896  37249.6  192.265
 8.4316  37696.5  193.581
 8.4736  37683.4  193.017
 8.5156  37199.1  192.048
 8.5576  37325.1  193.358
 8.5996  37174.1  191.829
 8.6416  37060.3  192.808
 8.6836  36555.8  191.302
 8.7256  37383.6  192.923
 8.7676  36961.6  194.745
 8.8096  37716.3  193.994
 8.8516  37218.1  192.269
 8.8936  36857.6  191.298
 8.9356  37170.9  192.45
 8.9776  37403.7  193.123
 9.0196  37376.9  192.737
 9.0616  36888.3  190.959
 9.1036  36510.4  191.153
 9.1456  36423.5  190.236
 9.1876  36754.8  191.058
 9.2296  36233.5  189.115
 9.2716  36033.5  188.643
 9.3136  36156.8  188.968
 9.3556  36512  189.865
 9.3976  35114.3  186.727
 9.4396  35323.7  187.176
 9.4816  35240.4  186.821
 9.5236  34903.3  185.811
 9.5656  34680.2  185.574
 9.6076  34062.4  184.437
 9.6496  34007.3  184.18
 9.6916  33848.4  183.698
 9.7336  34104.7  184.188
 9.7756  33760.5  184.515
 9.8176  33696.8  183.885
 9.8596  33692  182.294
 9.9016  33413.8  181.529
 9.9436  33316.4  181.188
 9.9856  32777.3  179.989
 10.0276  32386.8  180.002
 10.0696  32637.4  179.714
 10.1116  31763.5  177.565
 10.1536  31639  177.367
 10.1956  31099.5  175.46
 10.2376  31115.4  175.015
 10.2796  30992.5  174.78
 10.3216  30487.7  173.638
 10.3636  30618.6  174.041
 10.4056  29557.2  171.394
 10.4476  30124  172.635
 10.4896  30106.7  172.036
 10.5316  29545.9  171.154
 10.5736  29452.7  171.302
 10.6156  29209.2  170.343
 10.6576  29045.8  168.425
 10.6996  28800.9  168.419
 10.7416  28408.4  167.483
 10.7836  28077.7  167.16
 10.8256  27784.4  166.712
 10.8676  27727.2  166.082
 10.9096  27650.7  165.88
 10.9516  27328.7  163.852
 10.9936  27360.1  164.156
 11.0356  27216.6  164.342
 11.0776  26947.4  162.857
 11.1196  26506.7  162.284
 11.1616  26234.2  161.115
 11.2036  26504.8  161.798
 11.2456  26522.3  162.568
 11.2876  26688.9  162.797
 11.3296  26119.4  160.958
 11.3716  26740.2  162.541
 11.4136  26529.5  162.798
 11.4556  26841.6  163.389
 11.4976  27228  163.554
 11.5396  27490  164.513
 11.5816  27491.1  164.965
 11.6236  26717.5  162.866
 11.6656  26948.2  162.707
 11.7076  25827.3  160.119
 11.7496  25499.3  163.134
 11.7916  25566.5  158.556
 11.8336  25016.4  157.721
 11.8756  25031.3  157.331
 11.9176  25018  156.962
 11.9596  25106.2  157.413
 12.0016  24665  156.797
 12.0436  25031  157.399
 12.0856  24517.1  156.271
 12.1276  24511.2  156.207
 12.1696  24450.4  155.12
 12.2116  24492.1  155.253
 12.2536  24143.5  154.96
 12.2956  24135.6  154.279
 12.3376  24333.6  155.121
 12.3796  24237.8  155.3
 12.4216  24251  154.529
 12.4636  23798.2  154.017
 12.5056  24226.5  154.658
 12.5476  24269.7  154.3
 12.5896  23928  153.856
 12.6316  24208.1  154.919
 12.6736  23781.6  154.029
 12.7156  24143.6  155.037
 12.7576  24071.4  155.054
 12.7996  24191.9  154.078
 12.8416  23933.6  154.309
 12.8836  24131.3  154.774
 12.9256  24691.6  155.587
 12.9676  24536.2  155.498
 13.0096  24824.3  157.548
 13.0516  24497.8  155.52
 13.0936  25032.8  157.636
 13.1356  25057.4  156.657
 13.1776  24622.1  156.317
 13.2196  24761.8  156.401
 13.2616  24517.2  155.934
 13.3036  24772.7  156.719
 13.3456  24457.7  156.063
 13.3876  24840  156.563
 13.4296  24578  155.889
 13.4716  24921.2  156.593
 13.5136  24739.9  156.155
 13.5556  24743.6  156.805
 13.5976  24675.4  156.759
 13.6396  24690.3  156.153
 13.6816  24738.5  156.788
 13.7236  25316  158.181
 13.7656  26708.7  162.939
 13.8076  27255.9  163.243
 13.8496  26940.5  162.94
 13.8916  25071.3  158.36
 13.9336  24209.5  154.88
 13.9756  24436.5  154.978
 14.0176  24060.8  154.465
 14.0596  24038.7  154.331
 14.1016  24200.8  155.273
 14.1436  24141.3  154.206
 14.1856  23284.3  151.734
 14.2276  23303.8  152.289
 14.2696  23305.1  152.14
 14.3116  22934.5  150.828
 14.3536  22609.4  149.918
 14.3956  22776  150.202
 14.4376  22942.5  150.529
 14.4796  22758.5  149.926
 14.5216  22437.5  149.652
 14.5636  22205.1  148.448
 14.6056  22430.8  148.758
 14.6476  22316.7  147.621
 14.6896  21874.3  146.694
 14.7316  21492.9  146.446
 14.7736  21463  145.489
 14.8156  21175.9  144.522
 14.8576  21328.3  144.902
 14.8996  20847.8  144.463
 14.9416  20443  143.065
 14.9836  20507.1  143.268
 15.0256  19910.2  140.079
 15.0676  19993  140.684
 15.1096  19794.4  139.723
 15.1516  19506  139.263
 15.1936  19385.8  138.257
 15.2356  19174.3  137.776
 15.2776  19094.8  137.083
 15.3196  18759  136.857
 15.3616  18677  136.307
 15.4036  18611.5  135.941
 15.4456  18869.8  136.529
 15.4876  18452.4  134.699
 15.5296  18445.8  134.969
 15.5716  18193  133.637
 15.6136  18130  133.738
 15.6556  17960.1  132.347
 15.6976  17989.9  132.761
 15.7396  17784.1  132.366
 15.7816  17615.1  131.264
 15.8236  17476.1  131.42
 15.8656  17634.4  131.82
 15.9076  17278.3  130.306
 15.9496  18181.8  136.526
 15.9916  17764  135.341
 16.0336  17984.9  133.031
 16.0756  17945.3  133.197
 16.1176  17625.4  132.082
 16.1596  17180.4  131.583
 16.2016  16928  129.371
 16.2436  17008.9  130.069
 16.2856  17127.3  130.03
 16.3276  16731.8  128.972
 16.3696  17012.7  129.868
 16.4116  16932.7  129.992
 16.4536  16857.7  129.525
 16.4956  17040.2  129.967
 16.5376  16657.4  128.681
 16.5796  16597.1  127.805
 16.6216  16852.6  129.055
 16.6636  16448.5  127.682
 16.7056  16711.8  128.57
 16.7476  16765.1  128.299
 16.7896  16496  128.012
 16.8316  16638.9  128.544
 16.8736  16775.6  129.338
 16.9156  16777.7  129.669
 16.9576  16472.5  129.297
 16.9996  16554.9  130.084
 17.0416  16704.1  129.051
 17.0836  16603.8  128.424
 17.1256  16365  127.503
 17.1676  16373.5  127.488
 17.2096  16209.5  126.754
 17.2516  16158.1  126.344
 17.2936  16131  126.587
 17.3356  16019.1  126.131
 17.3776  15869.5  125.731
 17.4196  15677.2  124.659
 17.4616  15837.7  125.204
 17.5036  15288  123.38
 17.5456  15621.2  125.346
 17.5876  15417.9  123.575
 17.6296  15401.4  123.341
 17.6716  15462.1  124.175
 17.7136  15352.5  123.855
 17.7556  15232.4  123.673
 17.7976  15282.1  123.601
 17.8396  15055.5  122.188
 17.8816  14948.6  122.319
 17.9236  14823.7  121.599
 17.9656  14916.2  122.489
 18.0076  14935.8  122.151
 18.0496  14900.4  121.144
 18.0916  14840.5  121.447
 18.1336  14634.4  120.697
 18.1756  14978.1  121.654
 18.2176  14635.5  120.466
 18.2596  14535.4  119.783
 18.3016  14720.7  120.805
 18.3436  14620  120.401
 18.3856  14528.2  120.154
 18.4276  14578.4  120.044
 18.4696  14478  119.708
 18.5116  14604.9  120.518
 18.5536  14519.1  120.506
 18.5956  14235.1  118.892
 18.6376  14277.5  119.487
 18.6796  14341.9  119.061
 18.7216  14391.2  119.758
 18.7636  14343.4  119.566
 18.8056  14238.1  119.053
 18.8476  14029.8  118.796
 18.8896  14263.5  119.113
 18.9316  14222  118.919
 18.9736  14240.7  118.698
 19.0156  14100.4  118.537
 19.0576  14284.4  118.15
 19.0996  14291.1  118.888
 19.1416  14156.6  118.734
 19.1836  14287.9  118.881
 19.2256  14057.8  118.142
 19.2676  14099.9  118.4
 19.3096  14080  118.565
 19.3516  13987.3  118.133
 19.3936  14041.8  118.263
 19.4356  14211.3  118.849
 19.4776  14128.7  118.596
 19.5196  14069.5  118.2
 19.5616  14087.9  118.539
 19.6036  13934.5  117.379
 19.6456  13999.9  117.778
 19.6876  14066.9  117.693
 19.7296  14337.5  119.292
 19.7716  14017.8  118.129
 19.8136  14326.7  119.619
 19.8556  14462.2  119.662
 19.8976  14349.2  119.246
 19.9396  14456.1  119.276
 19.9816  14590.6  120.079
 20.0236  15001.5  121.947
 20.0656  15045  122.132
 20.1076  15009.5  122.488
 20.1496  14539.3  120.551
 20.1916  14451  119.694
 20.2336  14281.1  118.901
 20.2756  13900.3  117.746
 20.3176  13756.9  116.879
 20.3596  13588.8  116.152
 20.4016  13617.3  116.078
 20.4436  13592.6  116.526
 20.4856  13647  116.562
 20.5276  13527.3  116.509
 20.5696  13592.1  116.235
 20.6116  13367.9  115.544
 20.6536  13482.1  115.548
 20.6956  13385.6  115.265
 20.7376  13259.6  114.934
 20.7796  13418.5  115.311
 20.8216  13357.2  114.757
 20.8636  13449.5  115.537
 20.9056  13244.4  114.585
 20.9476  13338.3  114.842
 20.9896  13348.9  114.738
 21.0316  13141.5  113.745
 21.0736  13249.5  114.741
 21.1156  13156.4  114.492
 21.1576  13184.6  114.653
 21.1996  13040.5  114.022
 21.2416  13183  114.471
 21.2836  12974.4  113.53
 21.3256  13103.1  114.158
 21.3676  13089.7  113.636
 21.4096  12957.8  113.391
 21.4516  12928.4  113.135
 21.4936  12696  112.378
 21.5356  12939.3  113.394
 21.5776  12962.8  113.325
 21.6196  12824.7  112.765
 21.6616  12735.3  112.445
 21.7036  12969.4  113.242
 21.7456  12896.7  113.002
 21.7876  12789.4  112.304
 21.8296  12920.9  112.72
 21.8716  12799.4  112.42
 21.9136  12883.7  112.99
 21.9556  12686  111.797
 21.9976  12722.8  111.99
 22.0396  12703.2  112.158
 22.0816  12613.1  112.279
 22.1236  12873.4  112.896
 22.1656  12791.7  112.673
 22.2076  12516.1  110.911
 22.2496  12460.7  110.698
 22.2916  12566.5  111.047
 22.3336  12514  111.54
 22.3756  12510.7  111.24
 22.4176  12433.5  110.752
 22.4596  12126.9  109.952
 22.5016  12393.2  110.667
 22.5436  12505.8  111.034
 22.5856  12701.8  112.156
 22.6276  12733  112.434
 22.6696  12355.8  111.106
 22.7116  12424.1  110.929
 22.7536  12412.3  110.847
 22.7956  12522.7  110.679
 22.8376  12274  110.076
 22.8796  12413.9  110.511
 22.9216  12520.4  111.523
 22.9636  12478.7  110.497
 23.0056  12503.8  110.739
 23.0476  12473.5  111.18
 23.0896  12745.5  111.758
 23.1316  12482  111.031
 23.1736  12662.1  114.799
 23.2156  12869.2  113.07
 23.2576  12886.4  113.29
 23.2996  12754.4  112.471
 23.3416  12802.3  113.222
 23.3836  12800.3  112.433
 23.4256  12900.5  113.003
 23.4676  12647.1  111.569
 23.5096  12779.1  112.806
 23.5516  12569.6  111.185
 23.5936  12724.1  112.786
 23.6356  12890.4  113.178
 23.6776  12588.3  112.042
 23.7196  12473.8  111.125
 23.7616  12649.3  111.815
 23.8036  12825.4  112.659
 23.8456  12471.2  110.631
 23.8876  12442.5  110.872
 23.9296  12499.2  111.609
 23.9716  12684.2  111.626
 24.0136  12333.3  110.974
 24.0556  12256.2  110.341
 24.0976  12204.5  109.921
 24.1396  12218  112.63
 24.1816  12408.9  111.901
 24.2236  12350.5  111.266
 24.2656  12188.9  110.009
 24.3076  12145.6  110.086
 24.3496  12102.1  109.764
 24.3916  12053.1  109.592
 24.4336  12108.8  110.055
 24.4756  12148.3  110.116
 24.5176  11945.6  108.818
 24.5596  11909.2  108.772
 24.6016  11817.9  108.66
 24.6436  11959.7  108.81
 24.6856  11787.2  107.755
 24.7276  11646.6  107.445
 24.7696  11888.2  108.665
 24.8116  11630.1  107.654
 24.8536  11703  107.998
 24.8956  11708.2  107.751
 24.9376  11524.5  106.833
 24.9796  11492.4  107.036
 25.0216  11507.5  107.232
 25.0636  11715.4  107.843
 25.1056  11468.4  107.399
 25.1476  11365  108.549
 25.1896  11292  106.707
 25.2316  11242.7  105.741
 25.2736  11367.5  105.975
 25.3156  11311.7  105.792
 25.3576  11240.7  105.898
 25.3996  11199.6  105.689
 25.4416  11231.8  105.817
 25.4836  10990  105.181
 25.5256  11244.3  105.754
 25.5676  11159.2  105.088
 25.6096  10934.9  104.599
 25.6516  11207.2  105.395
 25.6936  11064.1  105.037
 25.7356  10988.4  104.807
 25.7776  11102.8  104.948
 25.8196  10900.9  104.235
 25.8616  10963.8  104.453
 25.9036  11149  104.785
 25.9456  10972.1  104.556
 25.9876  10891  104.232
 26.0296  11139.5  104.93
 26.0716  11036.9  104.873
 26.1136  11039.2  104.811
 26.1556  11050.5  104.242
 26.1976  10883.7  104.384
 26.2396  10859.4  103.415
 26.2816  10849.9  103.993
 26.3236  10930.1  104.53
 26.3656  11143.5  105.267
 26.4076  10884.5  104.232
 26.4496  11151.4  105.095
 26.4916  11297.4  105.672
 26.5336  11450.4  106.737
 26.5756  11639  107.485
 26.6176  10997.3  104.491
 26.6596  10905.1  104.372
 26.7016  10899.6  104.109
 26.7436  10956.8  104.518
 26.7856  10787.3  103.676
 26.8276  10752.4  103.487
 26.8696  10709.4  103.144
 26.9116  10681.6  102.954
 26.9536  10631.2  102.754
 26.9956  10570.1  102.494
 27.0376  10629.1  103.013
 27.0796  10553.1  102.364
 27.1216  10520  102.263
 27.1636  10430.5  101.99
 27.2056  10453.2  101.988
 27.2476  10463.3  102.022
 27.2896  10377  101.724
 27.3316  10443.6  101.764
 27.3736  10411.8  101.883
 27.4156  10374.9  101.542
 27.4576  10420  101.983
 27.4996  10435.1  101.669
 27.5416  10367.5  101.648
 27.5836  10368.3  101.48
 27.6256  10365.6  101.65
 27.6676  10297.9  101.3
 27.7096  10336.5  101.381
 27.7516  10198.5  100.844
 27.7936  10545.4  102.7
 27.8356  10395  101.564
 27.8776  10427.3  101.797
 27.9196  10235.3  100.71
 27.9616  10289.7  101.176
 28.0036  10288.6  101.133
 28.0456  10124  100.455
 28.0876  10106.5  100.458
 28.1296  10186.5  100.684
 28.1716  10203.9  100.794
 28.2136  10195  100.713
 28.2556  10184.6  100.775
 28.2976  9999.94  99.8502
 28.3396  10030.7  99.7585
 28.3816  10028.7  99.7639
 28.4236  9915.42  99.3488
 28.4656  9912.96  99.3727
 28.5076  9879.52  98.8511
 28.5496  10023.3  99.8255
 28.5916  10066.6  99.8539
 28.6336  10052.4  100.126
 28.6756  10078.6  99.4487
 28.7176  9957  99.4058
 28.7596  9816.67  98.5962
 28.8016  9997.48  99.5412
 28.8436  9743.3  98.5027
 28.8856  9923.29  99.2626
 28.9276  9924.36  99.5157
 28.9696  9723.01  98.1497
 29.0116  9806.73  98.7594
 29.0536  9760.87  98.7381
 29.0956  9788.11  98.5747
 29.1376  9755.02  98.3792
 29.1796  9864.69  98.9891
 29.2216  9741.87  98.2013
 29.2636  9830.25  98.7239
 29.3056  9644.62  97.569
 29.3476  9711.61  98.4362
 29.3896  9750  98.7433
 29.4316  9593.38  97.2754
 29.4736  9535.02  97.0395
 29.5156  9549.83  97.0433
 29.5576  9510.33  97.5797
 29.5996  9498.68  96.7801
 29.6416  9525.08  97.0362
 29.6836  9559.39  97.1358
 29.7256  9542.6  97.6129
 29.7676  9416.55  96.6227
 29.8096  9458.98  96.78
 29.8516  9284.22  96.2146
 29.8936  9358.32  96.6965
 29.9356  9500.23  97.1828
 29.9776  9390.09  96.7676
 30.0196  9337.56  95.8959
 30.0616  9256.67  95.8451
 30.1036  9501.3  96.935
 30.1456  9387.52  96.571
 30.1876  9315.28  96.1919
 30.2296  9276.49  95.9288
 30.2716  9382.51  96.1206
 30.3136  9578  97.9788
 30.3556  9557.37  97.8883
 30.3976  9481.79  98.9873
 30.4396  9837.58  98.1525
 30.4816  9798.88  97.5465
 30.5236  9638.86  96.7559
 30.5656  9681.17  97.6268
 30.6076  9673.24  96.9994
 30.6496  9644.01  97.2583
 30.6916  9401.3  96.1071
 30.7336  9453.41  96.5228
 30.7756  9610.6  97.4093
 30.8176  9593.07  97.2485
 30.8596  9585.38  96.9586
 30.9016  9481.47  96.7802
 30.9436  9600.89  97.1298
 30.9856  9665.77  97.595
 31.0276  9544.01  96.5985
 31.0696  9380.88  96.3284
 31.1116  9463.43  96.7124
 31.1536  9295.89  95.7325
 31.1956  9230.7  95.4929
 31.2376  9217.42  95.4441
 31.2796  9430.98  96.0835
 31.3216  9572.95  96.7343
 31.3636  9527.26  97.2111
 31.4056  9463.58  98.196
 31.4476  9458.53  96.0822
 31.4896  9405.86  96.3094
 31.5316  9373.97  95.5552
 31.5736  9465.95  95.8558
 31.6156  9507.95  96.075
 31.6576  9452.8  95.8604
 31.6996  9501.58  95.7844
 31.7416  9352.3  96.1251
 31.7836  9405.12  95.3883
 31.8256  9439.98  95.8359
 31.8676  9562.83  96.463
 31.9096  9298.98  95.4739
 31.9516  9217.23  95.2296
 31.9936  9187.45  94.8931
 32.0356  9424.05  96.1612
 32.0776  9292.25  95.3752
 32.1196  9415.34  96.1147
 32.1616  9338.81  95.1669
 32.2036  9358.57  95.7849
 32.2456  9298.59  95.8524
 32.2876  9477.83  96.2724
 32.3296  9284.69  95.2424
 32.3716  9024.37  94.0048
 32.4136  8986.03  93.9973
 32.4556  9081.09  93.8892
 32.4976  9087.65  93.8266
 32.5396  9161.08  94.2718
 32.5816  9118.64  94.1861
 32.6236  9106.5  94.1879
 32.6656  9190.67  95.1664
 32.7076  9020.98  93.9313
 32.7496  9154.16  94.2997
 32.7916  9045.55  93.6959
 32.8336  9014.61  93.6358
 32.8756  9093.08  93.7539
 32.9176  8882.89  93.153
 32.9596  9064.25  94.1681
 33.0016  8985.38  93.5192
 33.0436  9089.15  94.2278
 33.0856  8824.86  92.96
 33.1276  8825.07  92.6946
 33.1696  8999.98  93.43
 33.2116  8979.5  93.5703
 33.2536  9071.26  94.0293
 33.2956  8960.87  93.5391
 33.3376  8929.21  93.1157
 33.3796  9014.48  93.7776
 33.4216  8933.34  92.9377
 33.4636  8976.74  93.328
 33.5056  8752.6  92.402
 33.5476  8874.25  93.0177
 33.5896  8963.49  93.2797
 33.6316  8833.92  92.9026
 33.6736  8725.96  92.5859
 33.7156  8817.73  93.1007
 33.7576  8946.25  93.4175
 33.7996  8928.72  93.0769
 33.8416  8726.42  92.2117
 33.8836  8816.99  92.4602
 33.9256  8968.41  93.3086
 33.9676  8837.88  92.5231
 34.0096  8752.4  92.3902
 34.0516  8699.39  91.7416
 34.0936  8687.72  91.9587
 34.1356  8844.16  92.5193
 34.1776  8647.36  91.4816
 34.2196  8807.7  92.5097
 34.2616  8635.29  91.746
 34.3036  8764.33  92.6723
 34.3456  8649.23  91.8102
 34.3876  8730.12  92.2168
 34.4296  8613.33  91.2867
 34.4716  8819.65  92.5191
 34.5136  8689.1  92.0375
 34.5556  8603.41  91.8273
 34.5976  8661.38  91.9492
 34.6396  8640.41  91.555
 34.6816  8714.28  92.0474
 34.7236  8679.76  91.6463
 34.7656  8642.12  91.6556
 34.8076  8544.5  91.4665
 34.8496  8538.69  91.2806
 34.8916  8598.59  91.4665
 34.9336  8726.96  92.1215
 34.9756  8642.79  91.6021
 35.0176  8690.06  92.3822
 35.0596  8780.07  92.6803
 35.1016  8718.82  92.1135
 35.1436  8788.95  92.1651
 35.1856  8653.12  91.5643
 35.2276  8635.23  91.6531
 35.2696  8597.26  91.6477
 35.3116  8505.85  91.2583
 35.3536  8648.73  91.7228
 35.3956  8584.27  91.0948
 35.4376  8633  91.9262
 35.4796  8607.47  91.8238
 35.5216  8495.94  91.1885
 35.5636  8370.74  91.255
 35.6056  8489.33  90.9162
 35.6476  8626.92  91.557
 35.6896  8603.22  91.5261
 35.7316  8508.36  90.9918
 35.7736  8444.14  90.8236
 35.8156  8558.09  91.445
 35.8576  8557.23  91.6938
 35.8996  8518.94  91.4477
 35.9416  8550.97  91.1328
 35.9836  8529.3  91.3547
 36.0256  8595.25  91.7136
 36.0676  8645.25  91.7421
 36.1096  8600.03  91.6463
 36.1516  8546.94  91.2543
 36.1936  8566.05  91.1981
 36.2356  8319.87  90.5322
 36.2776  8337.21  90.0962
 36.3196  8508.53  90.6883
 36.3616  8482.67  90.6845
 36.4036  8419.14  90.4061
 36.4456  8428.78  90.6755
 36.4876  8310.87  89.9727
 36.5296  8376.45  90.3701
 36.5716  8361.84  91.0656
 36.6136  8383.47  89.9601
 36.6556  8328.95  89.8604
 36.6976  8098.15  89.1021
 36.7396  8024.05  88.4281
 36.7816  8077.47  89.0953
 36.8236  8133.93  89.3332
 36.8656  8102.98  89.232
 36.9076  8072.46  88.9455
 36.9496  7994.39  88.4936
 36.9916  8109.17  88.7596
 37.0336  8183.56  89.4791
 37.0756  8176.82  89.2398
 37.1176  8077.9  88.965
 37.1596  7949.66  88.2598
 37.2016  8179.02  89.7476
 37.2436  8155.62  88.9432
 37.2856  8030.99  88.5125
 37.3276  8215.88  88.8782
 37.3696  8101.6  89.1421
 37.4116  8042.59  88.7149
 37.4536  8061.65  88.6864
 37.4956  7952.37  88.1204
 37.5376  8239.02  91.3014
 37.5796  8199.26  91.0124
 37.6216  8003.68  88.1944
 37.6636  8278.98  89.5936
 37.7056  8127.52  88.9544
 37.7476  8268.03  89.2681
 37.7896  8106.17  88.8869
 37.8316  8209.07  89.6129
 37.8736  8212.65  89.1436
 37.9156  8180.14  88.9582
 37.9576  8281.82  89.4364
 37.9996  8122.64  88.2831
 38.0416  8069.67  88.8024
 38.0836  8241.13  89.6441
 38.1256  7955.69  88.0506
 38.1676  8073.56  88.8082
 38.2096  8254.24  89.4222
 38.2516  8143.85  89.0344
 38.2936  8222.28  89.2653
 38.3356  8082.43  88.4224
 38.3776  7891.11  87.6241
 38.4196  8060.12  88.407
 38.4616  8036.27  88.5309
 38.5036  8217.79  89.3665
 38.5456  8022.36  89.1308
 38.5876  7951.52  88.7564
 38.6296  8022.99  88.137
 38.6716  8096.83  88.3458
 38.7136  8122.41  88.4286
 38.7556  7970.46  88.1022
 38.7976  8115.68  88.8275
 38.8396  7926.03  88.243
 38.8816  7978.65  88.3309
 38.9236  7882.58  87.598
 38.9656  7982.9  88.0658
 39.0076  8123.62  88.2306
 39.0496  8167.18  89.0297
 39.0916  8133.21  88.4843
 39.1336  8020.24  88.279
 39.1756  7925.16  87.8204
 39.2176  7987.43  88.699
 39.2596  8165.78  89.6047
 39.3016  8002.18  88.2873
 39.3436  7961.03  88.4714
 39.3856  8045.66  88.386
 39.4276  8184.81  89.6579
 39.4696  8018.12  88.3598
 39.5116  8067.57  89.1477
 39.5536  7990.29  89.1319
 39.5956  8017.24  88.3845
 39.6376  7961.93  88.0711
 39.6796  8017.41  88.1245
 39.7216  7951.93  87.8617
 39.7636  7926.11  88.2833
 39.8056  8020.04  88.5916
 39.8476  7964.89  88.5416
 39.8896  7984.8  88.2902
 39.9316  7843.12  87.7377
 39.9736  8042.92  88.4271
 40.0156  7900.11  87.469
 40.0576  7909.18  87.8704
 40.0996  8068.57  87.9308
 40.1416  7986.17  88.2728
 40.1836  8116.7  88.8814
 40.2256  8059.4  88.5963
 40.2676  8058.57  88.7049
 40.3096  8019.98  88.4275
 40.3516  8001.99  88.4315
 40.3936  8109.6  88.5738
 40.4356  7938.36  87.8479
 40.4776  8050.18  88.865
 40.5196  7955.4  88.4589
 40.5616  8188.75  89.3954
 40.6036  7967.08  88.4331
 40.6456  8003.24  88.2352
 40.6876  8162.11  89.1053
 40.7296  8005.56  88.376
 40.7716  8040.44  88.6876
 40.8136  7942.55  88.0993
 40.8556  8140.41  89.3209
 40.8976  8042.03  88.7078
 40.9396  8012.58  88.8819
 40.9816  8125.85  88.8007
 41.0236  7956.13  87.6395
 41.0656  7998.34  88.4179
 41.1076  8014.66  88.274
 41.1496  7989.16  88.0462
 41.1916  7929.54  88.0341
 41.2336  8028.21  88.5857
 41.2756  7962.25  87.8149
 41.3176  8092.13  89.1382
 41.3596  8020.65  88.489
 41.4016  7922.36  88.1962
 41.4436  7980.31  88.309
 41.4856  7941.59  88.2588
 41.5276  8083.87  89.0611
 41.5696  7952.28  87.9662
 41.6116  8078.68  89.0582
 41.6536  8005.37  88.511
 41.6956  8105.13  89.122
 41.7376  7974.81  88.4262
 41.7796  7895.85  87.8644
 41.8216  8128.96  89.3932
 41.8636  8018.12  88.7238
 41.9056  7888.74  87.799
 41.9476  7958.55  88.4209
 41.9896  8092.62  88.8268
 42.0316  8076.42  88.824
 42.0736  8039.84  88.7271
 42.1156  7967.58  88.1501
 42.1576  8046.53  88.6982
 42.1996  7973.02  88.4216
 42.2416  7986.21  88.0808
 42.2836  7893.02  87.6874
 42.3256  7994.03  88.3491
 42.3676  8081.77  88.6468
 42.4096  8057.52  88.479
 42.4516  7998.37  88.2368
 42.4936  7898.66  87.7423
 42.5356  7840.43  87.559
 42.5776  7996.58  88.3728
 42.6196  8016.16  88.5367
 42.6616  7813.64  87.5848
 42.7036  7937.98  87.6532
 42.7456  7967.8  88.1816
 42.7876  7933.92  88.085
 42.8296  7890.19  87.6749
 42.8716  7808.72  87.3761
 42.9136  7836.39  87.3286
 42.9556  7901.44  87.8232
 42.9976  7844.1  87.477
 43.0396  7950.92  87.7967
 43.0816  7826.59  87.4884
 43.1236  7924.45  88.0828
 43.1656  7935.35  87.9732
 43.2076  7892.94  87.8405
 43.2496  7816.33  87.2383
 43.2916  7788.47  87.4422
 43.3336  7798.12  87.3313
 43.3756  7894.53  87.6295
 43.4176  7767.12  86.9942
 43.4596  7802.41  87.0505
 43.5016  7840.35  87.6634
 43.5436  7808.47  87.3904
 43.5856  7736.41  87.0079
 43.6276  7852.27  87.549
 43.6696  7740.16  87.1783
 43.7116  7871.23  87.4166
 43.7536  7809.41  87.5727
 43.7956  7677.56  88.0325
 43.8376  7567.29  85.9347
 43.8796  7587.17  86.1216
 43.9216  7673.41  86.5277
 43.9636  7630.84  86.3898
 44.0056  7589.17  86.3911
 44.0476  7576.58  85.9436
 44.0896  7605.75  86.4578
 44.1316  7703.09  86.5305
 44.1736  7590.56  86.0232
 44.2156  7622.03  86.0505
 44.2576  7638.01  86.4636
 44.2996  7756.99  87.1133
 44.3416  7697.46  86.5277
 44.3836  7477.29  85.6154
 44.4256  7560.53  85.728
 44.4676  7470.4  85.376
 44.5096  7536.57  85.8977
 44.5516  7599.95  86.2225
 44.5936  7407.86  85.0797
 44.6356  7574.71  85.769
 44.6776  7553.71  85.972
 44.7196  7547.35  86.2276
 44.7616  7577.32  87.7512
 44.8036  7617.78  86.3893
 44.8456  7702.5  87.079
 44.8876  7732.73  87.091
 44.9296  7855.81  87.2228
 44.9716  7812.19  87.4122
 45.0136  7603.99  86.1769
 45.0556  7828.04  87.4207
 45.0976  7688.69  86.7958
 45.1396  7637.14  86.2485
 45.1816  7634.88  86.1738
 45.2236  7741.43  86.6879
 45.2656  7619.8  86.497
 45.3076  7617.05  86.2684
 45.3496  7593.36  86.4399
 45.3916  7694.43  87.2941
 45.4336  7742.01  87.4043
 45.4756  7626.24  86.6039
 45.5176  7710.44  86.6871
 45.5596  7757.29  87.0712
 45.6016  7636.91  86.823
 45.6436  7763.9  86.7008
 45.6856  7691.71  86.9664
 45.7276  7522.25  87.3268
 45.7696  7596.41  87.4309
 45.8116  7508.57  86.3683
 45.8536  7507.15  86.2449
 45.8956  7679.31  86.5722
 45.9376  7511.46  85.0901
 45.9796  7598.7  86.265
 46.0216  7537.36  86.2635
 46.0636  7661.27  86.1041
 46.1056  7621.26  85.8702
 46.1476  7706.41  86.9482
 46.1896  7621.04  86.6175
 46.2316  7656.77  86.6808
 46.2736  7515.05  86.2574
 46.3156  7654.35  86.631
 46.3576  7655.75  86.8391
 46.3996  7646.86  86.9435
 46.4416  7642.91  86.4977
 46.4836  7612.72  86.6883
 46.5256  7562.3  86.3451
 46.5676  7599.22  86.6728
 46.6096  7555.97  86.3498
 46.6516  7626.38  85.7822
 46.6936  7650.59  86.4269
 46.7356  7737.79  87.022
 46.7776  7521.33  86.6351
 46.8196  7530.66  86.2755
 46.8616  7305.4  84.9246
 46.9036  7455.25  85.4478
 46.9456  7516.57  85.4318
 46.9876  7536.35  85.6361
 47.0296  7456.34  85.8678
 47.0716  7403.38  85.3909
 47.1136  7599.85  86.1904
 47.1556  7537.32  85.6994
 47.1976  7662.82  86.4946
 47.2396  7510.29  86.0271
 47.2816  7502.52  85.6836
 47.3236  7493.95  86.0054
 47.3656  7488.36  85.906
 47.4076  7391.86  85.1455
 47.4496  7481.31  85.7628
 47.4916  7474.47  85.9089
 47.5336  7478.88  85.7501
 47.5756  7651.47  86.8565
 47.6176  7367.34  85.1198
 47.6596  7390.37  84.9742
 47.7016  7586.25  85.9039
 47.7436  7577.56  86.194
 47.7856  7496.19  85.7592
 47.8276  7349.33  84.9644
 47.8696  7458.69  85.6823
 47.9116  7494.16  85.5941
 47.9536  7446.31  85.2548
 47.9956  7436.18  85.9228
 48.0376  7430.98  85.6622
 48.0796  7504.89  86.2135
 48.1216  7503.65  86.0258
 48.1636  7581.39  86.0335
 48.2056  7555.28  86.1562
 48.2476  7575.27  86.5814
 48.2896  7527.04  86.2221
 48.3316  7450.36  85.7086
 48.3736  7412.22  85.5202
 48.4156  7404.42  85.3256
 48.4576  7429.49  85.7714
 48.4996  7515.17  85.7087
 48.5416  7592.75  86.4829
 48.5836  7548.56  85.8949
 48.6256  7537.77  86.0406
 48.6676  7470.35  86.1916
 48.7096  7529.09  85.7701
 48.7516  7400.64  85.1955
 48.7936  7357.66  85.0075
 48.8356  7419.29  85.4169
 48.8776  7395.62  85.8586
 48.9196  7646.65  86.6531
 48.9616  7403.73  85.6508
 49.0036  7546.13  86.84
 49.0456  7374.24  85.8197
 49.0876  7450.65  85.7773
 49.1296  7363.72  85.4581
 49.1716  7306.63  84.9873
 49.2136  7458.47  85.7909
 49.2556  7527.24  86.2199
 49.2976  7517.48  86.2348
 49.3396  7340.3  85.271
 49.3816  7491.2  85.5598
 49.4236  7369.03  85.2797
 49.4656  7299.12  84.8996
 49.5076  7495.25  85.7772
 49.5496  7382.38  85.2001
 49.5916  7396.74  85.1873
 49.6336  7374.7  85.2644
 49.6756  7458.3  85.9956
 49.7176  7383.6  85.4984
 49.7596  7442.05  85.5951
 49.8016  7485.74  85.7657
 49.8436  7385.11  85.4916
 49.8856  7363.37  85.3704
 49.9276  7310.49  85.1653
 49.9696  7411.49  85.7326
 50.0116  7299.82  85.2184
 50.0536  7275.21  85.0223
 50.0956  7334.05  85.4398
 50.1376  7356.33  85.257
 50.1796  7183.33  84.5275
 50.2216  7366.36  85.5891
 50.2636  7325.52  84.9555
 50.3056  7292.88  84.9555
 50.3476  7311.2  85.0809
 50.3896  7333.23  85.178
 50.4316  7288.01  84.7473
 50.4736  7259.57  84.8029
 50.5156  7284.35  84.9237
 50.5576  7415.5  85.4431
 50.5996  7318.72  85.1783
 50.6416  7246.94  84.6869
 50.6836  7291.23  85.0151
 50.7256  7371.49  85.3884
 50.7676  7354.02  85.6281
 50.8096  7348.65  85.1065
 50.8516  7220.58  84.7879
 50.8936  7172.45  84.284
 50.9356  7285.88  85.0532
 50.9776  7238.54  84.9453
 51.0196  7105.87  84.2921
 51.0616  7209.43  84.2149
 51.1036  7227.66  84.6826
 51.1456  7324.81  85.1617
 51.1876  7154.55  83.4857
 51.2296  7205.49  84.4369
 51.2716  7041.22  83.1684
 51.3136  7146.5  84.2623
 51.3556  7008.66  83.0574
 51.3976  7105.99  83.7881
 51.4396  6959.32  83.2361
 51.4816  7038.98  83.5625
 51.5236  7142.25  84.2592
 51.5656  7003.33  83.0198
 51.6076  7206.98  84.3158
 51.6496  7114.78  83.9613
 51.6916  7098.47  84.2433
 51.7336  7077.9  84.2047
 51.7756  7094.37  83.9931
 51.8176  7051.79  83.8549
 51.8596  7039.19  83.7949
 51.9016  7194.55  84.3061
 51.9436  7149.64  85.5765
 51.9856  7207.66  86.3505
 52.0276  7132.57  84.3501
 52.0696  7227.74  84.9836
 52.1116  7068.37  84.1592
 52.1536  7198.87  84.8205
 52.1956  7078.89  83.558
 52.2376  7289.81  84.9661
 52.2796  7207.51  84.306
 52.3216  7043  84.0305
 52.3636  7108.78  83.971
 52.4056  7043.25  83.4618
 52.4476  7001.34  83.568
 52.4896  7036.5  83.8336
 52.5316  7233.42  85.0666
 52.5736  7000.75  83.387
 52.6156  7138.6  84.621
 52.6576  6973.16  83.0451
 52.6996  7039.04  84.4555
 52.7416  6874.68  83.3082
 52.7836  7031.39  84.1501
 52.8256  7041.16  83.4021
 52.8676  6814.93  82.6318
 52.9096  6960.88  83.5914
 52.9516  6924.01  83.7654
 52.9936  7031.69  84.7955
 53.0356  7209.4  84.822
 53.0776  7040.86  84.099
 53.1196  7133.22  84.7848
 53.1616  7201.58  85.2427
 53.2036  7003.36  84.0282
 53.2456  6971.48  83.9417
 53.2876  7062.51  84.166
 53.3296  7062.36  84.4976
 53.3716  7155.4  84.804
 53.4136  6969.86  83.8495
 53.4556  6995.15  84.0296
 53.4976  6923.28  83.4325
 53.5396  7026.01  84.4657
 53.5816  6954.89  83.6632
 53.6236  7005.61  84.3283
 53.6656  6967.96  83.6798
 53.7076  7030.67  84.0169
 53.7496  6957.3  83.7233
 53.7916  7057.87  84.458
 53.8336  7006.11  84.0462
 53.8756  6913.83  84.0394
 53.9176  6925.87  83.4474
 53.9596  6678.66  82.6974
 54.0016  6670.72  81.9743
 54.0436  6610.92  81.8319
 54.0856  6824.71  82.5587
 54.1276  6767.87  82.4208
 54.1696  6761.02  82.5362
 54.2116  6889.32  83.059
 54.2536  6709.37  81.7827
 54.2956  6816.97  82.5013
 54.3376  6625.47  81.8199
 54.3796  6620.45  81.6783
 54.4216  6764.64  82.6321
 54.4636  6718.19  82.2947
 54.5056  6781.66  82.4707
 54.5476  6649.21  82.0239
 54.5896  6757.7  82.526
 54.6316  6673.86  81.8506
 54.6736  6731.84  82.2955
 54.7156  6599.85  81.5117
 54.7576  6583.14  81.3849
 54.7996  6665.79  82.0456
 54.8416  6622.15  81.831
 54.8836  6652.91  82.1193
 54.9256  6591.19  81.499
 54.9676  6494.52  80.7604
 55.0096  6596.43  81.4187
 55.0516  6536.25  81.2824
 55.0936  6583.78  81.2507
 55.1356  6579.73  81.2604
 55.1776  6723.54  82.3819
 55.2196  6626.76  81.5702
 55.2616  6707.72  82.3087
 55.3036  6634.18  82.0239
 55.3456  6469.49  81.132
 55.3876  6550.13  81.3743
 55.4296  6417.5  80.5437
 55.4716  6562.15  81.4704
 55.5136  6538.34  81.0824
 55.5556  6682.24  82.0284
 55.5976  6565.26  81.3805
 55.6396  6656.91  81.8946
 55.6816  6546.81  81.0802
 55.7236  6425.36  80.374
 55.7656  6591.21  81.1374
 55.8076  6441.77  80.2051
 55.8496  6559.19  81.2549
 55.8916  6505.12  81.1232
 55.9336  6665.84  81.9542
 55.9756  6467.93  80.6132
 56.0176  6426.79  80.479
 56.0596  6461.5  80.7163
 56.1016  6413.51  80.425
 56.1436  6369.31  80.4003
 56.1856  6318.48  79.8231
 56.2276  6532.71  81.236
 56.2696  6503.11  81.0179
 56.3116  6613.49  82.0898
 56.3536  6471.82  80.848
 56.3956  6365.92  80.1791
 56.4376  6461.99  80.8305
 56.4796  6307.8  79.6594
 56.5216  6408.9  80.6885
 56.5636  6331.48  79.7676
 56.6056  6474.09  80.9169
 56.6476  6445.3  80.3383
 56.6896  6559.77  81.5203
 56.7316  6362.63  80.1761
 56.7736  6440.84  80.6866
 56.8156  6426.6  80.6166
 56.8576  6263.29  79.523
 56.8996  6387.6  80.2043
 56.9416  6363.86  80.3822
 56.9836  6462.41  80.5186
 57.0256  6282.11  79.6958
 57.0676  6381.78  80.4494
 57.1096  6341.65  79.9866
 57.1516  6296.32  79.7337
 57.1936  6264.52  79.3081
 57.2356  6223  79.3607
 57.2776  6274.85  79.661
 57.3196  6333.3  80.3721
 57.3616  6367.74  80.0951
 57.4036  6383.42  80.2483
 57.4456  6413.02  80.4041
 57.4876  6363.61  79.9689
 57.5296  6306.76  79.9277
 57.5716  6243.75  79.5499
 57.6136  6187.28  79.0218
 57.6556  6300.75  79.8609
 57.6976  6310.02  79.7516
 57.7396  6136.54  79.002
 57.7816  6204  79.8128
 57.8236  6095.56  78.8903
 57.8656  6241.57  79.5052
 57.9076  6287.38  79.8087
 57.9496  6207.55  79.6489
 57.9916  6266.36  79.5527
 58.0336  6188.61  79.3316
 58.0756  6304.74  79.709
 58.1176  6292.14  79.6248
 58.1596  6227.7  79.8031
 58.2016  6040.24  77.8064
 58.2436  6027.19  78.1291
 58.2856  6051.28  78.2065
 58.3276  5859.07  77.3208
 58.3696  6009.08  78.0657
 58.4116  6048.96  78.1856
 58.4536  6019.86  77.8873
 58.4956  5939.85  77.5431
 58.5376  6057.78  77.867
 58.5796  5996.49  77.9004
 58.6216  5996.05  77.7232
 58.6636  6035.36  78.1841
 58.7056  5968.76  77.6124
 58.7476  5933.55  77.8234
 58.7896  6004.07  77.9274
 58.8316  5960.17  77.6427
 58.8736  6065.6  78.3353
 58.9156  5969.45  77.7486
 58.9576  5995.33  78.2367
 58.9996  6045.2  77.8231
 59.0416  6068.83  78.33
 59.0836  5946.41  77.4525
 59.1256  5992.72  78.4512
 59.1676  5836.31  77.7348
 59.2096  6034.74  78.3355
 59.2516  5983.59  77.5859
 59.2936  6086.17  78.5774
 59.3356  5882  77.1275
 59.3776  5953.03  77.7596
 59.4196  5938.88  77.6036
 59.4616  5963.4  77.6246
 59.5036  5879.57  77.1094
 59.5456  6097.61  78.2207
 59.5876  6076.71  78.2781
 59.6296  5974.96  77.6889
 59.6716  5946.36  77.5602
 59.7136  5896.78  77.2246
 59.7556  5974.68  77.8687
 59.7976  5889.38  77.0562
 59.8396  5967.96  77.4635
 59.8816  5936.13  77.7974
 59.9236  6052.81  78.2015
 59.9656  5938.03  77.7121
 60.0076  5958.67  77.2117
 60.0496  5987.16  77.8977
 60.0916  6044.67  77.6889
 60.1336  5955.69  78.2143
 60.1756  5780.59  78.2143
 60.1996  0.0000000E+00  0.0000000E+00