File: docs/examples/opeando_xrd/IS17_D/Data/IS17_D/17_Db_f00116.xye
# /beamlines/bl04/projects/cycle2025-II/20250340211-lsimonelli/DATA/IS17_D/17_Db_f00116.xye : mythproc.py merge -s 0.006 -l 0.5 -f /beamlines/bl04/inhouse/ff/FlatField/ff_20Nov2024rod8mm60s_17keV.raw -b True -c true -o xye /beamlines/bl04/projects/cycle2025-II/20250340211-lsimonelli/DATA/IS17_D/17_Db_00116.dat
# IsMon = [6775669, 6773904, 6776658]  IsPos = [-1.5000, -2.4884, -3.4988]
# Wave = 0.4962  CalPath /beamlines/bl04/projects/cycle2025-II/20250340211-lsimonelli/DATA/Align/Si_Pos1_25keV_f00001.cal
# Date = 2025-09-25_02:01:59 Dt = 4.8000  Bin = 0.0060  <imon> = 6775410 +/- 1139 (Min/Max) 6773904 / 6776658
# icurr 252.1098  mocoIn 1.7201E-05  mocoOut 0.8072  i15 7.10114e+06  imon 6.77541e+06  i7 6.6667  iEMpd_timer 4.8000  iEMpd_1 3.3977E-08  iEMpd_2 8.0167E-08  iEMpd_3 1.6776E-08  iEMpd_4 4.8978E-08  iEMhp_timer 4.8000  iEMhp_1 4.9261E-06  iEMhp_2 -2.3616E-08  iEMhp_3 -2.4793E-08  iEMhp_4 -2.1070E-08
#      9776
 1.5856  44729.8  217.167
 1.6276  51344.7  228.679
 1.6696  56922.4  239.93
 1.7116  64772.4  256.441
 1.7536  72912.9  270.92
 1.7956  76256.7  277.754
 1.8376  73884.1  273.833
 1.8796  62994.5  251.001
 1.9216  52383.8  229.789
 1.9636  45721.2  214.34
 2.0056  41477.9  202.847
 2.0476  38526.9  197.641
 2.0896  37563.7  194.011
 2.1316  36449.5  190.193
 2.1736  34647.2  186.902
 2.2156  35685.8  188.16
 2.2576  34028.5  184.396
 2.2996  33088.5  182.501
 2.3416  33330.7  181.704
 2.3836  32378.9  179.203
 2.4256  31958.6  178.616
 2.4676  31366.3  176.702
 2.5096  31033.6  175.82
 2.5516  29740.3  176.079
 2.5936  30045  173.431
 2.6356  29043.2  171.235
 2.6776  29291.7  170.827
 2.7196  28809.4  169.915
 2.7616  28796.1  169.667
 2.8036  28057.2  167.643
 2.8456  28280.5  168.968
 2.8876  27556.8  166.65
 2.9296  27270.3  165.909
 2.9716  26796  163.946
 3.0136  26656.2  163.584
 3.0556  26879.7  164.675
 3.0976  26591.1  162.667
 3.1396  26551.2  163.286
 3.1816  26207.8  162.177
 3.2236  25736.1  160.701
 3.2656  25808  159.943
 3.3076  25608.4  160.829
 3.3496  25632.3  159.799
 3.3916  26064  160.958
 3.4336  26466.1  162.8
 3.4756  26585.8  163.099
 3.5176  27264.9  164.947
 3.5596  26724.3  166.337
 3.6016  27251.7  164.96
 3.6436  26307.4  163.215
 3.6856  25946.1  160.352
 3.7276  24871.7  158.1
 3.7696  24769.7  157.749
 3.8116  24364.4  156.562
 3.8536  24492  156.894
 3.8956  24373.8  156.337
 3.9376  24151.7  155.892
 3.9796  24104.9  155.221
 4.0216  24165  154.438
 4.0636  24140.6  155.858
 4.1056  24083.3  155.316
 4.1476  24376.5  156.575
 4.1896  24540.9  156.949
 4.2316  24670.1  157.183
 4.2736  24830.8  157.499
 4.3156  25177.5  158.828
 4.3576  25882.7  160.938
 4.3996  26203  162.22
 4.4416  26806.3  163.649
 4.4836  27066.4  164.609
 4.5256  27625.1  166.909
 4.5676  27495.7  166.783
 4.6096  27671.5  166.324
 4.6516  28275.6  167.444
 4.6936  28392.9  168.634
 4.7356  28604.8  169.082
 4.7776  28455.9  168.468
 4.8196  28500  169.259
 4.8616  27629.6  166.145
 4.9036  27720.2  166.137
 4.9456  27475.7  166.073
 4.9876  26884.8  164.171
 5.0296  27074.4  164.591
 5.0716  26951.6  164.973
 5.1136  27306.8  165.782
 5.1556  27288.8  165.177
 5.1976  27843.8  166.837
 5.2396  27774.7  166.324
 5.2816  27888.3  167.138
 5.3236  27973.1  167.08
 5.3656  27422.6  166.374
 5.4076  27032.2  165.327
 5.4496  27125.4  165.106
 5.4916  27378.9  165.623
 5.5336  27327.7  165.477
 5.5756  27251.4  165.256
 5.6176  27412  165.175
 5.6596  27791.9  167.161
 5.7016  27793  166.578
 5.7436  27766  166.779
 5.7856  27687  166.607
 5.8276  27897.6  166.95
 5.8696  28311.9  168.242
 5.9116  28012.1  168.075
 5.9536  28591.3  169.535
 5.9956  28917.4  169.884
 6.0376  28544.7  169.404
 6.0796  28873.6  170.213
 6.1216  28817.5  170.245
 6.1636  29046.6  169.963
 6.2056  28996  170.51
 6.2476  29388.9  171.331
 6.2896  29621.7  171.871
 6.3316  29658.8  172.165
 6.3736  29598.5  171.881
 6.4156  29532.9  171.624
 6.4576  29671.1  171.587
 6.4996  29735.4  172.263
 6.5416  30192.9  173.709
 6.5836  29776.3  172.751
 6.6256  29980.2  172.89
 6.6676  30492.9  173.924
 6.7096  30706.7  175.407
 6.7516  31043.8  176.023
 6.7936  31074.1  175.497
 6.8356  31311.3  176.264
 6.8776  31376.9  177.266
 6.9196  31555  178.171
 6.9616  31893.6  178.571
 7.0036  32291.5  179.321
 7.0456  32548.1  179.322
 7.0876  32696.6  181.352
 7.1296  32369.4  179.662
 7.1716  32306.5  179.014
 7.2136  32052  178.077
 7.2556  32358.6  179.094
 7.2976  32239.3  179.262
 7.3396  32236  179.488
 7.3816  32063.5  179.223
 7.4236  32467.2  179.633
 7.4656  32625  179.52
 7.5076  32984.8  180.664
 7.5496  32742  180.536
 7.5916  33047.4  181.423
 7.6336  33357.5  182.162
 7.6756  33366.8  182.03
 7.7176  33921.9  183.872
 7.7596  33581.8  184.182
 7.8016  34267.8  188.318
 7.8436  34119.3  184.528
 7.8856  34262.3  184.527
 7.9276  34648.7  185.956
 7.9696  34924.9  187.012
 8.0116  35735.2  187.709
 8.0536  36267.2  189.353
 8.0956  36066.7  190.024
 8.1376  36222.6  189.897
 8.1796  36351.7  190.774
 8.2216  37428.1  192.309
 8.2636  37589.8  192.976
 8.3056  37562.7  193.676
 8.3476  38084.4  194.34
 8.3896  37575.6  193.119
 8.4316  38074.4  194.566
 8.4736  37636.2  192.914
 8.5156  37608.2  193.119
 8.5576  37501.4  193.822
 8.5996  37493  192.668
 8.6416  37260.6  193.34
 8.6836  36908  192.244
 8.7256  37661.2  193.653
 8.7676  37413.5  195.941
 8.8096  37929.9  194.542
 8.8516  38044.8  194.457
 8.8936  36993.9  191.65
 8.9356  37511  193.315
 8.9776  37579  193.574
 9.0196  37398.6  192.777
 9.0616  37341.4  192.126
 9.1036  36865.4  192.078
 9.1456  36524.9  190.515
 9.1876  36694.2  190.895
 9.2296  36591.7  190.064
 9.2716  36189.5  189.053
 9.3136  36319.7  189.391
 9.3556  36651.2  190.236
 9.3976  35478.7  187.679
 9.4396  35920  188.755
 9.4816  35530.8  187.572
 9.5236  35242.7  186.719
 9.5656  34941.5  186.28
 9.6076  34211.3  184.849
 9.6496  34696.6  186.037
 9.6916  34128.6  184.453
 9.7336  34537.4  185.341
 9.7756  34204.7  185.597
 9.8176  34139.1  185.073
 9.8596  33943.1  182.956
 9.9016  33460.9  181.653
 9.9436  33129.8  180.495
 9.9856  33120.2  180.913
 10.0276  32454.1  180.167
 10.0696  32984.2  180.651
 10.1116  31637.1  177.187
 10.1536  32079.3  178.075
 10.1956  31307  176.033
 10.2376  31012.7  174.697
 10.2796  31188.9  175.312
 10.3216  30712.3  174.113
 10.3636  30416.4  173.442
 10.4056  29831.2  172.173
 10.4476  29928.1  172.057
 10.4896  30155.1  172.155
 10.5316  29676.9  171.171
 10.5736  29661.2  171.891
 10.6156  29102.7  170.008
 10.6576  29302.7  169.145
 10.6996  28755.1  168.27
 10.7416  28321  167.21
 10.7836  28051.7  167.078
 10.8256  27696.8  166.448
 10.8676  27909.8  166.622
 10.9096  27684.5  165.978
 10.9516  27373.7  163.987
 10.9936  27483.8  164.526
 11.0356  27211.8  164.319
 11.0776  27028.6  163.103
 11.1196  26552.6  162.421
 11.1616  26468.9  161.839
 11.2036  26564.4  161.975
 11.2456  26371.6  162.103
 11.2876  26732.2  162.927
 11.3296  26260.7  161.394
 11.3716  26385.9  161.504
 11.4136  26502  162.712
 11.4556  26374.7  161.974
 11.4976  26818.8  162.32
 11.5396  27473.2  164.466
 11.5816  28087  166.733
 11.6236  27577.2  165.466
 11.6656  27429.5  164.142
 11.7076  26161.1  161.149
 11.7496  25867.9  164.306
 11.7916  25673  158.879
 11.8336  25337.6  158.74
 11.8756  25101.8  157.554
 11.9176  25119.6  157.281
 11.9596  25205.5  157.721
 12.0016  24715.4  156.955
 12.0436  24777.3  156.595
 12.0856  24727  156.946
 12.1276  24555  156.349
 12.1696  24549.3  155.434
 12.2116  24709.3  155.944
 12.2536  24537  156.195
 12.2956  24225.4  154.57
 12.3376  24644.5  156.103
 12.3796  24231.7  155.282
 12.4216  24458.5  155.192
 12.4636  24146.4  155.142
 12.5056  24514.7  155.574
 12.5476  24694.5  155.65
 12.5896  24199.8  154.733
 12.6316  24322.1  155.276
 12.6736  24087.6  155.019
 12.7156  24207.6  155.234
 12.7576  24108.2  155.172
 12.7996  24276.2  154.346
 12.8416  24182.9  155.11
 12.8836  24248.8  155.154
 12.9256  24858.3  156.111
 12.9676  24458.4  155.25
 13.0096  24878.4  157.705
 13.0516  24842.4  156.616
 13.0936  24934.7  157.039
 13.1356  25194.3  157.083
 13.1776  24898.8  157.192
 13.2196  24896.9  156.829
 13.2616  24812.9  156.88
 13.3036  25187.6  158.193
 13.3456  24687  156.795
 13.3876  25256.4  157.858
 13.4296  24813.1  156.633
 13.4716  25124.9  157.235
 13.5136  24981.6  156.917
 13.5556  24805.9  157.004
 13.5976  25102.8  158.11
 13.6396  24946.4  156.967
 13.6816  25283.7  158.379
 13.7236  25247.9  157.979
 13.7656  26962.1  163.728
 13.8076  27653.9  164.386
 13.8496  26307.5  161.243
 13.8916  25180.8  158.704
 13.9336  24498.2  155.804
 13.9756  24781.4  156.077
 14.0176  24139.8  154.725
 14.0596  24440.5  155.596
 14.1016  24266.8  155.488
 14.1436  24233.6  154.499
 14.1856  23789.7  153.37
 14.2276  23414.6  152.646
 14.2696  23477.1  152.699
 14.3116  23118.1  151.439
 14.3536  22821.1  150.628
 14.3956  22749.7  150.109
 14.4376  23095  151.03
 14.4796  22935.8  150.506
 14.5216  22620.5  150.264
 14.5636  22618.4  149.827
 14.6056  22654.3  149.49
 14.6476  22476  148.14
 14.6896  22157.2  147.637
 14.7316  21798.7  147.48
 14.7736  21701.1  146.293
 14.8156  21501.9  145.638
 14.8576  21499.9  145.486
 14.8996  21031.2  145.091
 14.9416  20584.6  143.563
 14.9836  20582.5  143.535
 15.0256  20225.1  141.195
 15.0676  20119.6  141.142
 15.1096  20123.2  140.891
 15.1516  19731.9  140.077
 15.1936  19613.3  139.079
 15.2356  19336.6  138.372
 15.2776  19309.2  137.863
 15.3196  18794.9  137.002
 15.3616  18838.2  136.916
 15.4036  18856.6  136.846
 15.4456  19064.6  137.249
 15.4876  18576.6  135.164
 15.5296  18618.4  135.607
 15.5716  18373.2  134.307
 15.6136  18401.8  134.75
 15.6556  18234  133.367
 15.6976  18134.7  133.303
 15.7396  18022.3  133.268
 15.7816  17865.6  132.207
 15.8236  17558.7  131.749
 15.8656  17660.8  131.931
 15.9076  17534.1  131.28
 15.9496  18119.3  136.286
 15.9916  18023.9  136.336
 16.0336  18075.3  133.357
 16.0756  17905.9  133.049
 16.1176  17633.6  131.942
 16.1596  17184.2  131.603
 16.2016  17336.5  130.932
 16.2436  17074.4  130.32
 16.2856  17264.5  130.55
 16.3276  17062  130.231
 16.3696  17168.5  130.448
 16.4116  16888.5  129.843
 16.4536  17161.5  130.689
 16.4956  17010.5  129.843
 16.5376  16784.8  129.166
 16.5796  16699.7  128.206
 16.6216  16759.3  128.689
 16.6636  16648.1  128.465
 16.7056  16787.8  128.858
 16.7476  16693.1  128.007
 16.7896  17043.3  130.11
 16.8316  16739.3  128.932
 16.8736  16950.8  130
 16.9156  16622.5  129.064
 16.9576  16498.2  129.384
 16.9996  16675  130.561
 17.0416  16533.7  128.386
 17.0836  16786.1  129.115
 17.1256  16703  128.801
 17.1676  16558.3  128.18
 17.2096  16420.7  127.561
 17.2516  16506.7  127.983
 17.2936  16386.4  127.574
 17.3356  16114.4  126.488
 17.3776  15947.7  126.032
 17.4196  15889.1  125.498
 17.4616  15803.5  125.059
 17.5036  15348.8  123.604
 17.5456  15570.9  125.148
 17.5876  15560.9  124.149
 17.6296  15681.3  124.431
 17.6716  15322.2  123.597
 17.7136  15252.2  123.446
 17.7556  15314.4  124
 17.7976  15277.7  123.56
 17.8396  14971.6  121.833
 17.8816  14984.2  122.458
 17.9236  14868.7  121.78
 17.9656  14877.2  122.331
 18.0076  14915.4  122.074
 18.0496  14782.9  120.653
 18.0916  14818.8  121.357
 18.1336  14770.9  121.258
 18.1756  14833.2  121.065
 18.2176  14517.4  119.979
 18.2596  14478.1  119.548
 18.3016  14720.4  120.806
 18.3436  14703.5  120.745
 18.3856  14599.6  120.444
 18.4276  14491.3  119.687
 18.4696  14405  119.413
 18.5116  14423.3  119.767
 18.5536  14418  120.1
 18.5956  14368.1  119.456
 18.6376  14351.8  119.795
 18.6796  14351.9  119.116
 18.7216  14388.2  119.759
 18.7636  14366.6  119.658
 18.8056  14354.2  119.535
 18.8476  13996.9  118.661
 18.8896  14032.4  118.153
 18.9316  14403.8  119.682
 18.9736  14184.8  118.471
 19.0156  14172.1  118.842
 19.0576  14273.2  118.093
 19.0996  14295.8  118.912
 19.1416  14154.4  118.717
 19.1836  14049.1  117.879
 19.2256  14006  117.925
 19.2676  14157  118.64
 19.3096  14190.8  119.034
 19.3516  14299.4  119.257
 19.3936  14096.6  118.496
 19.4356  14185.9  118.737
 19.4776  14195.9  118.875
 19.5196  14052.8  118.128
 19.5616  14118.9  118.67
 19.6036  14056  117.896
 19.6456  14014.6  117.841
 19.6876  14096.5  117.823
 19.7296  14178.1  118.622
 19.7716  13945.9  117.828
 19.8136  14355.7  119.73
 19.8556  14245.8  118.763
 19.8976  14253.6  118.857
 19.9396  14407.7  119.08
 19.9816  14480.6  119.634
 20.0236  14925.3  121.645
 20.0656  14990.8  121.92
 20.1076  15253.6  123.476
 20.1496  15078.3  122.761
 20.1916  14802.9  121.092
 20.2336  14601.5  120.23
 20.2756  14298.7  119.422
 20.3176  14023.9  118.013
 20.3596  13900  117.477
 20.4016  13914.8  117.329
 20.4436  13727.9  117.11
 20.4856  13771.3  117.087
 20.5276  13732.4  117.391
 20.5696  13634.8  116.527
 20.6116  13587.1  116.49
 20.6536  13633.3  116.192
 20.6956  13435.9  115.484
 20.7376  13377.8  115.448
 20.7796  13419.7  115.306
 20.8216  13490.7  115.332
 20.8636  13461.5  115.582
 20.9056  13385.2  115.198
 20.9476  13320.4  114.761
 20.9896  13436  115.118
 21.0316  13330.6  114.57
 21.0736  13048.5  113.866
 21.1156  13141  114.433
 21.1576  13266.1  115.01
 21.1996  13163.4  114.551
 21.2416  13324.8  115.079
 21.2836  13153.3  114.311
 21.3256  13215.6  114.652
 21.3676  13115.7  113.757
 21.4096  13084.9  113.998
 21.4516  13116.4  113.953
 21.4936  12784.7  112.769
 21.5356  13126.9  114.217
 21.5776  13093.2  113.893
 21.6196  12904.5  113.112
 21.6616  12893.5  113.15
 21.7036  13051.7  113.612
 21.7456  13058.9  113.721
 21.7876  12869  112.654
 21.8296  12935  112.773
 21.8716  12914.5  112.922
 21.9136  13206.6  114.397
 21.9556  12852.1  112.527
 21.9976  12915.4  112.836
 22.0396  12747.2  112.353
 22.0816  12729.6  112.799
 22.1236  12926.8  113.123
 22.1656  12836.9  112.876
 22.2076  12568.6  111.155
 22.2496  12715.7  111.833
 22.2916  12454.9  110.564
 22.3336  12644.6  112.128
 22.3756  12656.5  111.898
 22.4176  12571.2  111.373
 22.4596  12292.6  110.714
 22.5016  12379.6  110.609
 22.5436  12680.9  111.824
 22.5856  12714.4  112.222
 22.6276  12834.5  112.891
 22.6696  12633.8  112.355
 22.7116  12467  111.128
 22.7536  12547.4  111.458
 22.7956  12589.5  110.983
 22.8376  12376.7  110.549
 22.8796  12562.8  111.182
 22.9216  12736.4  112.491
 22.9636  12606.2  111.07
 23.0056  12489.6  110.689
 23.0476  12505.5  111.332
 23.0896  12625.3  111.241
 23.1316  12533.9  111.273
 23.1736  12807.5  115.45
 23.2156  12934  113.359
 23.2576  13139.6  114.389
 23.2996  12800.1  112.679
 23.3416  13118.9  114.608
 23.3836  12966  113.163
 23.4256  12984.5  113.363
 23.4676  13025.9  113.229
 23.5096  12741.7  112.64
 23.5516  12779.7  112.111
 23.5936  12852.7  113.353
 23.6356  13042.1  113.842
 23.6776  12645.7  112.314
 23.7196  12792.4  112.75
 23.7616  12809.2  112.524
 23.8036  12940.2  113.154
 23.8456  12780  111.997
 23.8876  12638.5  111.736
 23.9296  12511.6  111.665
 23.9716  12622.1  111.35
 24.0136  12609.4  112.208
 24.0556  12552  111.658
 24.0976  12336.1  110.512
 24.1396  12298.1  112.995
 24.1816  12599.4  112.744
 24.2236  12333.6  111.183
 24.2656  12321.9  110.601
 24.3076  12245.3  110.527
 24.3496  12309.1  110.692
 24.3916  12306.2  110.725
 24.4336  12212.3  110.508
 24.4756  12229.3  110.473
 24.5176  12029.9  109.176
 24.5596  12211.4  110.33
 24.6016  12073.5  109.818
 24.6436  12154.6  109.681
 24.6856  12002.5  108.736
 24.7276  11857.7  108.406
 24.7696  11908  108.736
 24.8116  11734.4  108.124
 24.8536  11676  107.863
 24.8956  11718.2  107.787
 24.9376  11703.8  107.899
 24.9796  11605.4  107.56
 25.0216  11661.1  107.931
 25.0636  11687.4  107.708
 25.1056  11341.2  106.79
 25.1476  11459.2  108.98
 25.1896  11491.8  107.642
 25.2316  11379.3  106.384
 25.2736  11331.2  105.817
 25.3156  11429.9  106.34
 25.3576  11227.5  105.833
 25.3996  11331  106.308
 25.4416  11206.8  105.698
 25.4836  10937  104.938
 25.5256  11205.3  105.57
 25.5676  11248.2  105.504
 25.6096  11005.4  104.935
 25.6516  11123.4  104.998
 25.6936  11232.6  105.825
 25.7356  11103  105.346
 25.7776  11138  105.189
 25.8196  11016.9  104.781
 25.8616  10992  104.591
 25.9036  11208.1  105.062
 25.9456  10917.4  104.296
 25.9876  11107.9  105.109
 26.0296  11174.2  105.089
 26.0716  11131.6  105.313
 26.1136  11107.7  105.134
 26.1556  11101.1  104.482
 26.1976  10902  104.471
 26.2396  10899.1  103.607
 26.2816  11149.1  105.41
 26.3236  11043  105.069
 26.3656  11222.2  105.618
 26.4076  11030.4  104.94
 26.4496  11151.2  105.091
 26.4916  11302.1  105.687
 26.5336  11503.5  106.977
 26.5756  11824  108.337
 26.6176  11202.7  105.476
 26.6596  11037.5  104.996
 26.7016  10927.3  104.247
 26.7436  11029.3  104.853
 26.7856  10802  103.761
 26.8276  10789  103.663
 26.8696  10739.9  103.289
 26.9116  10755.1  103.303
 26.9536  10648  102.837
 26.9956  10573.1  102.511
 27.0376  10655.9  103.135
 27.0796  10703.6  103.087
 27.1216  10651.5  102.899
 27.1636  10528.4  102.472
 27.2056  10472.7  102.083
 27.2476  10477.5  102.099
 27.2896  10447.5  102.074
 27.3316  10527.7  102.174
 27.3736  10349.7  101.585
 27.4156  10491.6  102.104
 27.4576  10461.9  102.185
 27.4996  10595.3  102.44
 27.5416  10395.9  101.783
 27.5836  10415.6  101.712
 27.6256  10358.2  101.612
 27.6676  10291.6  101.278
 27.7096  10391  101.644
 27.7516  10266.9  101.187
 27.7936  10557.1  102.752
 27.8356  10520.1  102.179
 27.8776  10525.9  102.271
 27.9196  10255.8  100.81
 27.9616  10328.3  101.368
 28.0036  10341.5  101.389
 28.0456  10137.2  100.521
 28.0876  10113.8  100.491
 28.1296  10134.4  100.424
 28.1716  10270.3  101.12
 28.2136  10245.8  100.966
 28.2556  10023.8  99.9805
 28.2976  10058.1  100.144
 28.3396  10035  99.7824
 28.3816  10154.2  100.382
 28.4236  9981.23  99.6856
 28.4656  9897.68  99.3023
 28.5076  10077.7  99.8406
 28.5496  10083.5  100.127
 28.5916  10093.9  99.9901
 28.6336  10017.7  99.9537
 28.6756  10072.3  99.4202
 28.7176  10000.9  99.622
 28.7596  10023.4  99.6243
 28.8016  9912.61  99.1174
 28.8436  9890.55  99.2462
 28.8856  9890.38  99.0946
 28.9276  9843.76  99.107
 28.9696  9839  98.7415
 29.0116  9843.59  98.9504
 29.0536  9727.61  98.5699
 29.0956  9901.4  99.1325
 29.1376  9788.26  98.5494
 29.1796  9888.64  99.1039
 29.2216  9694.01  97.9667
 29.2636  9889.73  99.0277
 29.3056  9833.29  98.5067
 29.3476  9823.21  99
 29.3896  9805.3  99.0253
 29.4316  9630.13  97.4694
 29.4736  9562.08  97.1888
 29.5156  9628.95  97.4543
 29.5576  9619.59  98.145
 29.5996  9569.9  97.15
 29.6416  9510.72  96.9701
 29.6836  9520.36  96.945
 29.7256  9441.77  97.1047
 29.7676  9647.48  97.8127
 29.8096  9538  97.2032
 29.8516  9461.5  97.141
 29.8936  9522.1  97.5478
 29.9356  9543.13  97.4104
 29.9776  9366.22  96.654
 30.0196  9452.94  96.4996
 30.0616  9541.44  97.3183
 30.1036  9460.11  96.7314
 30.1456  9334.57  96.3057
 30.1876  9382.5  96.5447
 30.2296  9293.99  96.0315
 30.2716  9476.47  96.6087
 30.3136  9501.99  97.5973
 30.3556  9674.13  98.4785
 30.3976  9503.52  99.0919
 30.4396  9893.07  98.4202
 30.4816  9672.61  96.9153
 30.5236  9777.86  97.4426
 30.5656  9552.3  96.9774
 30.6076  9546.14  96.7153
 30.6496  9641.88  97.2562
 30.6916  9470.53  96.4702
 30.7336  9592.68  97.2224
 30.7756  9592.24  97.3279
 30.8176  9756.67  98.07
 30.8596  9694.75  97.5186
 30.9016  9635.93  97.0964
 30.9436  9743.53  97.8558
 30.9856  9812.94  98.3289
 31.0276  9602.43  96.8958
 31.0696  9453.19  96.6943
 31.1116  9451.45  96.6607
 31.1536  9424.3  96.4003
 31.1956  9435.23  96.5464
 31.2376  9299.11  95.8661
 31.2796  9457.35  96.2173
 31.3216  9352.76  95.6089
 31.3636  9444.18  96.7947
 31.4056  9428.09  98.0376
 31.4476  9490.23  96.2366
 31.4896  9454.16  96.5576
 31.5316  9517.32  96.2804
 31.5736  9644.34  96.7392
 31.6156  9460.24  95.8237
 31.6576  9681.52  97.0118
 31.6996  9634.57  96.4273
 31.7416  9544.58  96.9551
 31.7836  9416.51  95.4354
 31.8256  9486.57  96.0575
 31.8676  9617.62  96.7177
 31.9096  9304.78  95.3619
 31.9516  9293.36  95.6119
 31.9936  9146.37  94.6758
 32.0356  9398.33  96.0221
 32.0776  9458.57  96.2248
 32.1196  9546.09  96.6799
 32.1616  9447.99  95.7159
 32.2036  9351.11  95.735
 32.2456  9204.91  95.3667
 32.2876  9409.36  95.9143
 32.3296  9229.16  94.952
 32.3716  9041.3  94.0955
 32.4136  8885.46  93.4709
 32.4556  9280.29  94.9132
 32.4976  9233.45  94.6183
 32.5396  9149.91  94.2135
 32.5816  9191.56  94.5561
 32.6236  9155.07  94.4387
 32.6656  9224.68  95.3397
 32.7076  9067.28  94.1795
 32.7496  9063.51  93.8298
 32.7916  9098.03  93.9674
 32.8336  9096.74  94.0571
 32.8756  9215.16  94.3725
 32.9176  8996.04  93.7431
 32.9596  9030.66  93.9856
 33.0016  8999.68  93.601
 33.0436  9080.05  94.2025
 33.0856  9097.47  94.3811
 33.1276  8915.06  93.1617
 33.1696  9065.37  93.7811
 33.2116  9116.21  94.2721
 33.2536  9084.26  94.0969
 33.2956  9051.83  94.0138
 33.3376  8900.64  93.0505
 33.3796  9113.01  94.2877
 33.4216  9037.3  93.4792
 33.4636  9047.42  93.6944
 33.5056  8861.36  92.9742
 33.5476  8953.75  93.4255
 33.5896  9206.2  94.5334
 33.6316  9050.58  94.0388
 33.6736  8885.28  93.4274
 33.7156  8843.89  93.2451
 33.7576  8963.43  93.5076
 33.7996  9022.07  93.5646
 33.8416  8828.92  92.7504
 33.8836  8839.02  92.5773
 33.9256  9008.24  93.5075
 33.9676  8987.01  93.2974
 34.0096  8803.89  92.6583
 34.0516  8669.82  91.5945
 34.0936  8746.86  92.2647
 34.1356  8922.86  92.9298
 34.1776  8760.04  92.0776
 34.2196  8721.44  92.0566
 34.2616  8681.2  91.9873
 34.3036  8855.01  93.1425
 34.3456  8850.59  92.8754
 34.3876  8812.06  92.7387
 34.4296  8858.61  92.5683
 34.4716  9001.23  93.4751
 34.5136  8771.15  92.4679
 34.5556  8667.17  92.1757
 34.5976  8892.6  93.1968
 34.6396  8730.56  92.026
 34.6816  8760.28  92.2835
 34.7236  8798.65  92.2676
 34.7656  8690.8  91.8998
 34.8076  8676.27  92.1646
 34.8496  8540.19  91.2919
 34.8916  8757.33  92.3041
 34.9336  8769.23  92.353
 34.9756  8803.51  92.4712
 35.0176  8798.12  92.9587
 35.0596  8870.89  93.1562
 35.1016  8795.12  92.5149
 35.1436  8775.83  92.0884
 35.1856  8786.21  92.2746
 35.2276  8697.94  91.9899
 35.2696  8675  92.0606
 35.3116  8644.18  91.9966
 35.3536  8638.86  91.7067
 35.3956  8589.06  91.1171
 35.4376  8634.26  91.9296
 35.4796  8745.32  92.5594
 35.5216  8474.33  91.0773
 35.5636  8458.1  91.737
 35.6056  8537.93  91.1838
 35.6476  8578.29  91.2984
 35.6896  8627  91.6514
 35.7316  8479.36  90.8363
 35.7736  8492.98  91.0972
 35.8156  8576.35  91.5346
 35.8576  8587.79  91.8524
 35.8996  8589.6  91.835
 35.9416  8568.13  91.2185
 35.9836  8470.13  91.1481
 36.0256  8735.25  92.4827
 36.0676  8708.47  92.0763
 36.1096  8614.04  91.7261
 36.1516  8552.51  91.2914
 36.1936  8568.69  91.2051
 36.2356  8485.27  91.4191
 36.2776  8592.43  91.4564
 36.3196  8467.28  90.4648
 36.3616  8497.69  90.7661
 36.4036  8455.34  90.605
 36.4456  8512.75  91.1223
 36.4876  8300.19  89.9148
 36.5296  8455.43  90.7902
 36.5716  8537.61  92.0203
 36.6136  8387.37  89.9861
 36.6556  8351.08  89.9874
 36.6976  8249.71  89.9363
 36.7396  8252.83  89.6905
 36.7816  8393.54  90.8283
 36.8236  8212.16  89.758
 36.8656  8072.41  89.0578
 36.9076  8141.99  89.3329
 36.9496  8100.32  89.0873
 36.9916  8076.95  88.5944
 37.0336  8204.28  89.6026
 37.0756  8210.17  89.4299
 37.1176  8026.82  88.6913
 37.1596  8161.86  89.4392
 37.2016  8146.8  89.5838
 37.2436  8110.04  88.6956
 37.2856  8087.98  88.8269
 37.3276  8168.02  88.6271
 37.3696  8145.83  89.392
 37.4116  8100.79  89.0461
 37.4536  8126.54  89.0551
 37.4956  7934.02  88.0317
 37.5376  8323.49  91.7814
 37.5796  8165.06  90.825
 37.6216  8215.49  89.3551
 37.6636  8341.99  89.919
 37.7056  8271.14  89.7361
 37.7476  8303.49  89.4479
 37.7896  8081.46  88.7581
 37.8316  8215.21  89.6419
 37.8736  8201.54  89.0922
 37.9156  8163.45  88.8796
 37.9576  8123.15  88.5737
 37.9996  8085.78  88.0832
 38.0416  8080.27  88.8601
 38.0836  8423.7  90.6254
 38.1256  8282.66  89.8418
 38.1676  8159.53  89.2931
 38.2096  8173.72  88.9693
 38.2516  8120.5  88.9126
 38.2936  8277.27  89.5497
 38.3356  8110.88  88.5851
 38.3776  8084.84  88.6982
 38.4196  8218.13  89.2655
 38.4616  8226.73  89.5713
 38.5036  8164.39  89.0672
 38.5456  8035.91  89.2057
 38.5876  8018.94  89.1328
 38.6296  8068.91  88.3831
 38.6716  8105.63  88.3752
 38.7136  7975.05  87.6178
 38.7556  8090.49  88.7523
 38.7976  8077.32  88.6047
 38.8396  8064.67  89.0069
 38.8816  8020.6  88.5543
 38.9236  8051.79  88.5148
 38.9656  8068.01  88.5239
 39.0076  8156.7  88.386
 39.0496  8154.06  88.9477
 39.0916  8104.36  88.3208
 39.1336  8117.89  88.7963
 39.1756  8087.7  88.7006
 39.2176  7975.26  88.6241
 39.2596  8082.55  89.1373
 39.3016  8067.34  88.6364
 39.3436  7968.54  88.5091
 39.3856  8284.9  89.6644
 39.4276  8196.2  89.709
 39.4696  8153.88  89.0926
 39.5116  8116.43  89.4055
 39.5536  8110.84  89.8008
 39.5956  8094.35  88.808
 39.6376  8028.58  88.4433
 39.6796  8003.45  88.0463
 39.7216  8051.08  88.4092
 39.7636  8122.9  89.3755
 39.8056  8057.3  88.7994
 39.8476  7977.04  88.6133
 39.8896  8040.88  88.5902
 39.9316  7929.11  88.2257
 39.9736  7992.87  88.1528
 40.0156  8039.48  88.2356
 40.0576  7962.96  88.1676
 40.0996  8054.14  87.8537
 40.1416  8003.86  88.3746
 40.1836  8112.9  88.8622
 40.2256  8049.53  88.5531
 40.2676  7992.95  88.408
 40.3096  8076.31  88.7327
 40.3516  8154.81  89.2686
 40.3936  8276.46  89.4791
 40.4356  8000.9  88.1939
 40.4776  8133.36  89.1509
 40.5196  8065.27  89.0778
 40.5616  8225.14  89.5882
 40.6036  8131.63  89.3441
 40.6456  8050.7  88.486
 40.6876  8195.52  89.2868
 40.7296  8012.71  88.4124
 40.7716  8136.32  89.2103
 40.8136  8058.07  88.7352
 40.8556  8171.06  89.4903
 40.8976  8113.98  89.0988
 40.9396  8146.17  89.6229
 40.9816  8078.01  88.5321
 41.0236  8104.32  88.4613
 41.0656  8116.65  89.0678
 41.1076  8127.56  88.9033
 41.1496  8112.88  88.7207
 41.1916  8046.78  88.677
 41.2336  8141.49  89.1981
 41.2756  7997.32  88.0094
 41.3176  8133.28  89.3688
 41.3596  8148.17  89.1877
 41.4016  7926.2  88.2225
 41.4436  8169.32  89.3458
 41.4856  8067.8  88.9583
 41.5276  7995.54  88.5725
 41.5696  8082.98  88.6858
 41.6116  8070.05  89.003
 41.6536  8082.15  88.9259
 41.6956  8169.65  89.396
 41.7376  7922.98  88.1371
 41.7796  7983.52  88.3538
 41.8216  8025.27  88.8147
 41.8636  8041.67  88.8552
 41.9056  8003.53  88.4261
 41.9476  8110.51  89.2617
 41.9896  8109.17  88.9043
 42.0316  7979.59  88.2899
 42.0736  8020.88  88.6511
 42.1156  8121.09  89.0036
 42.1576  7976.64  88.3191
 42.1996  8218.09  89.7756
 42.2416  8036.93  88.3682
 42.2836  7929.85  87.8942
 42.3256  7989.53  88.3361
 42.3676  8143.56  88.974
 42.4096  7976.47  88.0348
 42.4516  8151.18  89.0701
 42.4936  8017.74  88.4065
 42.5356  7979.26  88.3402
 42.5776  8035.46  88.5877
 42.6196  8071.41  88.8469
 42.6616  7818.24  87.6086
 42.7036  8015.91  88.0866
 42.7456  8031.87  88.5314
 42.7876  7938.31  88.1024
 42.8296  7990.99  88.2344
 42.8716  7860.79  87.6761
 42.9136  7842.13  87.3248
 42.9556  7893.99  87.7848
 42.9976  8067.04  88.7113
 43.0396  8020.81  88.178
 43.0816  8006.11  88.4885
 43.1236  7890.25  87.8841
 43.1656  7969.16  88.1514
 43.2076  7839.34  87.5403
 43.2496  7856.08  87.4543
 43.2916  7885.78  87.9881
 43.3336  7906.62  87.9357
 43.3756  7931.95  87.8268
 43.4176  7842.58  87.4158
 43.4596  7857.51  87.3564
 43.5016  7837.73  87.6498
 43.5436  7904.54  87.9254
 43.5856  7814.08  87.4511
 43.6276  7886.98  87.7489
 43.6696  7754.39  87.2607
 43.7116  7919.89  87.6842
 43.7536  7929.45  88.2402
 43.7956  7842.97  88.9798
 43.8376  7815.95  87.334
 43.8796  7656.89  86.5232
 43.9216  7704.32  86.7076
 43.9636  7756.3  87.1105
 44.0056  7730.35  87.1981
 44.0476  7731.25  86.8288
 44.0896  7511.48  85.9288
 44.1316  7752.3  86.814
 44.1736  7657.44  86.3978
 44.2156  7656.83  86.2604
 44.2576  7667.76  86.644
 44.2996  7738.1  87.0101
 44.3416  7688.3  86.4905
 44.3836  7507.71  85.7967
 44.4256  7606.87  85.9993
 44.4676  7564.61  85.921
 44.5096  7585.01  86.1816
 44.5516  7607.97  86.2784
 44.5936  7508.23  85.6598
 44.6356  7669.84  86.3139
 44.6776  7672.7  86.6538
 44.7196  7650.69  86.8337
 44.7616  7743.87  88.708
 44.8036  7804.77  87.6516
 44.8456  7796.76  87.6089
 44.8876  7677.83  86.7819
 44.9296  7821.66  87.0281
 44.9716  7850.17  87.6211
 45.0136  7818.24  87.3859
 45.0556  7639.02  86.4636
 45.0976  7765.75  87.2244
 45.1396  7686.08  86.5145
 45.1816  7624.52  86.1276
 45.2236  7755.14  86.7628
 45.2656  7700.61  86.958
 45.3076  7787.84  87.2158
 45.3496  7760.52  87.3841
 45.3916  7702.66  87.3401
 45.4336  7672.36  87.0089
 45.4756  7587.97  86.3821
 45.5176  7697.98  86.619
 45.5596  7842.06  87.5442
 45.6016  7632.56  86.7978
 45.6436  7650.42  86.0676
 45.6856  7641.08  86.6664
 45.7276  7621.74  87.8991
 45.7696  7583.46  87.3548
 45.8116  7656.99  87.2143
 45.8536  7588.17  86.7001
 45.8956  7710.89  86.7437
 45.9376  7593.16  85.5443
 45.9796  7718.58  86.9442
 46.0216  7658.01  86.9446
 46.0636  7721.64  86.4288
 46.1056  7672.09  86.1481
 46.1476  7722.33  87.0313
 46.1896  7799.98  87.62
 46.2316  7614.58  86.4357
 46.2736  7636.41  86.7734
 46.3156  7645.74  86.5758
 46.3576  7631.02  86.6968
 46.3996  7667.7  87.0571
 46.4416  7572.15  86.0748
 46.4836  7614.69  86.6971
 46.5256  7693  87.0751
 46.5676  7597.49  86.6558
 46.6096  7445.11  85.6789
 46.6516  7684.29  86.1062
 46.6936  7585.17  86.0479
 46.7356  7809.71  87.4066
 46.7776  7605.93  87.1254
 46.8196  7587.56  86.7591
 46.8616  7446.25  85.7467
 46.9036  7478.13  85.584
 46.9456  7517.41  85.4474
 46.9876  7541.35  85.6579
 47.0296  7486.57  86.0404
 47.0716  7473.32  85.7925
 47.1136  7551.13  85.8989
 47.1556  7493.48  85.4462
 47.1976  7487.62  85.5802
 47.2396  7540  86.2002
 47.2816  7535.13  85.8677
 47.3236  7538.11  86.249
 47.3656  7550.8  86.2671
 47.4076  7505.82  85.7287
 47.4496  7577.58  86.3092
 47.4916  7530.98  86.2414
 47.5336  7658.74  86.7787
 47.5756  7668.55  86.9511
 47.6176  7519.47  86.0018
 47.6596  7564.64  85.9656
 47.7016  7588.65  85.9164
 47.7436  7681.69  86.7807
 47.7856  7549.98  86.0605
 47.8276  7582.69  86.3052
 47.8696  7461.58  85.6928
 47.9116  7521.58  85.742
 47.9536  7491.52  85.5177
 47.9956  7583.58  86.7706
 48.0376  7455.3  85.8047
 48.0796  7600.72  86.7607
 48.1216  7557.91  86.3387
 48.1636  7665.93  86.5064
 48.2056  7497.81  85.8291
 48.2476  7614.18  86.8118
 48.2896  7650.35  86.9172
 48.3316  7548.7  86.2839
 48.3736  7521.93  86.1441
 48.4156  7506.06  85.9125
 48.4576  7491.87  86.1283
 48.4996  7537.35  85.8318
 48.5416  7550.12  86.2369
 48.5836  7590.51  86.14
 48.6256  7511.56  85.8989
 48.6676  7449.09  86.0634
 48.7096  7557.79  85.939
 48.7516  7588.43  86.2718
 48.7936  7418.38  85.3623
 48.8356  7468.71  85.7018
 48.8776  7525.88  86.6144
 48.9196  7639.39  86.6132
 48.9616  7361.89  85.4167
 49.0036  7435.3  86.1973
 49.0456  7530.31  86.7276
 49.0876  7508.99  86.118
 49.1296  7354.21  85.4003
 49.1716  7364.44  85.3246
 49.2136  7492.72  85.9998
 49.2556  7517.24  86.1559
 49.2976  7480.41  86.0174
 49.3396  7367.26  85.4154
 49.3816  7602.05  86.1909
 49.4236  7461.9  85.8213
 49.4656  7266.58  84.7115
 49.5076  7458.34  85.5586
 49.5496  7432.82  85.4888
 49.5916  7550.77  86.0777
 49.6336  7501.74  85.9967
 49.6756  7538.49  86.446
 49.7176  7528.49  86.333
 49.7596  7427.05  85.5105
 49.8016  7465.91  85.6544
 49.8436  7416.69  85.6768
 49.8856  7358.94  85.3393
 49.9276  7380.25  85.5738
 49.9696  7457.64  86.002
 50.0116  7420.03  85.908
 50.0536  7477.74  86.1994
 50.0956  7402.14  85.8381
 50.1376  7426.89  85.6703
 50.1796  7306.4  85.2482
 50.2216  7361.18  85.563
 50.2636  7426.19  85.5417
 50.3056  7340.26  85.23
 50.3476  7373.54  85.444
 50.3896  7274.47  84.8398
 50.4316  7439.91  85.624
 50.4736  7385.68  85.531
 50.5156  7371.99  85.4451
 50.5576  7418.41  85.4646
 50.5996  7351.98  85.3723
 50.6416  7307.95  85.0422
 50.6836  7356.6  85.3923
 50.7256  7428.74  85.7308
 50.7676  7404.03  85.9178
 50.8096  7383.07  85.3172
 50.8516  7376.09  85.6946
 50.8936  7308.98  85.0858
 50.9356  7411.89  85.7932
 50.9776  7285.08  85.218
 51.0196  7216.22  84.9515
 51.0616  7261.63  84.5205
 51.1036  7196.56  84.5079
 51.1456  7227.14  84.5944
 51.1876  7205.87  83.7958
 51.2296  7260.84  84.7428
 51.2716  7127.56  83.6857
 51.3136  7183.68  84.4881
 51.3556  7099.45  83.5981
 51.3976  7260.34  84.6965
 51.4396  7127.39  84.2415
 51.4816  7139.92  84.1647
 51.5236  7234.37  84.8115
 51.5656  7133.43  83.8049
 51.6076  7116.44  83.791
 51.6496  7063.99  83.6723
 51.6916  7066.66  84.0547
 51.7336  7103.33  84.3636
 51.7756  7059.07  83.7801
 51.8176  7156.81  84.4849
 51.8596  7053.26  83.8854
 51.9016  7296.63  84.9131
 51.9436  7213.51  85.9626
 51.9856  7161.13  86.0587
 52.0276  7263.22  85.109
 52.0696  7291.48  85.346
 52.1116  7154.29  84.6726
 52.1536  7176.56  84.6347
 52.1956  7097.82  83.6744
 52.2376  7270.63  84.858
 52.2796  7303.23  84.8561
 52.3216  7022.22  83.9106
 52.3636  7101.18  83.9341
 52.4056  7040.87  83.4448
 52.4476  7126.72  84.3173
 52.4896  7101.51  84.2281
 52.5316  7323.69  85.5903
 52.5736  7126.03  84.1223
 52.6156  7091.97  84.3392
 52.6576  7063.07  83.5864
 52.6996  6971.33  84.0478
 52.7416  6984.57  83.983
 52.7836  7111.45  84.6288
 52.8256  7229.06  84.5094
 52.8676  6884.63  83.0529
 52.9096  7140.7  84.648
 52.9516  7031.8  84.4059
 52.9936  7073.61  85.0554
 53.0356  7001.5  83.5909
 53.0776  7083.5  84.3569
 53.1196  7158.91  84.9358
 53.1616  7205.21  85.2653
 53.2036  7094.25  84.5641
 53.2456  7049.5  84.4048
 53.2876  7169.81  84.7943
 53.3296  7110.9  84.7908
 53.3716  7193.78  85.0177
 53.4136  7071.35  84.4538
 53.4556  7073.06  84.4904
 53.4976  6939.53  83.5263
 53.5396  7018.15  84.3957
 53.5816  7111.42  84.5856
 53.6236  6970.87  84.1116
 53.6656  6937.73  83.4754
 53.7076  7243.65  85.282
 53.7496  7096.86  84.5343
 53.7916  7064.18  84.5004
 53.8336  7087.54  84.5143
 53.8756  6830.86  83.5249
 53.9176  6911.71  83.3587
 53.9596  6811.97  83.5309
 54.0016  6830.37  82.951
 54.0436  6742.17  82.6422
 54.0856  6921.84  83.1465
 54.1276  6754.9  82.3367
 54.1696  6725.29  82.3275
 54.2116  6942.75  83.3836
 54.2536  6754.97  82.0657
 54.2956  6831.56  82.5734
 54.3376  6699.18  82.2726
 54.3796  6753.1  82.4908
 54.4216  6691.75  82.1528
 54.4636  6713.02  82.2663
 54.5056  6793.46  82.5616
 54.5476  6750.34  82.6454
 54.5896  6764.95  82.5616
 54.6316  6766.76  82.4025
 54.6736  6724.87  82.2386
 54.7156  6666.86  81.9227
 54.7576  6584.7  81.3967
 54.7996  6800.69  82.8857
 54.8416  6685.7  82.2301
 54.8836  6809.49  83.0752
 54.9256  6730.9  82.3618
 54.9676  6576.19  81.2497
 55.0096  6671.05  81.8864
 55.0516  6602.78  81.7036
 55.0936  6631.57  81.5407
 55.1356  6598.85  81.3752
 55.1776  6790.64  82.7981
 55.2196  6651.73  81.7351
 55.2616  6849.94  83.181
 55.3036  6674.33  82.2739
 55.3456  6546.37  81.6285
 55.3876  6624.34  81.8158
 55.4296  6501.41  81.0759
 55.4716  6511.56  81.1618
 55.5136  6556.9  81.1969
 55.5556  6816.49  82.8361
 55.5976  6640.53  81.8418
 55.6396  6610.87  81.5284
 55.6816  6525.27  80.9497
 55.7236  6490.27  80.7854
 55.7656  6536.91  80.81
 55.8076  6491.19  80.5149
 55.8496  6700.29  82.2422
 55.8916  6415.12  80.5744
 55.9336  6676.57  82.0162
 55.9756  6498.67  80.8074
 56.0176  6487.19  80.8698
 56.0596  6575.6  81.4214
 56.1016  6437.08  80.5798
 56.1436  6461.81  80.996
 56.1856  6383.03  80.242
 56.2276  6580.5  81.52
 56.2696  6497.31  80.9664
 56.3116  6622.44  82.1546
 56.3536  6559.51  81.4103
 56.3956  6567.6  81.4457
 56.4376  6463.06  80.8455
 56.4796  6403.84  80.2842
 56.5216  6463.31  81.0309
 56.5636  6419.84  80.3174
 56.6056  6580.11  81.5694
 56.6476  6482.19  80.5539
 56.6896  6672.34  82.2086
 56.7316  6434.81  80.6544
 56.7736  6420.38  80.5541
 56.8156  6535.41  81.2947
 56.8576  6279.49  79.6231
 56.8996  6383.11  80.1666
 56.9416  6371.54  80.4389
 56.9836  6511.82  80.8239
 57.0256  6448.93  80.7614
 57.0676  6501.95  81.1921
 57.1096  6375.26  80.1902
 57.1516  6396.03  80.376
 57.1936  6509.12  80.8476
 57.2356  6255.06  79.5812
 57.2776  6401.36  80.4679
 57.3196  6368.06  80.5931
 57.3616  6344.46  79.937
 57.4036  6464.67  80.759
 57.4456  6479.18  80.82
 57.4876  6434.85  80.4186
 57.5296  6304.94  79.9322
 57.5716  6347.11  80.1955
 57.6136  6298.63  79.7261
 57.6556  6390.09  80.4147
 57.6976  6386.86  80.2409
 57.7396  6234.45  79.6309
 57.7816  6268.23  80.2082
 57.8236  6312.39  80.2845
 57.8656  6376.41  80.3442
 57.9076  6269.1  79.6812
 57.9496  6261.95  80.0104
 57.9916  6332.77  79.9708
 58.0336  6312.49  80.1297
 58.0756  6229.47  79.1977
 58.1176  6341.21  79.9297
 58.1596  6244.99  79.9111
 58.2016  6108.53  78.2529
 58.2436  6076.99  78.4604
 58.2856  6112.49  78.61
 58.3276  6091.91  78.8492
 58.3696  6039.07  78.2628
 58.4116  6036.74  78.1132
 58.4536  6130.01  78.6013
 58.4956  5935.07  77.5191
 58.5376  6156.63  78.5204
 58.5796  6037.12  78.1756
 58.6216  6144.49  78.6873
 58.6636  6047.6  78.2713
 58.7056  6146.18  78.7647
 58.7476  6078.69  78.7776
 58.7896  6058.06  78.2885
 58.8316  6050.21  78.2345
 58.8736  6104.09  78.589
 58.9156  6017.85  78.0788
 58.9576  5988.1  78.1953
 58.9996  6165.34  78.5961
 59.0416  6169.14  78.9823
 59.0836  6108.59  78.4961
 59.1256  6104.73  79.1941
 59.1676  5999.02  78.815
 59.2096  5975.92  77.9664
 59.2516  6065.15  78.1265
 59.2936  6108  78.7319
 59.3356  5889.98  77.1933
 59.3776  5979.7  77.9472
 59.4196  6061.47  78.4136
 59.4616  6150.42  78.8461
 59.5036  5918.51  77.3803
 59.5456  6036  77.8381
 59.5876  5968.83  77.5937
 59.6296  5968.15  77.6581
 59.6716  6026.47  78.0945
 59.7136  5923.54  77.4131
 59.7556  5944.27  77.6838
 59.7976  5946.94  77.4454
 59.8396  5982.96  77.5744
 59.8816  6067.47  78.6656
 59.9236  5987.67  77.7931
 59.9656  5994.07  78.0945
 60.0076  6107.57  78.1841
 60.0496  6049.17  78.3112
 60.0916  6123.85  78.2096
 60.1336  5969.45  78.3182
 60.1756  5986.57  79.6095
 60.1996  0.0000000E+00  0.0000000E+00