File: docs/examples/opeando_xrd/IS17_D/Data/IS17_D/17_Db_f00149.xye
# /beamlines/bl04/projects/cycle2025-II/20250340211-lsimonelli/DATA/IS17_D/17_Db_f00149.xye : mythproc.py merge -s 0.006 -l 0.5 -f /beamlines/bl04/inhouse/ff/FlatField/ff_20Nov2024rod8mm60s_17keV.raw -b True -c true -o xye /beamlines/bl04/projects/cycle2025-II/20250340211-lsimonelli/DATA/IS17_D/17_Db_00149.dat
# IsMon = [6738239, 6742050, 6742588]  IsPos = [-1.4999, -2.4883, -3.4988]
# Wave = 0.4962  CalPath /beamlines/bl04/projects/cycle2025-II/20250340211-lsimonelli/DATA/Align/Si_Pos1_25keV_f00001.cal
# Date = 2025-09-25_11:13:23 Dt = 4.8000  Bin = 0.0060  <imon> = 6740959 +/- 1936 (Min/Max) 6738239 / 6742588
# icurr 249.4715  mocoIn 1.7018E-05  mocoOut 0.7989  i15 7.06541e+06  imon 6.74096e+06  i7 3.3333  iEMpd_timer 4.8000  iEMpd_1 3.4350E-08  iEMpd_2 7.7956E-08  iEMpd_3 1.7582E-08  iEMpd_4 4.7917E-08  iEMhp_timer 4.8000  iEMhp_1 4.8727E-06  iEMhp_2 -2.5095E-08  iEMhp_3 -2.3352E-08  iEMhp_4 -2.0945E-08
#      9776
 1.5856  44364.3  216.326
 1.6276  51726.9  229.579
 1.6696  56475.7  239.04
 1.7116  64184.3  255.33
 1.7536  71624.4  268.574
 1.7956  75575.7  276.572
 1.8376  72108  270.581
 1.8796  62860.4  250.772
 1.9216  51683.5  228.298
 1.9636  44665.9  211.364
 2.0056  40758  201.123
 2.0476  37753.6  195.691
 2.0896  36798.6  192.067
 2.1316  35537.2  187.839
 2.1736  33846.9  184.772
 2.2156  34504.7  185.061
 2.2576  33262.4  182.343
 2.2996  31935.4  179.332
 2.3416  32352.5  179.059
 2.3836  31768.9  177.546
 2.4256  30615.9  174.862
 2.4676  30153.2  173.289
 2.5096  30089.2  173.162
 2.5516  28524.5  172.426
 2.5936  28599.4  169.214
 2.6356  28156.7  168.604
 2.6776  27807.2  166.448
 2.7196  27777.2  166.467
 2.7616  27639.5  166.226
 2.8036  26948.6  164.297
 2.8456  26870.4  164.704
 2.8876  26141.3  162.303
 2.9296  26050  162.16
 2.9716  25942.1  161.309
 3.0136  25506.2  160.017
 3.0556  25789.3  161.298
 3.0976  25613.5  159.649
 3.1396  25113.2  158.802
 3.1816  25170.4  158.651
 3.2236  24750.7  157.579
 3.2656  24642  156.278
 3.3076  24366.8  156.881
 3.3496  24687.2  156.82
 3.3916  25186.4  158.221
 3.4336  25250.3  159.019
 3.4756  25974.5  161.227
 3.5176  26592.3  162.901
 3.5596  26295.5  164.452
 3.6016  26394.2  162.346
 3.6436  25415.1  160.413
 3.6856  25255  158.203
 3.7276  24172.6  155.854
 3.7696  24119.1  155.877
 3.8116  23742.5  154.545
 3.8536  23853.6  154.839
 3.8956  23865.4  154.696
 3.9376  23596.5  154.091
 3.9796  23604.9  153.604
 4.0216  23493.5  152.267
 4.0636  23638.9  154.211
 4.1056  23505.6  153.439
 4.1476  23933.4  155.147
 4.1896  23955.8  155.078
 4.2316  24081.7  155.308
 4.2736  24575.8  156.686
 4.3156  24556  156.857
 4.3576  25489.6  159.715
 4.3996  25577.9  160.27
 4.4416  26074.3  161.398
 4.4836  26491.7  162.845
 4.5256  27134.8  165.429
 4.5676  26947.2  165.106
 4.6096  27616.2  165.793
 4.6516  27996  166.62
 4.6936  27957.3  167.334
 4.7356  28055.6  167.455
 4.7776  27977.5  167.039
 4.8196  27976.2  167.704
 4.8616  27280.5  165.087
 4.9036  27187.9  164.546
 4.9456  26975.6  164.557
 4.9876  26376.6  162.616
 5.0296  26540.9  162.965
 5.0716  26372.2  163.186
 5.1136  26621.3  163.685
 5.1556  26734.1  163.48
 5.1976  27461.5  165.697
 5.2396  27464.1  165.384
 5.2816  27585.1  166.235
 5.3236  27466.9  165.562
 5.3656  27135.2  165.501
 5.4076  26930.2  165.013
 5.4496  26665.2  163.693
 5.4916  27117.8  164.829
 5.5336  26965.7  164.374
 5.5756  27144.4  164.93
 5.6176  27198  164.527
 5.6596  27504.7  166.454
 5.7016  27469.3  165.604
 5.7436  27808.6  166.906
 5.7856  27573.5  166.264
 5.8276  27805.1  166.664
 5.8696  27999.4  167.43
 5.9116  28062.1  167.919
 5.9536  28349.8  168.83
 5.9956  28418.1  168.414
 6.0376  28607.2  169.595
 6.0796  28747.7  169.843
 6.1216  28771.8  170.156
 6.1636  28986.6  169.797
 6.2056  28796.8  169.913
 6.2476  29091.3  170.658
 6.2896  29188.9  170.619
 6.3316  29204.8  170.844
 6.3736  29107.9  170.447
 6.4156  29324.9  170.974
 6.4576  29350.5  170.662
 6.4996  29350.9  171.13
 6.5416  29392.2  171.388
 6.5836  29373.9  171.574
 6.6256  29741.9  172.2
 6.6676  30023.8  172.586
 6.7096  30012.8  173.423
 6.7516  30284.2  173.857
 6.7936  30573.3  174.088
 6.8356  30590.1  174.231
 6.8776  30653.3  175.204
 6.9196  30819.4  176.083
 6.9616  31274.8  176.823
 7.0036  31824.1  178.021
 7.0456  31715.2  177.008
 7.0876  31602.3  178.386
 7.1296  31738.2  177.891
 7.1716  31806.7  177.628
 7.2136  31349.6  176.126
 7.2556  31752.2  177.412
 7.2976  31798.3  178.043
 7.3396  31517.9  177.468
 7.3816  31621.5  177.978
 7.4236  31864.6  177.956
 7.4656  31857.2  177.395
 7.5076  32206.2  178.51
 7.5496  32060.7  178.647
 7.5916  32257.4  179.24
 7.6336  32738.1  180.457
 7.6756  32627.1  180.002
 7.7176  33268.1  182.094
 7.7596  33076  182.787
 7.8016  33577.7  186.423
 7.8436  33159.3  181.899
 7.8856  33447.7  182.297
 7.9276  33980.4  184.139
 7.9696  33990.9  184.475
 8.0116  35203.5  186.286
 8.0536  35251.1  186.653
 8.0956  35163.9  187.6
 8.1376  35724.4  188.566
 8.1796  36103  190.094
 8.2216  36875.8  190.861
 8.2636  36831.3  191.026
 8.3056  36641.3  191.267
 8.3476  37068.5  191.711
 8.3896  36826.5  191.167
 8.4316  37349.4  192.682
 8.4736  37589.1  192.771
 8.5156  36697.6  190.745
 8.5576  36536.6  191.908
 8.5996  36788.7  190.829
 8.6416  36830.2  192.193
 8.6836  36267.3  190.552
 8.7256  37034  192.005
 8.7676  36704.5  194.073
 8.8096  37046.6  192.278
 8.8516  37185.8  192.209
 8.8936  36536.1  190.479
 8.9356  36754.4  191.381
 8.9776  36874.7  191.768
 9.0196  36946.3  191.636
 9.0616  36880.1  190.955
 9.1036  35900.9  189.569
 9.1456  36058  189.299
 9.1876  36282.7  189.835
 9.2296  36045.6  188.652
 9.2716  35818.3  188.095
 9.3136  35659.1  187.679
 9.3556  36261  189.232
 9.3976  35090.9  186.68
 9.4396  35456.4  187.55
 9.4816  35038.8  186.3
 9.5236  34386.6  184.447
 9.5656  34471.3  185.038
 9.6076  33660.7  183.367
 9.6496  34025.6  184.24
 9.6916  33491.7  182.751
 9.7336  34019.6  183.964
 9.7756  33579.4  184.021
 9.8176  33572.4  183.539
 9.8596  33410.9  181.526
 9.9016  33187.2  180.906
 9.9436  32690.9  179.469
 9.9856  32490.3  179.187
 10.0276  31686.9  177.989
 10.0696  32603  179.605
 10.1116  31374.5  176.461
 10.1536  31244.9  176.245
 10.1956  30959.2  175.051
 10.2376  30868.4  174.307
 10.2796  30714.7  173.978
 10.3216  30404.9  173.39
 10.3636  30297.9  173.104
 10.4056  29580.3  171.441
 10.4476  29986  172.233
 10.4896  29784.4  171.237
 10.5316  29712  171.622
 10.5736  29242.5  170.669
 10.6156  29329.4  170.683
 10.6576  29154.9  168.724
 10.6996  29055.1  169.148
 10.7416  28365.4  167.34
 10.7836  28000.5  166.918
 10.8256  27689.9  166.426
 10.8676  27881.1  166.529
 10.9096  27870  166.539
 10.9516  27482.5  164.309
 10.9936  27260.9  163.862
 11.0356  27191.9  164.26
 11.0776  27247.6  163.755
 11.1196  26663.6  162.764
 11.1616  26503.4  161.94
 11.2036  26564.8  161.976
 11.2456  26384.5  162.135
 11.2876  26818.7  163.194
 11.3296  26211  161.238
 11.3716  26755.9  162.594
 11.4136  26617.1  163.066
 11.4556  26608.6  162.685
 11.4976  27245.5  163.607
 11.5396  27238.1  163.753
 11.5816  26861.7  163.067
 11.6236  26443.2  162.019
 11.6656  26561.9  161.534
 11.7076  25571  159.321
 11.7496  25323  162.57
 11.7916  25249.9  157.566
 11.8336  24811.8  157.082
 11.8756  24713.8  156.331
 11.9176  24790.2  156.239
 11.9596  24916.8  156.822
 12.0016  24627.1  156.396
 12.0436  24772.3  156.583
 12.0856  24157.9  155.119
 12.1276  24188.1  155.174
 12.1696  24158.3  154.196
 12.2116  24291.8  154.609
 12.2536  24092.6  154.808
 12.2956  23815.4  153.248
 12.3376  24310.7  155.05
 12.3796  24018.7  154.596
 12.4216  24059.7  153.918
 12.4636  23616.9  153.431
 12.5056  23794.3  153.269
 12.5476  24179.3  154.013
 12.5896  23769  153.343
 12.6316  24131.7  154.672
 12.6736  23648.4  153.77
 12.7156  23899.3  154.262
 12.7576  23635.7  153.654
 12.7996  23877.3  153.069
 12.8416  23785.5  153.831
 12.8836  24006.9  154.28
 12.9256  24358.8  154.531
 12.9676  24284.5  154.696
 13.0096  24534.7  156.624
 13.0516  24600.1  155.847
 13.0936  24714  156.627
 13.1356  24783.1  155.793
 13.1776  24243.6  155.112
 13.2196  24644.2  156.024
 13.2616  24325.8  155.327
 13.3036  24503.2  155.859
 13.3456  24210.4  155.267
 13.3876  24785  156.388
 13.4296  24423.3  155.391
 13.4716  24455.8  155.124
 13.5136  24492.9  155.376
 13.5556  24577.3  156.278
 13.5976  24565.1  156.407
 13.6396  24506.1  155.567
 13.6816  24599.9  156.339
 13.7236  24940.3  157.01
 13.7656  26463.1  162.177
 13.8076  27040.6  162.577
 13.8496  26744  162.362
 13.8916  24773.3  157.394
 13.9336  24057.9  154.384
 13.9756  24309.2  154.572
 14.0176  23768.8  153.522
 14.0596  24012.9  154.25
 14.1016  23652.9  153.505
 14.1436  23771.4  153.029
 14.1856  23191  151.432
 14.2276  23247.7  152.111
 14.2696  23026  151.223
 14.3116  22595.1  149.71
 14.3536  22542.5  149.704
 14.3956  22339.7  148.749
 14.4376  22784.1  150.01
 14.4796  22582.8  149.344
 14.5216  22272.3  149.107
 14.5636  22158.6  148.289
 14.6056  22225.9  148.079
 14.6476  22070.4  146.799
 14.6896  21690.6  146.073
 14.7316  21380.9  146.065
 14.7736  21367.5  145.155
 14.8156  21111.4  144.303
 14.8576  21066.9  144.008
 14.8996  20543.6  143.403
 14.9416  20285.2  142.513
 14.9836  20347.8  142.716
 15.0256  19708.5  139.367
 15.0676  19719.7  139.845
 15.1096  19482.8  138.608
 15.1516  19329.3  138.619
 15.1936  19247.9  137.762
 15.2356  19063.9  137.254
 15.2776  19011  136.779
 15.3196  18502.9  135.919
 15.3616  18466.6  135.546
 15.4036  18292.1  134.768
 15.4456  18612.3  135.596
 15.4876  18317.3  134.202
 15.5296  18099.7  133.687
 15.5716  17905.3  132.572
 15.6136  18121  133.696
 15.6556  17853  131.952
 15.6976  17740.4  131.828
 15.7396  17643  131.845
 15.7816  17618.4  131.274
 15.8236  17413.5  131.194
 15.8656  17582.2  131.622
 15.9076  17223.3  130.095
 15.9496  17990.1  135.803
 15.9916  17645.3  134.891
 16.0336  17777.5  132.267
 16.0756  17525.4  131.641
 16.1176  17506.8  131.657
 16.1596  16855.5  130.354
 16.2016  17057.4  129.881
 16.2436  17079.2  130.352
 16.2856  17013.5  129.607
 16.3276  16572.4  128.348
 16.3696  16963  129.688
 16.4116  16773.4  129.393
 16.4536  16813.4  129.37
 16.4956  16812.8  129.109
 16.5376  16530.4  128.198
 16.5796  16499.1  127.439
 16.6216  16551.2  127.919
 16.6636  16245.4  126.905
 16.7056  16654.6  128.362
 16.7476  16666.2  127.929
 16.7896  16488.4  127.994
 16.8316  16565.3  128.272
 16.8736  16755.5  129.268
 16.9156  16530.8  128.724
 16.9576  16336.8  128.751
 16.9996  16126.6  128.397
 17.0416  16550.3  128.438
 17.0836  16518.1  128.082
 17.1256  16182.3  126.782
 17.1676  16332.7  127.34
 17.2096  16118.3  126.378
 17.2516  15885.9  125.263
 17.2936  15939.4  125.823
 17.3356  15929.9  125.778
 17.3776  15685.3  124.992
 17.4196  15694.4  124.719
 17.4616  15755.4  124.873
 17.5036  15432.8  123.952
 17.5456  15230.3  123.777
 17.5876  15186.5  122.64
 17.6296  15407.3  123.366
 17.6716  15328.9  123.63
 17.7136  15276.1  123.554
 17.7556  15092.2  123.089
 17.7976  15148.5  123.047
 17.8396  14962.9  121.804
 17.8816  14942.3  122.278
 17.9236  14985.1  122.249
 17.9656  14854  122.233
 18.0076  14850.4  121.801
 18.0496  14786.4  120.681
 18.0916  14941.7  121.867
 18.1336  14811.8  121.429
 18.1756  14934.9  121.481
 18.2176  14658.6  120.559
 18.2596  14685.5  120.395
 18.3016  15019.5  122.027
 18.3436  14751.6  120.935
 18.3856  14848.2  121.476
 18.4276  14631.7  120.262
 18.4696  14608.8  120.251
 18.5116  14664.4  120.757
 18.5536  14557.7  120.683
 18.5956  14387.9  119.535
 18.6376  14242.1  119.323
 18.6796  14385.2  119.243
 18.7216  14419.9  119.874
 18.7636  14478.7  120.137
 18.8056  14367.5  119.593
 18.8476  13986.4  118.615
 18.8896  14394.2  119.663
 18.9316  14345.9  119.438
 18.9736  14194.5  118.513
 19.0156  14152  118.75
 19.0576  14321.2  118.31
 19.0996  14205.1  118.67
 19.1416  14206.2  118.942
 19.1836  14187.9  118.468
 19.2256  14171.5  118.613
 19.2676  14068.1  118.27
 19.3096  14128.6  118.768
 19.3516  14042  118.369
 19.3936  13967  117.938
 19.4356  14208.6  118.844
 19.4776  14153.9  118.705
 19.5196  14072.6  118.216
 19.5616  13966.9  118.029
 19.6036  13928.4  117.353
 19.6456  14034.6  117.922
 19.6876  14034.8  117.555
 19.7296  14294.9  119.107
 19.7716  13934.7  117.777
 19.8136  14272.7  119.395
 19.8556  14448.9  119.605
 19.8976  14252.7  118.848
 19.9396  14337.9  118.787
 19.9816  14511.7  119.827
 20.0236  14703.5  120.74
 20.0656  14610.4  120.35
 20.1076  14589.3  120.762
 20.1496  14062  118.551
 20.1916  14147.8  118.427
 20.2336  13786.1  116.82
 20.2756  13576.2  116.371
 20.3176  13630.5  116.346
 20.3596  13551.8  115.994
 20.4016  13508.9  115.605
 20.4436  13316.1  115.337
 20.4856  13497  115.918
 20.5276  13272  115.407
 20.5696  13527.3  115.955
 20.6116  13272.2  115.137
 20.6536  13285  114.701
 20.6956  13201.4  114.472
 20.7376  12979.5  113.713
 20.7796  13181.2  114.29
 20.8216  13343.9  114.705
 20.8636  13159.5  114.284
 20.9056  13112.7  114.012
 20.9476  13120.5  113.9
 20.9896  13244.4  114.296
 21.0316  13040.8  113.311
 21.0736  13026.9  113.774
 21.1156  12933.1  113.518
 21.1576  13142  114.473
 21.1996  13084.5  114.209
 21.2416  12996.1  113.65
 21.2836  13161.5  114.345
 21.3256  13059.9  113.981
 21.3676  13126.2  113.798
 21.4096  12913.6  113.202
 21.4516  12836.9  112.732
 21.4936  12593.7  111.924
 21.5356  12929.9  113.348
 21.5776  13024.2  113.59
 21.6196  12844.6  112.853
 21.6616  12631.8  111.995
 21.7036  12823.3  112.615
 21.7456  12786.3  112.528
 21.7876  12720  111.999
 21.8296  12687.7  111.706
 21.8716  12797.1  112.411
 21.9136  12883.1  112.991
 21.9556  12742.8  112.048
 21.9976  12591.9  111.412
 22.0396  12609.6  111.743
 22.0816  12657.8  112.482
 22.1236  12768.3  112.432
 22.1656  12637.9  111.998
 22.2076  12499.3  110.835
 22.2496  12468.8  110.726
 22.2916  12346.4  110.071
 22.3336  12453.8  111.263
 22.3756  12501.8  111.196
 22.4176  12215.2  109.769
 22.4596  12144.5  110.035
 22.5016  12070.2  109.209
 22.5436  12317.3  110.195
 22.5856  12526.7  111.378
 22.6276  12458.8  111.246
 22.6696  12444.7  111.503
 22.7116  12458.4  111.075
 22.7536  12359.7  110.61
 22.7956  12405  110.152
 22.8376  12264  110.037
 22.8796  12456.8  110.7
 22.9216  12444.6  111.189
 22.9636  12343.8  109.898
 23.0056  12206.9  109.419
 23.0476  12431.6  110.989
 23.0896  12614.9  111.182
 23.1316  12409.6  110.706
 23.1736  12560.1  114.123
 23.2156  12660.3  112.163
 23.2576  12943  113.545
 23.2996  12541.6  111.543
 23.3416  12838.9  113.395
 23.3836  12753.3  112.229
 23.4256  12918.7  113.091
 23.4676  12793.9  112.228
 23.5096  12684.1  112.395
 23.5516  12598.3  111.328
 23.5936  12659.5  112.507
 23.6356  12751.3  112.575
 23.6776  12519.5  111.755
 23.7196  12401.8  110.809
 23.7616  12549  111.383
 23.8036  12824.6  112.66
 23.8456  12480.9  110.686
 23.8876  12478.2  111.04
 23.9296  12311.2  110.767
 23.9716  12421  110.473
 24.0136  12425.7  111.399
 24.0556  12265.9  110.394
 24.0976  12192.6  109.877
 24.1396  12104.8  112.094
 24.1816  12349.3  111.641
 24.2236  12237.3  110.75
 24.2656  12225.3  110.162
 24.3076  11925.8  109.078
 24.3496  12052.7  109.523
 24.3916  11993.7  109.319
 24.4336  11995.1  109.529
 24.4756  11947  109.192
 24.5176  12017.8  109.136
 24.5596  11861  108.54
 24.6016  11802  108.577
 24.6436  12010.4  109.036
 24.6856  11971.7  108.592
 24.7276  11712.6  107.735
 24.7696  11777.6  108.14
 24.8116  11509.4  107.079
 24.8536  11629  107.648
 24.8956  11514.4  106.846
 24.9376  11570.3  107.03
 24.9796  11399.7  106.607
 25.0216  11330.7  106.398
 25.0636  11431  106.521
 25.1056  11105.7  105.685
 25.1476  11249.5  107.968
 25.1896  11195.8  106.244
 25.2316  11205.7  105.57
 25.2736  11206  105.225
 25.3156  11209.5  105.318
 25.3576  11127.5  105.361
 25.3996  11161.1  105.51
 25.4416  11132.8  105.347
 25.4836  10961.9  105.057
 25.5256  11051.8  104.846
 25.5676  11040.6  104.516
 25.6096  10943.3  104.635
 25.6516  11019.6  104.505
 25.6936  11090  105.155
 25.7356  10975.4  104.739
 25.7776  11026.2  104.59
 25.8196  10818.4  103.84
 25.8616  10867.2  103.996
 25.9036  11010.9  104.132
 25.9456  10893.3  104.174
 25.9876  10916.7  104.356
 26.0296  10980.7  104.174
 26.0716  11037.4  104.872
 26.1136  10949.7  104.387
 26.1556  10998.2  103.994
 26.1976  10845.8  104.201
 26.2396  10860.8  103.422
 26.2816  10999.7  104.699
 26.3236  10842  104.099
 26.3656  11065.1  104.897
 26.4076  10704.1  103.336
 26.4496  11033.5  104.54
 26.4916  11206.6  105.25
 26.5336  11341.1  106.227
 26.5756  11491.4  106.802
 26.6176  10957  104.284
 26.6596  10866.5  104.181
 26.7016  10819.6  103.716
 26.7436  10843.6  103.974
 26.7856  10560.8  102.597
 26.8276  10610.5  102.804
 26.8696  10638.4  102.801
 26.9116  10466.1  101.902
 26.9536  10540.2  102.313
 26.9956  10494.7  102.129
 27.0376  10621.3  102.973
 27.0796  10576.4  102.472
 27.1216  10480.3  102.065
 27.1636  10270.8  101.203
 27.2056  10410.4  101.771
 27.2476  10404.1  101.737
 27.2896  10362.5  101.676
 27.3316  10407.2  101.586
 27.3736  10300.5  101.338
 27.4156  10320.5  101.277
 27.4576  10381.5  101.802
 27.4996  10339.2  101.189
 27.5416  10275.2  101.186
 27.5836  10244.9  100.876
 27.6256  10245.4  101.053
 27.6676  10293.8  101.283
 27.7096  10326.4  101.328
 27.7516  10290.6  101.291
 27.7936  10474.4  102.36
 27.8356  10274.3  100.977
 27.8776  10393.7  101.63
 27.9196  10271.6  100.89
 27.9616  10197.9  100.724
 28.0036  10136.1  100.373
 28.0456  10076.1  100.218
 28.0876  9946.26  99.6543
 28.1296  10016.1  99.7767
 28.1716  10080.4  100.181
 28.2136  10151.8  100.503
 28.2556  10085.8  100.293
 28.2976  9805.34  98.8788
 28.3396  9947.77  99.3549
 28.3816  9998.9  99.6059
 28.4236  9900.88  99.2794
 28.4656  9980.61  99.7159
 28.5076  9837.93  98.6457
 28.5496  9958.01  99.4957
 28.5916  10021.4  99.6308
 28.6336  9896.67  99.35
 28.6756  9995.59  99.0416
 28.7176  9896.58  98.9951
 28.7596  9874.49  98.8778
 28.8016  9848.89  98.7908
 28.8436  9650.08  98.031
 28.8856  9726.17  98.3134
 28.9276  9773.87  98.7557
 28.9696  9762.92  98.3481
 29.0116  9662.99  98.037
 29.0536  9698.07  98.4209
 29.0956  9801.33  98.6395
 29.1376  9761.64  98.4155
 29.1796  9762.76  98.4701
 29.2216  9598.21  97.4772
 29.2636  9706.79  98.1007
 29.3056  9679.44  97.7468
 29.3476  9777.6  98.7725
 29.3896  9617.36  98.0692
 29.4316  9563.88  97.1272
 29.4736  9406.51  96.3844
 29.5156  9710.18  97.8487
 29.5576  9542.96  97.7417
 29.5996  9351.86  96.0244
 29.6416  9356.83  96.1708
 29.6836  9400.11  96.3211
 29.7256  9340.82  96.3415
 29.7676  9266.42  95.8556
 29.8096  9492.08  96.9584
 29.8516  9261.62  96.1036
 29.8936  9392.59  96.8717
 29.9356  9357.19  96.4466
 29.9776  9282.45  96.2089
 30.0196  9386.84  96.4106
 30.0616  9312.2  96.1315
 30.1036  9319.79  95.9993
 30.1456  9352.44  96.396
 30.1876  9271.24  95.9578
 30.2296  9256.83  95.8313
 30.2716  9415.71  96.2889
 30.3136  9289.87  96.4916
 30.3556  9533.68  97.7526
 30.3976  9408.15  98.6019
 30.4396  9787.97  97.9015
 30.4816  9611.98  96.6237
 30.5236  9608.3  96.5999
 30.5656  9437.39  96.4068
 30.6076  9447.61  95.8678
 30.6496  9585.77  96.9805
 30.6916  9326.52  95.7386
 30.7336  9480.13  96.6874
 30.7756  9544.89  97.0859
 30.8176  9598.62  97.2873
 30.8596  9390.18  95.9938
 30.9016  9467.78  96.7222
 30.9436  9509.98  96.6856
 30.9856  9622.63  97.3862
 31.0276  9440.66  96.0853
 31.0696  9284.69  95.8351
 31.1116  9475.05  96.794
 31.1536  9359.48  96.0651
 31.1956  9305.1  95.8794
 31.2376  9070.68  94.6922
 31.2796  9293  95.3768
 31.3216  9180.66  94.7273
 31.3636  9417.03  96.6477
 31.4056  9291.42  97.3126
 31.4476  9407.39  95.8185
 31.4896  9241.12  95.4665
 31.5316  9308.55  95.2115
 31.5736  9444.57  95.7402
 31.6156  9401.35  95.5259
 31.6576  9519.02  96.194
 31.6996  9484.03  95.6913
 31.7416  9255.6  95.615
 31.7836  9404.4  95.3682
 31.8256  9434.19  95.7987
 31.8676  9550.89  96.3705
 31.9096  9175.47  94.8225
 31.9516  9075.92  94.4889
 31.9936  9145.97  94.6684
 32.0356  9296.48  95.4809
 32.0776  9258.22  95.1983
 32.1196  9235.91  95.1891
 32.1616  9272.97  94.8277
 32.2036  9233.05  95.1328
 32.2456  9166.84  95.1724
 32.2876  9162.48  94.6478
 32.3296  9144.75  94.5229
 32.3716  8860.83  93.1489
 32.4136  9051.48  94.3459
 32.4556  9080.58  93.8851
 32.4976  8974.25  93.2451
 32.5396  9035.83  93.6181
 32.5816  9054.02  93.8464
 32.6236  9031.01  93.7918
 32.6656  9111.03  94.7557
 32.7076  9046.74  94.0721
 32.7496  8894.5  92.9452
 32.7916  9099.93  93.9789
 32.8336  8973.89  93.4135
 32.8756  9116.04  93.8723
 32.9176  8812.85  92.7761
 32.9596  8882.98  93.2263
 33.0016  8929.59  93.2437
 33.0436  8983.83  93.6973
 33.0856  8927.46  93.4967
 33.1276  8816.8  92.6449
 33.1696  9003.96  93.4417
 33.2116  8913.08  93.2119
 33.2536  9053.64  93.9362
 33.2956  8924.13  93.3501
 33.3376  8938.53  93.165
 33.3796  8927.79  93.3256
 33.4216  8875.84  92.647
 33.4636  8904.72  92.9493
 33.5056  8761.51  92.4444
 33.5476  8796.5  92.6142
 33.5896  8821.13  92.5278
 33.6316  8707.74  92.2448
 33.6736  8668.7  92.2763
 33.7156  8707.24  92.5095
 33.7576  8888.02  93.1121
 33.7996  8827.95  92.5538
 33.8416  8595.5  91.5145
 33.8836  8637.97  91.5148
 33.9256  8877.18  92.8357
 33.9676  8790.09  92.2773
 34.0096  8705.56  92.1464
 34.0516  8698.88  91.7421
 34.0936  8544.56  91.1996
 34.1356  8709.8  91.8094
 34.1776  8614.75  91.3039
 34.2196  8690.25  91.8957
 34.2616  8581.18  91.452
 34.3036  8670.85  92.1772
 34.3456  8622.51  91.6719
 34.3876  8748.35  92.3133
 34.4296  8565.06  91.0288
 34.4716  8657.17  91.665
 34.5136  8576.42  91.4266
 34.5556  8559.6  91.597
 34.5976  8633.22  91.8047
 34.6396  8522.66  91.0403
 34.6816  8766.22  92.3204
 34.7236  8605.59  91.252
 34.7656  8632.4  91.5994
 34.8076  8503.86  91.2492
 34.8496  8546.14  91.3924
 34.8916  8703.02  92.0207
 34.9336  8525.35  91.054
 34.9756  8585.87  91.2999
 35.0176  8602.99  91.923
 35.0596  8685.37  92.1824
 35.1016  8595.89  91.4619
 35.1436  8762.95  92.0312
 35.1856  8490.15  90.7119
 35.2276  8412.13  90.4555
 35.2696  8508.24  91.1714
 35.3116  8454.83  90.9843
 35.3536  8406.21  90.4268
 35.3956  8422.25  90.232
 35.4376  8523.78  91.3487
 35.4796  8575.5  91.6476
 35.5216  8503.06  91.2321
 35.5636  8291.74  90.827
 35.6056  8287.31  89.8282
 35.6476  8441.15  90.5613
 35.6896  8510.71  91.023
 35.7316  8381.03  90.3064
 35.7736  8317.53  90.1386
 35.8156  8460.98  90.9264
 35.8576  8470.16  91.2183
 35.8996  8433.43  90.9843
 35.9416  8444.94  90.559
 35.9836  8449.65  90.9304
 36.0256  8569.43  91.5769
 36.0676  8534.52  91.1561
 36.1096  8360.65  90.3717
 36.1516  8462.63  90.8081
 36.1936  8408.52  90.351
 36.2356  8466.39  91.3236
 36.2776  8262.7  89.6925
 36.3196  8347.72  89.8322
 36.3616  8407.19  90.2789
 36.4036  8350  90.0422
 36.4456  8467.73  90.8794
 36.4876  8249.32  89.6389
 36.5296  8253.83  89.7072
 36.5716  8396.31  91.2595
 36.6136  8173.46  88.8177
 36.6556  8143.08  88.8534
 36.6976  7967.25  88.3784
 36.7396  7980.02  88.3546
 36.7816  7975.15  88.5278
 36.8236  8079.7  89.0269
 36.8656  8104.33  89.227
 36.9076  7988.33  88.4742
 36.9496  8040.25  88.7483
 36.9916  7929.97  87.7753
 37.0336  8154.72  89.3228
 37.0756  8161.09  89.1522
 37.1176  7913.83  88.0543
 37.1596  8077.37  88.9605
 37.2016  8022.16  88.8862
 37.2436  8095.92  88.613
 37.2856  7965.13  88.1472
 37.3276  8091.64  88.2012
 37.3696  7985.52  88.4928
 37.4116  7863.13  87.7225
 37.4536  7987.82  88.1327
 37.4956  7869.91  87.6706
 37.5376  8148.54  90.809
 37.5796  8020.36  90.0202
 37.6216  7868.26  87.4519
 37.6636  8163.8  88.9812
 37.7056  8095.07  88.7925
 37.7476  8205.56  88.9297
 37.7896  8080.06  88.755
 37.8316  8097.41  89.0051
 37.8736  7992.54  87.9532
 37.9156  8094.27  88.505
 37.9576  8150.63  88.732
 37.9996  8093.22  88.1323
 38.0416  8030.88  88.5996
 38.0836  8254.13  89.7169
 38.1256  8039.81  88.5233
 38.1676  7923.88  87.9978
 38.2096  8072.78  88.4384
 38.2516  8038.91  88.4688
 38.2936  8115.9  88.6953
 38.3356  8096.54  88.5119
 38.3776  8024.36  88.3728
 38.4196  8005.1  88.1153
 38.4616  7950.12  88.0615
 38.5036  8129.47  88.8918
 38.5456  7870.07  88.2778
 38.5876  7909.24  88.6833
 38.6296  8068.21  88.3665
 38.6716  8002.88  87.8212
 38.7136  8056.15  88.0574
 38.7556  7994.22  88.2258
 38.7976  8079.6  88.6228
 38.8396  7873.89  87.7547
 38.8816  7867  87.6962
 38.9236  7966.91  88.0617
 38.9656  7903.08  87.6147
 39.0076  8077.74  87.9633
 39.0496  8046.78  88.3692
 39.0916  7992.4  87.7103
 39.1336  7902.41  87.6199
 39.1756  8000.7  88.2217
 39.2176  7890.5  88.1467
 39.2596  7985.54  88.5955
 39.3016  7922.08  87.7647
 39.3436  7866.08  87.9294
 39.3856  8061.3  88.4515
 39.4276  8030.9  88.8067
 39.4696  8006.15  88.2884
 39.5116  8079.13  89.2042
 39.5536  7995.51  89.1557
 39.5956  7968.04  88.1085
 39.6376  7916.56  87.8173
 39.6796  7959.4  87.8076
 39.7216  7936.45  87.776
 39.7636  7895.71  88.096
 39.8056  7982.57  88.3852
 39.8476  7935.27  88.3795
 39.8896  7922.25  87.9392
 39.9316  7776.69  87.3706
 39.9736  7998.58  88.2637
 40.0156  7904.53  87.4941
 40.0576  7829.8  87.4231
 40.0996  8032.47  87.7304
 40.1416  7842.25  87.4848
 40.1836  7994.3  88.2143
 40.2256  7915.81  87.8106
 40.2676  7961.56  88.1588
 40.3096  7893.91  87.7226
 40.3516  7990.96  88.3789
 40.3936  7823.58  87.0029
 40.4356  7912.03  87.695
 40.4776  7984.7  88.5059
 40.5196  7949.24  88.3561
 40.5616  8076.66  88.7806
 40.6036  7937.59  88.2694
 40.6456  7956.85  87.9788
 40.6876  8056.46  88.5226
 40.7296  8062.58  88.5723
 40.7716  7954.47  88.2164
 40.8136  7868.14  87.6861
 40.8556  8034.07  88.7387
 40.8976  8080.03  88.9099
 40.9396  7931.37  88.4373
 40.9816  7934.55  87.75
 41.0236  7937.38  87.5438
 41.0656  7955.59  88.1841
 41.1076  7904.54  87.6655
 41.1496  7922.18  87.6701
 41.1916  7838.48  87.5234
 41.2336  7837  87.5208
 41.2756  7962.95  87.8186
 41.3176  8030.01  88.807
 41.3596  8075.21  88.7862
 41.4016  8030.56  88.8008
 41.4436  8020.89  88.5339
 41.4856  7869.2  87.8584
 41.5276  7923.58  88.1721
 41.5696  7833.92  87.3048
 41.6116  7885.74  87.9866
 41.6536  7924.61  88.058
 41.6956  7937.07  88.1975
 41.7376  7863  87.8057
 41.7796  7892.35  87.8486
 41.8216  7994.28  88.6531
 41.8636  7919.82  88.1733
 41.9056  7842.85  87.5439
 41.9476  7877.3  87.8641
 41.9896  7998.41  88.3141
 42.0316  7941.26  88.0791
 42.0736  8050.14  88.7844
 42.1156  7820.04  87.3436
 42.1576  7878.7  87.7491
 42.1996  7991.92  88.5158
 42.2416  7925.74  87.7381
 42.2836  7964.13  88.0844
 42.3256  7905.05  87.866
 42.3676  7980.08  88.0908
 42.4096  8015.97  88.2523
 42.4516  7894.77  87.6684
 42.4936  7769.01  87.0229
 42.5356  7746.89  87.0419
 42.5776  8014.75  88.4738
 42.6196  7887.5  87.8222
 42.6616  7790.83  87.457
 42.7036  7914.59  87.5229
 42.7456  7919.21  87.9101
 42.7876  7734.61  86.9495
 42.8296  7790.54  87.1232
 42.8716  7712  86.8467
 42.9136  7805.72  87.1627
 42.9556  7917.96  87.9143
 42.9976  7887.96  87.714
 43.0396  7795.02  86.9266
 43.0816  7753.05  87.0781
 43.1236  7850.86  87.6782
 43.1656  7846.64  87.4771
 43.2076  7815.61  87.4129
 43.2496  7859.25  87.4774
 43.2916  7802.39  87.5205
 43.3336  7796.12  87.3177
 43.3756  7796.24  87.0762
 43.4176  7669.02  86.4453
 43.4596  7723.26  86.5986
 43.5016  7694.85  86.8483
 43.5436  7682.06  86.6832
 43.5856  7677.28  86.6805
 43.6276  7664.92  86.4938
 43.6696  7713.41  87.0327
 43.7116  7830.35  87.1894
 43.7536  7817.67  87.6129
 43.7956  7707.2  88.2098
 43.8376  7571.46  85.9517
 43.8796  7556.41  85.9435
 43.9216  7540.5  85.7731
 43.9636  7622.9  86.3481
 44.0056  7451.65  85.5984
 44.0476  7525.1  85.6565
 44.0896  7612.56  86.4954
 44.1316  7639.52  86.1707
 44.1736  7562.03  85.8602
 44.2156  7536.29  85.5652
 44.2576  7492.65  85.6372
 44.2996  7595.2  86.192
 44.3416  7555.69  85.7238
 44.3836  7454.03  85.4786
 44.4256  7450.61  85.1065
 44.4676  7449.8  85.2574
 44.5096  7501.5  85.6948
 44.5516  7442.24  85.3177
 44.5936  7466.56  85.4139
 44.6356  7445.01  85.0303
 44.6776  7555.26  85.8923
 44.7196  7475.46  85.8252
 44.7616  7564.2  87.6667
 44.8036  7628.88  86.461
 44.8456  7635.37  86.7065
 44.8876  7613.19  86.4213
 44.9296  7668.83  86.185
 44.9716  7702.76  86.8028
 45.0136  7658  86.491
 45.0556  7763.74  87.0674
 45.0976  7655.38  86.6154
 45.1396  7511.41  85.5593
 45.1816  7588.38  85.9203
 45.2236  7617.64  85.9982
 45.2656  7527.81  85.979
 45.3076  7548.46  85.8843
 45.3496  7401.03  85.3494
 45.3916  7580.28  86.652
 45.4336  7613.63  86.6867
 45.4756  7430.89  85.4863
 45.5176  7575.59  85.9369
 45.5596  7700.33  86.7607
 45.6016  7503.72  86.0699
 45.6436  7685.03  86.262
 45.6856  7435.23  85.5019
 45.7276  7418.01  86.7173
 45.7696  7543.46  87.1301
 45.8116  7565.57  86.6792
 45.8536  7424.85  85.7705
 45.8956  7626.84  86.2672
 45.9376  7477.81  84.8879
 45.9796  7480.72  85.5871
 46.0216  7581.83  86.5169
 46.0636  7695.04  86.2824
 46.1056  7616.48  85.8354
 46.1476  7493.18  85.7315
 46.1896  7417.69  85.4397
 46.2316  7487.18  85.7033
 46.2736  7324.3  85.1477
 46.3156  7562.12  86.0985
 46.3576  7556.49  86.2737
 46.3996  7425.67  85.68
 46.4416  7497.55  85.6659
 46.4836  7449.95  85.7524
 46.5256  7520.86  86.086
 46.5676  7400.83  85.5235
 46.6096  7604.9  86.6252
 46.6516  7562  85.4146
 46.6936  7467  85.3765
 46.7356  7596.45  86.2127
 46.7776  7458.91  86.2797
 46.8196  7386.09  85.4468
 46.8616  7309.54  84.956
 46.9036  7272.42  84.3902
 46.9456  7331.44  84.374
 46.9876  7402.64  84.8678
 47.0296  7331.58  85.1497
 47.0716  7337.78  85.0111
 47.1136  7425.34  85.186
 47.1556  7438.04  85.1328
 47.1976  7549.7  85.8441
 47.2396  7332.9  85.0077
 47.2816  7402.18  85.101
 47.3236  7481.92  85.9204
 47.3656  7485.44  85.8848
 47.4076  7340.77  84.8537
 47.4496  7400.68  85.2966
 47.4916  7370  85.3167
 47.5336  7482.03  85.7675
 47.5756  7490.8  85.9462
 47.6176  7361.09  85.0888
 47.6596  7313.52  84.5248
 47.7016  7630.46  86.1548
 47.7436  7428.27  85.3252
 47.7856  7508.93  85.8356
 47.8276  7470.89  85.6616
 47.8696  7361.35  85.1192
 47.9116  7380.04  84.9397
 47.9536  7400.21  84.9925
 47.9956  7335.65  85.3413
 48.0376  7242.31  84.5658
 48.0796  7393.9  85.5784
 48.1216  7370.37  85.2514
 48.1636  7521.27  85.695
 48.2056  7476.79  85.7086
 48.2476  7547.01  86.4296
 48.2896  7412.42  85.5574
 48.3316  7463.79  85.7926
 48.3736  7419.39  85.5623
 48.4156  7330.21  84.8976
 48.4576  7359.7  85.3672
 48.4996  7449.4  85.3257
 48.5416  7429.89  85.5519
 48.5836  7314.38  84.5514
 48.6256  7462.96  85.6309
 48.6676  7571.41  86.771
 48.7096  7469.61  85.436
 48.7516  7397.44  85.1792
 48.7936  7252.15  84.3946
 48.8356  7401.75  85.3167
 48.8776  7341.05  85.5421
 48.9196  7600.02  86.3936
 48.9616  7305.07  85.0834
 49.0036  7405.56  86.0275
 49.0456  7346.45  85.6561
 49.0876  7375.07  85.3496
 49.1296  7336.89  85.3012
 49.1716  7198.27  84.3574
 49.2136  7398.24  85.4609
 49.2556  7383.53  85.5017
 49.2976  7389.42  85.499
 49.3396  7361.27  85.3903
 49.3816  7377.64  84.9055
 49.4236  7311.4  84.9456
 49.4656  7288.07  84.7907
 49.5076  7394.94  85.1989
 49.5496  7293.91  84.6823
 49.5916  7365.77  85.014
 49.6336  7304.46  84.8539
 49.6756  7350.42  85.3741
 49.7176  7313.61  85.0931
 49.7596  7279  84.6595
 49.8016  7372.85  85.1145
 49.8436  7292.87  84.958
 49.8856  7282.87  84.8984
 49.9276  7278.82  84.976
 49.9696  7291.79  85.0429
 50.0116  7273.04  85.0573
 50.0536  7277.29  85.0392
 50.0956  7232.64  84.8498
 50.1376  7296.72  84.9037
 50.1796  7134.29  84.2393
 50.2216  7263.24  84.9855
 50.2636  7257.78  84.5644
 50.3056  7229.59  84.5805
 50.3476  7267.59  84.8238
 50.3896  7272.07  84.8235
 50.4316  7276.59  84.6735
 50.4736  7187.65  84.3727
 50.5156  7235.7  84.6565
 50.5576  7392.88  85.3164
 50.5996  7301.66  85.2043
 50.6416  7213.25  84.4906
 50.6836  7226.61  84.6241
 50.7256  7343.39  85.2413
 50.7676  7306.75  85.3512
 50.8096  7364.31  85.2013
 50.8516  7102.81  84.0997
 50.8936  7075.39  83.711
 50.9356  7226.63  84.7135
 50.9776  7161.13  84.4915
 51.0196  7003.53  83.6719
 51.0616  7151.13  83.8667
 51.1036  7224.9  84.6647
 51.1456  7148.86  84.1273
 51.1876  7142.52  83.4126
 51.2296  7051.19  83.645
 51.2716  6943.51  82.5894
 51.3136  7064.63  83.7765
 51.3556  7067.05  83.4057
 51.3976  7050.78  83.4561
 51.4396  6897.8  82.8657
 51.4816  6982.64  83.2235
 51.5236  7064.53  83.8176
 51.5656  6993.83  82.9667
 51.6076  7058.33  83.4364
 51.6496  7003.79  83.3081
 51.6916  6983.78  83.5509
 51.7336  6917.96  83.2498
 51.7756  7002.09  83.4436
 51.8176  6992.44  83.4995
 51.8596  6941.14  83.205
 51.9016  7177.62  84.2079
 51.9436  7056.34  85.0219
 51.9856  7012.86  85.1659
 52.0276  7094.82  84.1116
 52.0696  7158.39  84.5811
 52.1116  7044.82  84.0242
 52.1536  7086.58  84.1661
 52.1956  7047.47  83.3815
 52.2376  7172.26  84.293
 52.2796  7175.02  84.1236
 52.3216  6976.21  83.6423
 52.3636  7044.69  83.6075
 52.4056  6947.66  82.8974
 52.4476  7115.58  84.2486
 52.4896  6937.75  83.2553
 52.5316  7087.75  84.2056
 52.5736  7044.24  83.6589
 52.6156  7010.65  83.865
 52.6576  6958.44  82.9737
 52.6996  6792.94  82.9709
 52.7416  6904.21  83.4998
 52.7836  7016.1  84.0662
 52.8256  7110.01  83.8182
 52.8676  6935.11  83.3623
 52.9096  6937.6  83.4569
 52.9516  6960.93  83.9842
 52.9936  6986.13  84.5157
 53.0356  6923.04  83.1228
 53.0776  6999.59  83.8611
 53.1196  6939.69  83.6187
 53.1616  6911.41  83.4922
 53.2036  6889.08  83.3337
 53.2456  6990.75  84.0543
 53.2876  6877.78  83.0547
 53.3296  6893.64  83.4706
 53.3716  7010.5  83.9342
 53.4136  7022.35  84.1538
 53.4556  6935.73  83.6654
 53.4976  6775.83  82.5393
 53.5396  6902.79  83.7025
 53.5816  6922.74  83.4602
 53.6236  6798.65  82.9878
 53.6656  7059.99  84.2264
 53.7076  6945.87  83.508
 53.7496  7076.17  84.4248
 53.7916  6889.35  83.4325
 53.8336  6907.34  83.4481
 53.8756  6775.62  83.1981
 53.9176  6833.15  82.8808
 53.9596  6645.26  82.4967
 54.0016  6593.23  81.4968
 54.0436  6535.51  81.3623
 54.0856  6666.07  81.6032
 54.1276  6668.24  81.8018
 54.1696  6649.41  81.8504
 54.2116  6760.53  82.2826
 54.2536  6668.48  81.5274
 54.2956  6733.44  81.9053
 54.3376  6641.45  81.9078
 54.3796  6606.43  81.5707
 54.4216  6681.14  82.1087
 54.4636  6600.8  81.6325
 54.5056  6721.13  82.1173
 54.5476  6540.88  81.3598
 54.5896  6637.64  81.793
 54.6316  6556.72  81.1327
 54.6736  6554.72  81.2118
 54.7156  6633.71  81.7101
 54.7576  6476.55  80.7239
 54.7996  6574.51  81.4648
 54.8416  6670.12  82.0337
 54.8836  6649.97  82.1073
 54.9256  6563.88  81.3324
 54.9676  6510.6  80.8579
 55.0096  6577.92  81.3002
 55.0516  6404.99  80.4626
 55.0936  6500.77  80.7416
 55.1356  6496.24  80.7436
 55.1776  6615.99  81.7194
 55.2196  6528.17  81.0315
 55.2616  6678.8  82.1239
 55.3036  6395.42  80.5361
 55.3456  6440.23  80.9586
 55.3876  6569.41  81.4916
 55.4296  6370.92  80.2903
 55.4716  6535.11  81.2993
 55.5136  6442.2  80.4845
 55.5556  6705.66  82.1615
 55.5976  6548.82  81.2947
 55.6396  6622.6  81.685
 55.6816  6346.18  79.8346
 55.7236  6364.45  80.0038
 55.7656  6513.19  80.6501
 55.8076  6429.29  80.1347
 55.8496  6342.25  79.9066
 55.8916  6377.09  80.3296
 55.9336  6565.5  81.3416
 55.9756  6420.21  80.3117
 56.0176  6356.09  80.0328
 56.0596  6381.64  80.1983
 56.1016  6314.73  79.8143
 56.1436  6388.63  80.5215
 56.1856  6287.03  79.6374
 56.2276  6517.14  81.1196
 56.2696  6345.3  80.058
 56.3116  6571.86  81.8308
 56.3536  6397.13  80.3899
 56.3956  6327.38  79.9514
 56.4376  6335.08  80.042
 56.4796  6179.24  78.8649
 56.5216  6402.43  80.657
 56.5636  6221.17  79.0784
 56.6056  6417.55  80.5535
 56.6476  6351.1  79.7391
 56.6896  6486.96  81.061
 56.7316  6367.73  80.2237
 56.7736  6374.24  80.26
 56.8156  6274.69  79.6519
 56.8576  6191.62  79.069
 56.8996  6292.64  79.6234
 56.9416  6330.04  80.1694
 56.9836  6402.58  80.1458
 57.0256  6230.35  79.3714
 57.0676  6387.32  80.4864
 57.1096  6285.7  79.6444
 57.1516  6176.23  78.9705
 57.1936  6250.49  79.2202
 57.2356  6206.69  79.253
 57.2776  6226.72  79.3591
 57.3196  6257.71  79.6823
 57.3616  6345.82  79.9639
 57.4036  6264.56  79.5029
 57.4456  6379.14  80.1973
 57.4876  6244.19  79.2098
 57.5296  6189.99  79.1829
 57.5716  6250.56  79.5797
 57.6136  6151.74  78.7888
 57.6556  6196.36  79.1967
 57.6976  6224.07  79.121
 57.7396  6192.04  79.3617
 57.7816  6177.2  79.6306
 57.8236  6127.97  79.0905
 57.8656  6204.4  79.2614
 57.9076  6253.52  79.5845
 57.9496  6146.73  79.2743
 57.9916  6242.32  79.3844
 58.0336  6050.38  78.4389
 58.0756  6221.99  79.174
 58.1176  6217  79.1443
 58.1596  6155.94  79.3404
 58.2016  6048.36  77.8598
 58.2436  5978.36  77.8132
 58.2856  5919.96  77.3569
 58.3276  5923.21  77.7436
 58.3696  5924.16  77.5068
 58.4116  5923.58  77.3698
 58.4536  6003.68  77.7769
 58.4956  5942.54  77.5587
 58.5376  6024.42  77.7893
 58.5796  5871.46  77.0866
 58.6216  5875.5  76.9383
 58.6636  5970.43  77.7609
 58.7056  5996.38  77.7914
 58.7476  5863.82  77.3629
 58.7896  5984.9  77.804
 58.8316  5941.03  77.6213
 58.8736  6055.45  78.2695
 58.9156  5967.79  77.7433
 58.9576  5970.4  78.079
 58.9996  5940.82  77.1428
 59.0416  5957.03  77.6085
 59.0836  6074.09  78.2815
 59.1256  5855.22  77.5497
 59.1676  5884.65  78.0529
 59.2096  6014.88  78.2179
 59.2516  5931.7  77.26
 59.2936  5969.75  77.8336
 59.3356  5949.91  77.5828
 59.3776  5889.84  77.357
 59.4196  5917.41  77.4709
 59.4616  5918.66  77.3441
 59.5036  5853.94  76.9547
 59.5456  6042.62  77.8785
 59.5876  5848.58  76.8059
 59.6296  5809.53  76.617
 59.6716  5923.4  77.4216
 59.7136  5946.91  77.5635
 59.7556  5806.09  76.7734
 59.7976  5822.71  76.63
 59.8396  5955.78  77.3958
 59.8816  5872.76  77.3925
 59.9236  5868.64  77.0139
 59.9656  5785.46  76.7212
 60.0076  5825.58  76.3556
 60.0496  5949.23  77.6618
 60.0916  5931.35  76.9684
 60.1336  5881.55  77.7372
 60.1756  5868.2  78.8162
 60.1996  0.0000000E+00  0.0000000E+00