File: docs/examples/opeando_xrd/IS17_D/Data/IS17_D/17_Db_f00127.xye
# /beamlines/bl04/projects/cycle2025-II/20250340211-lsimonelli/DATA/IS17_D/17_Db_f00127.xye : mythproc.py merge -s 0.006 -l 0.5 -f /beamlines/bl04/inhouse/ff/FlatField/ff_20Nov2024rod8mm60s_17keV.raw -b True -c true -o xye /beamlines/bl04/projects/cycle2025-II/20250340211-lsimonelli/DATA/IS17_D/17_Db_00127.dat
# IsMon = [6765243, 6762612, 6763670]  IsPos = [-1.4999, -2.4884, -3.4988]
# Wave = 0.4962  CalPath /beamlines/bl04/projects/cycle2025-II/20250340211-lsimonelli/DATA/Align/Si_Pos1_25keV_f00001.cal
# Date = 2025-09-25_05:06:41 Dt = 4.8000  Bin = 0.0060  <imon> = 6763842 +/- 1081 (Min/Max) 6762612 / 6765243
# icurr 250.9404  mocoIn 1.7112E-05  mocoOut 0.8029  i15 7.08783e+06  imon 6.76384e+06  i7 5.3333  iEMpd_timer 4.8000  iEMpd_1 3.4414E-08  iEMpd_2 7.9146E-08  iEMpd_3 1.6396E-08  iEMpd_4 4.8509E-08  iEMhp_timer 4.8000  iEMhp_1 4.9017E-06  iEMhp_2 -2.5135E-08  iEMhp_3 -2.2544E-08  iEMhp_4 -2.0644E-08
#      9776
 1.5856  44563.9  216.745
 1.6276  51192.8  228.321
 1.6696  56801  239.654
 1.7116  64160.8  255.206
 1.7536  72204.4  269.577
 1.7956  75647.7  276.62
 1.8376  72890.4  271.962
 1.8796  62526.2  250.037
 1.9216  51836.4  228.566
 1.9636  45194  212.545
 2.0056  41092.9  201.886
 2.0476  38313.3  197.076
 2.0896  36613.5  191.525
 2.1316  35988  188.969
 2.1736  34167.3  185.588
 2.2156  34791.9  185.773
 2.2576  33405.9  182.687
 2.2996  31726.2  178.689
 2.3416  32673  179.888
 2.3836  31824.1  177.645
 2.4256  30680.3  174.992
 2.4676  30387.9  173.909
 2.5096  30231.5  173.518
 2.5516  28762.7  173.155
 2.5936  29648  172.27
 2.6356  28258.7  168.896
 2.6776  28043.2  167.138
 2.7196  27571.8  166.221
 2.7616  27484.9  165.748
 2.8036  26959  164.325
 2.8456  27121  165.457
 2.8876  26395.5  163.102
 2.9296  25936.1  161.803
 2.9716  25989.2  161.447
 3.0136  25872.4  161.152
 3.0556  25547.2  160.536
 3.0976  25873.8  160.446
 3.1396  25332.5  159.503
 3.1816  24950.1  158.231
 3.2236  24910.9  158.093
 3.2656  24697.8  156.459
 3.3076  24476.2  157.223
 3.3496  24701.1  156.871
 3.3916  25092.3  157.925
 3.4336  25482.8  159.741
 3.4756  26016.6  161.333
 3.5176  26730.5  163.306
 3.5596  26414.7  164.793
 3.6016  26519.7  162.728
 3.6436  25608.9  161.027
 3.6856  25322.7  158.415
 3.7276  24343.2  156.41
 3.7696  24186  156.087
 3.8116  23948.6  155.218
 3.8536  23975.6  155.229
 3.8956  23952.8  154.97
 3.9376  23660.4  154.295
 3.9796  23765.6  154.13
 4.0216  23757.7  153.127
 4.0636  23625.7  154.176
 4.1056  23617.2  153.807
 4.1476  23989.9  155.327
 4.1896  24001.8  155.217
 4.2316  24236  155.798
 4.2736  24501.5  156.453
 4.3156  24799.1  157.636
 4.3576  25566.7  159.964
 4.3996  25597.4  160.341
 4.4416  26383.2  162.352
 4.4836  26604.7  163.199
 4.5256  27145.1  165.448
 4.5676  26986.6  165.23
 4.6096  27636.6  165.838
 4.6516  27909.9  166.366
 4.6936  27932.2  167.263
 4.7356  28321.3  168.245
 4.7776  28078  167.351
 4.8196  28039.7  167.886
 4.8616  27318.4  165.209
 4.9036  27341.2  164.998
 4.9456  27101.8  164.937
 4.9876  26441  162.806
 5.0296  26767  163.654
 5.0716  26455.2  163.456
 5.1136  26714.2  163.965
 5.1556  26926.6  164.083
 5.1976  27495.9  165.785
 5.2396  27567.9  165.703
 5.2816  27726.3  166.647
 5.3236  27589.9  165.937
 5.3656  27111  165.427
 5.4076  26665.7  164.203
 5.4496  26978.7  164.66
 5.4916  27261.1  165.267
 5.5336  26957.3  164.352
 5.5756  27028.3  164.57
 5.6176  27272.6  164.762
 5.6596  27410.2  166.16
 5.7016  27371.6  165.31
 5.7436  27782.7  166.828
 5.7856  27353.6  165.6
 5.8276  27864.8  166.857
 5.8696  27997.9  167.426
 5.9116  27860.5  167.62
 5.9536  28321.4  168.736
 5.9956  28419.1  168.413
 6.0376  28412.9  169.016
 6.0796  28728.8  169.785
 6.1216  28508.6  169.34
 6.1636  28695.4  168.934
 6.2056  28683.5  169.592
 6.2476  28948.1  170.237
 6.2896  29265.1  170.842
 6.3316  29338.2  171.222
 6.3736  29218.6  170.766
 6.4156  29361.1  171.058
 6.4576  29472.8  171.016
 6.4996  29453.2  171.447
 6.5416  29426.9  171.49
 6.5836  29516  171.992
 6.6256  29802.7  172.382
 6.6676  30222.1  173.154
 6.7096  30122.1  173.727
 6.7516  30412.1  174.222
 6.7936  30589.7  174.121
 6.8356  30753.1  174.694
 6.8776  30861.1  175.809
 6.9196  31161.6  177.057
 6.9616  31633  177.832
 7.0036  31944.3  178.351
 7.0456  31917.3  177.573
 7.0876  31685.5  178.62
 7.1296  31664.2  177.697
 7.1716  31884.5  177.847
 7.2136  31727.7  177.183
 7.2556  32002.1  178.11
 7.2976  31965.6  178.505
 7.3396  31706.4  178.004
 7.3816  31761.4  178.365
 7.4236  32214.6  178.926
 7.4656  32301.7  178.628
 7.5076  32607.4  179.628
 7.5496  32336.8  179.424
 7.5916  32383.4  179.595
 7.6336  32876.8  180.845
 7.6756  32951.5  180.899
 7.7176  33466.2  182.626
 7.7596  33439.4  183.788
 7.8016  33875.1  187.224
 7.8436  33824.8  183.742
 7.8856  33740.3  183.118
 7.9276  34365.6  185.205
 7.9696  34795.8  186.674
 8.0116  35353  186.71
 8.0536  35507.9  187.361
 8.0956  35583.1  188.749
 8.1376  36055.5  189.466
 8.1796  36359.9  190.798
 8.2216  36967.2  191.126
 8.2636  37114.6  191.761
 8.3056  36942.7  192.08
 8.3476  37884.3  193.837
 8.3896  37269.8  192.334
 8.4316  37791.3  193.846
 8.4736  37480.7  192.523
 8.5156  37406.7  192.609
 8.5576  37169.6  192.971
 8.5996  37115.5  191.701
 8.6416  36975.5  192.602
 8.6836  36654.8  191.596
 8.7256  37320.3  192.775
 8.7676  37285.1  195.609
 8.8096  37366.5  193.092
 8.8516  37386.9  192.718
 8.8936  37087.8  191.894
 8.9356  37172.4  192.441
 8.9776  37198.5  192.597
 9.0196  37232.6  192.344
 9.0616  37327  192.09
 9.1036  36613.1  191.418
 9.1456  36260.7  189.827
 9.1876  36809.4  191.202
 9.2296  36452  189.71
 9.2716  36063.4  188.729
 9.3136  36208.5  189.104
 9.3556  36388  189.538
 9.3976  35493.6  187.714
 9.4396  35358.5  187.274
 9.4816  35275.8  186.901
 9.5236  34646.6  185.126
 9.5656  34842.1  186.012
 9.6076  34027  184.357
 9.6496  34301.9  184.96
 9.6916  33829.7  183.666
 9.7336  34271.5  184.631
 9.7756  33744.3  184.494
 9.8176  34045.2  184.805
 9.8596  33698.7  182.297
 9.9016  33400.3  181.483
 9.9436  32899.2  180.022
 9.9856  33094.5  180.833
 10.0276  32463.4  180.181
 10.0696  33008.3  180.704
 10.1116  31470.1  176.723
 10.1536  31784.8  177.754
 10.1956  31227.9  175.805
 10.2376  31357.2  175.656
 10.2796  31042.5  174.895
 10.3216  30868.1  174.692
 10.3636  30634.4  174.055
 10.4056  29846.2  172.214
 10.4476  30233.2  172.929
 10.4896  30704.6  173.71
 10.5316  29620.7  171.347
 10.5736  29374.8  171.05
 10.6156  29424.8  170.941
 10.6576  29329.4  169.219
 10.6996  29117.7  169.319
 10.7416  28522.2  167.797
 10.7836  28261.3  167.705
 10.8256  27986.9  167.316
 10.8676  28074.3  167.119
 10.9096  27793.6  166.303
 10.9516  27341.4  163.884
 10.9936  27676.6  165.103
 11.0356  27315.8  164.643
 11.0776  27453.4  164.375
 11.1196  26830.4  163.267
 11.1616  26556.4  162.108
 11.2036  26901.8  163.002
 11.2456  26699.6  163.096
 11.2876  27055  163.904
 11.3296  26454.7  161.989
 11.3716  27008  163.351
 11.4136  27117.9  164.587
 11.4556  27340.3  164.917
 11.4976  27949.4  165.704
 11.5396  27302.7  163.954
 11.5816  26877  163.123
 11.6236  26272.7  161.502
 11.6656  26368.1  160.929
 11.7076  25641  159.539
 11.7496  25420.6  162.882
 11.7916  25288.9  157.699
 11.8336  24940.3  157.498
 11.8756  25199.6  157.86
 11.9176  24902.6  156.602
 11.9596  24867.7  156.656
 12.0016  24805.2  157.234
 12.0436  24826.8  156.742
 12.0856  24433.9  156.019
 12.1276  24590.6  156.455
 12.1696  24471.7  155.185
 12.2116  24362.8  154.851
 12.2536  24223.3  155.22
 12.2956  24142.6  154.309
 12.3376  24426.8  155.412
 12.3796  24378.8  155.754
 12.4216  24359.2  154.877
 12.4636  23834.7  154.138
 12.5056  24136.3  154.37
 12.5476  24398.2  154.716
 12.5896  23841.4  153.587
 12.6316  24303.5  155.214
 12.6736  23999.5  154.735
 12.7156  23930.6  154.35
 12.7576  23990  154.793
 12.7996  24170.4  154.007
 12.8416  23974.4  154.447
 12.8836  24241  155.135
 12.9256  24853.2  156.096
 12.9676  24593.8  155.683
 13.0096  24760.2  157.332
 13.0516  24750.5  156.335
 13.0936  25115.6  157.885
 13.1356  24995.6  156.45
 13.1776  24512.3  155.968
 13.2196  24696.3  156.194
 13.2616  24403.4  155.584
 13.3036  24718.6  156.543
 13.3456  24401.4  155.886
 13.3876  25054.4  157.214
 13.4296  24553.5  155.81
 13.4716  24725.6  155.982
 13.5136  24619.1  155.784
 13.5556  24679  156.602
 13.5976  24738.5  156.958
 13.6396  24724.3  156.269
 13.6816  24961.9  157.491
 13.7236  25127.4  157.584
 13.7656  26816.6  163.261
 13.8076  27466.2  163.877
 13.8496  26904.4  162.859
 13.8916  25149.3  158.618
 13.9336  24268.2  155.079
 13.9756  24173.1  154.149
 14.0176  23944.9  154.103
 14.0596  24136.6  154.621
 14.1016  23885.9  154.264
 14.1436  24049.5  153.905
 14.1856  23293.3  151.764
 14.2276  23338  152.388
 14.2696  23485  152.726
 14.3116  22913.8  150.767
 14.3536  22605.3  149.915
 14.3956  22635.7  149.736
 14.4376  22745.4  149.884
 14.4796  22673  149.644
 14.5216  22282.5  149.142
 14.5636  22130  148.2
 14.6056  22458.6  148.853
 14.6476  22173.4  147.147
 14.6896  21846  146.598
 14.7316  21553  146.648
 14.7736  21415.9  145.326
 14.8156  21277.4  144.871
 14.8576  21215.8  144.521
 14.8996  20794.6  144.277
 14.9416  20449.1  143.081
 14.9836  20424.9  142.99
 15.0256  19842.5  139.861
 15.0676  19922.9  140.456
 15.1096  19585  139
 15.1516  19412  138.934
 15.1936  19380.4  138.257
 15.2356  19218.3  137.953
 15.2776  18936.7  136.533
 15.3196  18576.6  136.212
 15.3616  18570  135.944
 15.4036  18576  135.836
 15.4456  18962.7  136.885
 15.4876  18512.3  134.934
 15.5296  18294.5  134.425
 15.5716  18227  133.78
 15.6136  18243.5  134.168
 15.6556  18114.2  132.935
 15.6976  17972.2  132.709
 15.7396  17815.1  132.506
 15.7816  17875.1  132.235
 15.8236  17357.1  130.995
 15.8656  17593.8  131.685
 15.9076  17365.9  130.648
 15.9496  18138.4  136.348
 15.9916  17846.7  135.652
 16.0336  17883.9  132.634
 16.0756  17685.5  132.226
 16.1176  17607.6  132.02
 16.1596  17040.3  131.049
 16.2016  17198.9  130.421
 16.2436  17204.1  130.816
 16.2856  17158.6  130.146
 16.3276  16757.3  129.06
 16.3696  17145.5  130.363
 16.4116  16678.6  129.012
 16.4536  17180.2  130.756
 16.4956  16757  128.861
 16.5376  16711.1  128.889
 16.5796  16738.3  128.354
 16.6216  16635.9  128.225
 16.6636  16506.3  127.92
 16.7056  16721.4  128.606
 16.7476  16857.8  128.655
 16.7896  16819  129.26
 16.8316  16836.2  129.304
 16.8736  16866.1  129.673
 16.9156  16717.9  129.439
 16.9576  16475.6  129.304
 16.9996  16352.2  129.293
 17.0416  16669.2  128.905
 17.0836  16571.2  128.279
 17.1256  16349.9  127.424
 17.1676  16289.5  127.157
 17.2096  16280.2  127.007
 17.2516  16073.3  125.992
 17.2936  16102.2  126.455
 17.3356  15861.9  125.489
 17.3776  15848.8  125.626
 17.4196  15621.3  124.431
 17.4616  15807.6  125.066
 17.5036  15369.2  123.689
 17.5456  15429.2  124.568
 17.5876  15473.4  123.791
 17.6296  15482.3  123.657
 17.6716  15413.1  123.961
 17.7136  15477.3  124.339
 17.7556  15357.2  124.159
 17.7976  15313.3  123.717
 17.8396  15240.2  122.911
 17.8816  15011.7  122.566
 17.9236  14988  122.249
 17.9656  14988.3  122.794
 18.0076  15102.2  122.835
 18.0496  15174  122.246
 18.0916  15044.4  122.281
 18.1336  14861.3  121.622
 18.1756  15006.9  121.774
 18.2176  14830  121.266
 18.2596  14767.5  120.738
 18.3016  14994.3  121.929
 18.3436  14806.6  121.169
 18.3856  14826  121.373
 18.4276  14772.6  120.84
 18.4696  14654.3  120.44
 18.5116  14613.6  120.551
 18.5536  14652.9  121.081
 18.5956  14458.8  119.83
 18.6376  14381.6  119.906
 18.6796  14370.1  119.167
 18.7216  14563.7  120.482
 18.7636  14423.5  119.895
 18.8056  14371.7  119.596
 18.8476  14159.5  119.353
 18.8896  14372  119.575
 18.9316  14479.3  119.999
 18.9736  14317  119.021
 19.0156  14183.5  118.887
 19.0576  14405.4  118.641
 19.0996  14498.5  119.751
 19.1416  14260.2  119.161
 19.1836  14191.2  118.477
 19.2256  14088.3  118.271
 19.2676  14353.2  119.449
 19.3096  14056.1  118.468
 19.3516  13996.7  118.175
 19.3936  14109  118.543
 19.4356  14292.5  119.184
 19.4776  14170.6  118.774
 19.5196  14185.1  118.686
 19.5616  14190.5  118.969
 19.6036  13957.3  117.487
 19.6456  14158.3  118.436
 19.6876  14084  117.77
 19.7296  14272.5  119.016
 19.7716  14103.3  118.483
 19.8136  14601.7  120.758
 19.8556  14680  120.556
 19.8976  14766.4  120.972
 19.9396  14994.5  121.48
 19.9816  14943.3  121.529
 20.0236  14892.8  121.526
 20.0656  14523.5  120.009
 20.1076  14277.7  119.458
 20.1496  14115.2  118.775
 20.1916  14144.6  118.409
 20.2336  13956.3  117.542
 20.2756  13873.9  117.629
 20.3176  13646.6  116.414
 20.3596  13480.1  115.696
 20.4016  13586  115.934
 20.4436  13452.9  115.936
 20.4856  13520.9  116.01
 20.5276  13401.4  115.964
 20.5696  13625.1  116.37
 20.6116  13330.8  115.386
 20.6536  13349.3  114.979
 20.6956  13381.3  115.249
 20.7376  13282  115.034
 20.7796  13265.7  114.652
 20.8216  13339.5  114.683
 20.8636  13489.8  115.704
 20.9056  13242.5  114.564
 20.9476  13218  114.317
 20.9896  13296.7  114.52
 21.0316  13154  113.814
 21.0736  13140.4  114.269
 21.1156  13031.5  113.953
 21.1576  13129.6  114.417
 21.1996  13252.5  114.943
 21.2416  13186  114.471
 21.2836  13188.6  114.456
 21.3256  13066.8  114.002
 21.3676  13125.3  113.797
 21.4096  12968.6  113.434
 21.4516  12871.1  112.883
 21.4936  12767.7  112.697
 21.5356  12946.5  113.425
 21.5776  13086  113.86
 21.6196  12911.1  113.142
 21.6616  12858.9  112.999
 21.7036  12897.4  112.93
 21.7456  12987.8  113.411
 21.7876  12767.1  112.205
 21.8296  12855.5  112.434
 21.8716  12769.9  112.293
 21.9136  12967.2  113.356
 21.9556  12789.4  112.253
 21.9976  12638.3  111.619
 22.0396  12851.2  112.808
 22.0816  12706.9  112.696
 22.1236  12749  112.349
 22.1656  12799.9  112.717
 22.2076  12531.3  110.99
 22.2496  12499.2  110.879
 22.2916  12464.1  110.609
 22.3336  12531.8  111.629
 22.3756  12553.1  111.445
 22.4176  12303.4  110.179
 22.4596  12203.9  110.321
 22.5016  12442.9  110.902
 22.5436  12484.2  110.96
 22.5856  12639.9  111.897
 22.6276  12688.3  112.248
 22.6696  12603  112.226
 22.7116  12521.3  111.372
 22.7536  12477.4  111.152
 22.7956  12500.9  110.591
 22.8376  12419.2  110.747
 22.8796  12537  111.072
 22.9216  12519.2  111.537
 22.9636  12432.5  110.305
 23.0056  12386.7  110.235
 23.0476  12489.4  111.265
 23.0896  12940.3  112.623
 23.1316  12544.5  111.324
 23.1736  12680.9  114.88
 23.2156  12725  112.441
 23.2576  12892.4  113.306
 23.2996  12648.1  112.009
 23.3416  12820.8  113.298
 23.3836  12738.4  112.161
 23.4256  12802.6  112.56
 23.4676  12792  112.209
 23.5096  12631.4  112.169
 23.5516  12620.9  111.413
 23.5936  12745.2  112.88
 23.6356  12786.6  112.725
 23.6776  12554.2  111.912
 23.7196  12604.7  111.702
 23.7616  12674.9  111.936
 23.8036  12849.7  112.751
 23.8456  12645.5  111.407
 23.8876  12471.3  110.99
 23.9296  12393.3  111.132
 23.9716  12348.7  110.139
 24.0136  12626.9  112.287
 24.0556  12366.6  110.832
 24.0976  12084.8  109.388
 24.1396  12112.1  112.128
 24.1816  12369.5  111.711
 24.2236  12297  111.004
 24.2656  12216.3  110.113
 24.3076  12181.9  110.236
 24.3496  12156.7  109.997
 24.3916  12245.3  110.45
 24.4336  12050.5  109.768
 24.4756  12260.1  110.606
 24.5176  11982.5  108.978
 24.5596  11964.1  109.016
 24.6016  11831.5  108.699
 24.6436  11973  108.852
 24.6856  11998.1  108.711
 24.7276  11733.4  107.832
 24.7696  11693.6  107.757
 24.8116  11695.3  107.94
 24.8536  11667.2  107.817
 24.8956  11655.9  107.495
 24.9376  11622.6  107.265
 24.9796  11453.1  106.844
 25.0216  11364.3  106.542
 25.0636  11518.3  106.914
 25.1056  11224.9  106.232
 25.1476  11403.9  108.729
 25.1896  11243.5  106.473
 25.2316  11321.1  106.118
 25.2736  11311.7  105.728
 25.3156  11312.5  105.798
 25.3576  11300.4  106.179
 25.3996  11284.7  106.088
 25.4416  11076.1  105.079
 25.4836  11072.9  105.578
 25.5256  11137  105.242
 25.5676  11227  105.406
 25.6096  10947.6  104.656
 25.6516  11140.4  105.078
 25.6936  11176.8  105.562
 25.7356  11072.3  105.207
 25.7776  11173.9  105.279
 25.8196  10963.6  104.528
 25.8616  10893  104.123
 25.9036  11104.5  104.578
 25.9456  10934.4  104.377
 25.9876  10977.8  104.646
 26.0296  11137.9  104.918
 26.0716  10985.4  104.617
 26.1136  11039  104.805
 26.1556  11026  104.129
 26.1976  10870.8  104.327
 26.2396  11013  104.153
 26.2816  10895.3  104.206
 26.3236  11015.5  104.933
 26.3656  11111.3  105.101
 26.4076  10859  104.102
 26.4496  11058.3  104.635
 26.4916  11096.5  104.735
 26.5336  11457.2  106.766
 26.5756  11909.5  108.73
 26.6176  11054.2  104.776
 26.6596  11012.6  104.881
 26.7016  10865.6  103.945
 26.7436  10934.7  104.4
 26.7856  10585.7  102.717
 26.8276  10730.6  103.38
 26.8696  10716.2  103.175
 26.9116  10648.9  102.792
 26.9536  10722.9  103.201
 26.9956  10503.8  102.18
 27.0376  10693.8  103.316
 27.0796  10610.1  102.635
 27.1216  10610.4  102.693
 27.1636  10459.6  102.127
 27.2056  10556.7  102.488
 27.2476  10591.6  102.654
 27.2896  10385.9  101.768
 27.3316  10379.1  101.454
 27.3736  10318.1  101.423
 27.4156  10482.8  102.065
 27.4576  10508  102.408
 27.4996  10512.1  102.035
 27.5416  10385.4  101.733
 27.5836  10373.5  101.508
 27.6256  10380  101.726
 27.6676  10304.7  101.342
 27.7096  10409.8  101.739
 27.7516  10308.4  101.391
 27.7936  10609.5  103.003
 27.8356  10409.6  101.647
 27.8776  10662.1  102.935
 27.9196  10086.6  99.9776
 27.9616  10303.6  101.245
 28.0036  10285.1  101.106
 28.0456  10108.8  100.384
 28.0876  10169.2  100.77
 28.1296  10057.3  100.042
 28.1716  10168.7  100.617
 28.2136  10164.4  100.563
 28.2556  10098.9  100.351
 28.2976  10042.7  100.067
 28.3396  9992.84  99.5765
 28.3816  10143.3  100.326
 28.4236  9945.69  99.5082
 28.4656  9921.69  99.4235
 28.5076  10088.3  99.8897
 28.5496  9948.28  99.4478
 28.5916  9996.62  99.5091
 28.6336  9907.99  99.4017
 28.6756  9975.58  98.9381
 28.7176  9890.09  99.0725
 28.7596  9840.99  98.72
 28.8016  9828.66  98.6971
 28.8436  9850.11  99.044
 28.8856  9805.99  98.6663
 28.9276  9927.35  99.5274
 28.9696  9794.23  98.5155
 29.0116  9775.34  98.6073
 29.0536  9630.57  98.0795
 29.0956  9843.34  98.855
 29.1376  9780.06  98.505
 29.1796  9793.47  98.6231
 29.2216  9750.48  98.2463
 29.2636  9797.18  98.5599
 29.3056  9758.92  98.1539
 29.3476  9657.78  98.167
 29.3896  9692  98.4554
 29.4316  9601.84  97.3342
 29.4736  9457.05  96.6587
 29.5156  9710.95  97.8722
 29.5576  9544.82  97.7639
 29.5996  9511.35  96.8577
 29.6416  9489.95  96.8657
 29.6836  9635.03  97.5269
 29.7256  9533.99  97.5805
 29.7676  9490.47  97.0211
 29.8096  9572.02  97.3812
 29.8516  9253.1  96.0719
 29.8936  9386.92  96.8573
 29.9356  9595.67  97.6809
 29.9776  9292.3  96.2753
 30.0196  9497.21  96.728
 30.0616  9468.7  96.9503
 30.1036  9520.65  97.04
 30.1456  9401.77  96.6629
 30.1876  9449.35  96.8886
 30.2296  9288.25  96.0071
 30.2716  9569.49  97.0867
 30.3136  9295.85  96.5325
 30.3556  9516.5  97.6739
 30.3976  9437.42  98.7658
 30.4396  9825.14  98.0821
 30.4816  9729.42  97.2095
 30.5236  9720.51  97.1575
 30.5656  9501.48  96.716
 30.6076  9646.83  96.8522
 30.6496  9515.6  96.6078
 30.6916  9593.97  97.1097
 30.7336  9596.93  97.2593
 30.7756  9519.05  96.9496
 30.8176  9333.91  95.9306
 30.8596  9541.52  96.7433
 30.9016  9480.19  96.791
 30.9436  9422.36  96.2425
 30.9856  9696.17  97.7426
 31.0276  9373.51  95.7355
 31.0696  9370.67  96.2787
 31.1116  9523.3  97.0341
 31.1536  9420.84  96.3895
 31.1956  9244.63  95.5736
 31.2376  9138.46  95.0448
 31.2796  9240.28  95.0991
 31.3216  9373.25  95.707
 31.3636  9433.63  96.7326
 31.4056  9455.65  98.1525
 31.4476  9427.99  95.915
 31.4896  9511.37  96.8229
 31.5316  9470.58  96.0308
 31.5736  9401.44  95.5153
 31.6156  9374.56  95.3768
 31.6576  9488.99  96.0325
 31.6996  9506.92  95.8005
 31.7416  9353.84  96.1135
 31.7836  9482.41  95.7681
 31.8256  9358.59  95.4015
 31.8676  9501.43  96.1271
 31.9096  9270.87  95.3149
 31.9516  9156.05  94.8987
 31.9936  9205.85  94.9787
 32.0356  9281.72  95.4101
 32.0776  9435.12  96.0965
 32.1196  9469.86  96.3805
 32.1616  9339.25  95.1537
 32.2036  9276.79  95.3487
 32.2456  9165.56  95.1619
 32.2876  9379.14  95.7547
 32.3296  9188.39  94.7331
 32.3716  8997.8  93.8669
 32.4136  9107.62  94.6416
 32.4556  9263.88  94.8274
 32.4976  9179.75  94.3045
 32.5396  9092.94  93.9266
 32.5816  9039.46  93.7595
 32.6236  8972.88  93.4921
 32.6656  9100.43  94.6941
 32.7076  8978.89  93.7132
 32.7496  9038.15  93.7039
 32.7916  9031.58  93.6237
 32.8336  9085.72  94.0006
 32.8756  9101.08  93.7942
 32.9176  8956.26  93.5316
 32.9596  8960.37  93.6222
 33.0016  9010.99  93.667
 33.0436  9080.37  94.1974
 33.0856  8911.42  93.4147
 33.1276  8838.9  92.7673
 33.1696  8890.94  92.8682
 33.2116  8969.61  93.5064
 33.2536  9115.27  94.254
 33.2956  8989.03  93.6866
 33.3376  8967.39  93.3092
 33.3796  8932.46  93.3541
 33.4216  8960.77  93.0928
 33.4636  8943.56  93.1508
 33.5056  8784.62  92.5691
 33.5476  8899.04  93.1461
 33.5896  9081.12  93.8888
 33.6316  8838.79  92.9274
 33.6736  8671.86  92.2954
 33.7156  8767.91  92.8353
 33.7576  8916.52  93.2613
 33.7996  8970.95  93.3023
 33.8416  8688.39  92.0091
 33.8836  8728.66  91.9991
 33.9256  8885.5  92.8758
 33.9676  8853.92  92.6129
 34.0096  8781.7  92.5368
 34.0516  8814.28  92.3527
 34.0936  8690.01  91.972
 34.1356  8678.75  91.6501
 34.1776  8690.35  91.7085
 34.2196  8607.2  91.4583
 34.2616  8633.49  91.7354
 34.3036  8736.9  92.5162
 34.3456  8689.59  92.0298
 34.3876  8782.37  92.489
 34.4296  8758.77  92.0528
 34.4716  8694.14  91.8635
 34.5136  8592.79  91.5218
 34.5556  8518.68  91.3707
 34.5976  8684.08  92.0744
 34.6396  8644.09  91.573
 34.6816  8654.91  91.7311
 34.7236  8737.84  91.9338
 34.7656  8688.64  91.9029
 34.8076  8549.46  91.4938
 34.8496  8619.79  91.7146
 34.8916  8647.59  91.7326
 34.9336  8666.94  91.8131
 34.9756  8711.16  91.9568
 35.0176  8551.46  91.6443
 35.0596  8724.85  92.3868
 35.1016  8640.51  91.6954
 35.1436  8685.19  91.6199
 35.1856  8595.5  91.2648
 35.2276  8497.38  90.9154
 35.2696  8565.73  91.4761
 35.3116  8511.21  91.2891
 35.3536  8458.81  90.7112
 35.3956  8430.15  90.2659
 35.4376  8657.1  92.0493
 35.4796  8592.04  91.7282
 35.5216  8502.57  91.2225
 35.5636  8282.07  90.775
 35.6056  8466.52  90.7979
 35.6476  8508.89  90.9233
 35.6896  8577.51  91.384
 35.7316  8418.7  90.5102
 35.7736  8433.92  90.7765
 35.8156  8564.97  91.4771
 35.8576  8586.96  91.8502
 35.8996  8529.11  91.5048
 35.9416  8559.1  91.1735
 35.9836  8484.03  91.1116
 36.0256  8684.36  92.2006
 36.0676  8596.36  91.4809
 36.1096  8381.5  90.4807
 36.1516  8718.6  92.1647
 36.1936  8517.77  90.9382
 36.2356  8606.28  92.0804
 36.2776  8427.41  90.5919
 36.3196  8489.27  90.5888
 36.3616  8409.81  90.294
 36.4036  8422.17  90.4296
 36.4456  8424.68  90.6506
 36.4876  8229.67  89.5372
 36.5296  8386.17  90.4216
 36.5716  8322.95  90.8608
 36.6136  8246.92  89.2364
 36.6556  8182.09  89.0811
 36.6976  8213.13  89.7465
 36.7396  8133.89  89.0498
 36.7816  8233.02  89.9609
 36.8236  8308.83  90.2946
 36.8656  8044.48  88.9082
 36.9076  8077.75  88.9812
 36.9496  8086.56  89.019
 36.9916  8002.16  88.1868
 37.0336  8176.12  89.4534
 37.0756  8168.58  89.206
 37.1176  7885.12  87.9077
 37.1596  7955.03  88.3055
 37.2016  8082.44  89.2305
 37.2436  8005.38  88.127
 37.2856  8137.11  89.101
 37.3276  8086.86  88.1868
 37.3696  8059.36  88.9177
 37.4116  8135.54  89.2428
 37.4536  8065.72  88.725
 37.4956  7840.66  87.5237
 37.5376  8215.59  91.1697
 37.5796  8181.03  90.9135
 37.6216  8029.08  88.3386
 37.6636  8252.95  89.4502
 37.7056  8191.88  89.3115
 37.7476  8233.53  89.0761
 37.7896  8099.99  88.8638
 37.8316  8115.36  89.093
 37.8736  8081.12  88.4451
 37.9156  8155.04  88.8376
 37.9576  8225.98  89.1348
 37.9996  8007.19  87.6517
 38.0416  8020.49  88.5304
 38.0836  8217.63  89.5151
 38.1256  8106.54  88.8789
 38.1676  7950.35  88.1446
 38.2096  8200.95  89.123
 38.2516  7999.71  88.2522
 38.2936  8102.91  88.6053
 38.3356  8121.21  88.6456
 38.3776  8007.82  88.2672
 38.4196  7931.87  87.7057
 38.4616  8123.65  89.008
 38.5036  8280.9  89.7074
 38.5456  8043.26  89.2422
 38.5876  7933.91  88.6655
 38.6296  8017.3  88.0829
 38.6716  8062.28  88.1461
 38.7136  7962.77  87.5426
 38.7556  8008.7  88.3014
 38.7976  8000.63  88.1859
 38.8396  7951.98  88.3812
 38.8816  7930.5  88.0499
 38.9236  7940.23  87.9006
 38.9656  8088.28  88.6286
 39.0076  8064.85  87.9067
 39.0496  8106.81  88.685
 39.0916  8104.84  88.319
 39.1336  8022.26  88.2805
 39.1756  7913.15  87.7357
 39.2176  7875.39  88.0675
 39.2596  8021.68  88.7962
 39.3016  8056.14  88.5709
 39.3436  7885.62  88.0369
 39.3856  8085.5  88.589
 39.4276  8188.86  89.6637
 39.4696  8126.82  88.9411
 39.5116  8078.15  89.1915
 39.5536  8080.57  89.6279
 39.5956  8034.84  88.4775
 39.6376  7998.96  88.2859
 39.6796  7981.66  87.9283
 39.7216  8022.32  88.2594
 39.7636  8044.11  88.9397
 39.8056  8032.45  88.6584
 39.8476  7884.83  88.0931
 39.8896  8029.44  88.5227
 39.9316  7876.55  87.9219
 39.9736  8031.25  88.3621
 40.0156  8032.07  88.1951
 40.0576  8068.42  88.7527
 40.0996  8056.13  87.8614
 40.1416  8008.18  88.3965
 40.1836  8033.91  88.4273
 40.2256  7915.7  87.8064
 40.2676  8043.65  88.6117
 40.3096  7943.14  88.0044
 40.3516  8137.71  89.1722
 40.3936  8078.33  88.3857
 40.4356  7996.07  88.1657
 40.4776  8102.34  89.1501
 40.5196  8132.49  89.4525
 40.5616  8065.27  88.7114
 40.6036  7965.85  88.4242
 40.6456  8007.5  88.2669
 40.6876  8151.26  89.0448
 40.7296  8022.19  88.4744
 40.7716  8002.09  88.4778
 40.8136  7974.32  88.2746
 40.8556  8128.64  89.2468
 40.8976  7982.67  88.3737
 40.9396  8021.15  88.9297
 40.9816  8025.73  88.2511
 41.0236  8044.32  88.1347
 41.0656  8031.31  88.602
 41.1076  8006.9  88.2392
 41.1496  8030.09  88.2731
 41.1916  8016.79  88.5219
 41.2336  8041.86  88.6522
 41.2756  7955.99  87.7772
 41.3176  7982.22  88.5336
 41.3596  7949.29  88.0896
 41.4016  7953.49  88.3746
 41.4436  8060.59  88.7509
 41.4856  7961.01  88.3641
 41.5276  7938.37  88.2581
 41.5696  8005.16  88.264
 41.6116  8037.15  88.8213
 41.6536  7954.82  88.2202
 41.6956  8123.79  89.2229
 41.7376  8030.53  88.7284
 41.7796  7932.87  88.0822
 41.8216  8104.21  89.2592
 41.8636  7960.58  88.4099
 41.9056  7954.18  88.161
 41.9476  7996.91  88.6329
 41.9896  8149.65  89.1337
 42.0316  8100.87  88.9593
 42.0736  8093.27  89.017
 42.1156  7956.9  88.0994
 42.1576  7951.31  88.1813
 42.1996  8134.61  89.2989
 42.2416  8038.1  88.3782
 42.2836  7996.5  88.2554
 42.3256  8048.33  88.65
 42.3676  8085.65  88.659
 42.4096  7957.01  87.9192
 42.4516  8076.16  88.6526
 42.4936  7810.36  87.26
 42.5356  7870.29  87.7335
 42.5776  7862.13  87.6291
 42.6196  8076.81  88.8752
 42.6616  7954.68  88.3701
 42.7036  7911.93  87.5146
 42.7456  7948.68  88.0706
 42.7876  7943.01  88.1073
 42.8296  7875.95  87.5979
 42.8716  7872.32  87.7404
 42.9136  7875.28  87.5455
 42.9556  7863.04  87.6105
 42.9976  7963.03  88.1346
 43.0396  7848.92  87.2248
 43.0816  7883.09  87.8054
 43.1236  7892.04  87.907
 43.1656  7807.18  87.2593
 43.2076  7846.6  87.5851
 43.2496  7824.88  87.286
 43.2916  7859.97  87.8408
 43.3336  7812.97  87.4057
 43.3756  7909.41  87.7016
 43.4176  7766.04  86.9864
 43.4596  7820.99  87.1455
 43.5016  7820.69  87.5482
 43.5436  7790.88  87.2971
 43.5856  7729.15  86.9737
 43.6276  7761.38  87.039
 43.6696  7666.77  86.7635
 43.7116  7824.2  87.1474
 43.7536  7894.88  88.0461
 43.7956  7690.62  88.1018
 43.8376  7543.06  85.8016
 43.8796  7678.85  86.6497
 43.9216  7594.51  86.0951
 43.9636  7755.74  87.1073
 44.0056  7574.75  86.3206
 44.0476  7589.88  86.0354
 44.0896  7581.82  86.3338
 44.1316  7684.42  86.432
 44.1736  7758.8  86.9817
 44.2156  7664.16  86.299
 44.2576  7561.42  86.0467
 44.2996  7625.08  86.3754
 44.3416  7699.15  86.5557
 44.3836  7452.74  85.4846
 44.4256  7512.22  85.4681
 44.4676  7563.93  85.9187
 44.5096  7525.82  85.8483
 44.5516  7616.76  86.3295
 44.5936  7366.55  84.8523
 44.6356  7610.37  85.9821
 44.6776  7496.2  85.6536
 44.7196  7586.02  86.4739
 44.7616  7640.98  88.1127
 44.8036  7581.05  86.1845
 44.8456  7707.47  87.1076
 44.8876  7736.11  87.1077
 44.9296  7734.07  86.5365
 44.9716  7748.04  87.0615
 45.0136  7714.47  86.8075
 45.0556  7723.07  86.8276
 45.0976  7595.51  86.2749
 45.1396  7711.17  86.671
 45.1816  7595.83  85.9582
 45.2236  7662.1  86.2427
 45.2656  7655.38  86.7133
 45.3076  7596.75  86.136
 45.3496  7581.5  86.3832
 45.3916  7635.11  86.9571
 45.4336  7711.24  87.2279
 45.4756  7468.18  85.7044
 45.5176  7733.6  86.8167
 45.5596  7826.78  87.4632
 45.6016  7561.1  86.3907
 45.6436  7645.18  86.0257
 45.6856  7649.48  86.7268
 45.7276  7574.47  87.6214
 45.7696  7614.16  87.5345
 45.8116  7528.39  86.4654
 45.8536  7487.99  86.1276
 45.8956  7561.46  85.8971
 45.9376  7658.26  85.9057
 45.9796  7608.24  86.3103
 46.0216  7716.14  87.2672
 46.0636  7568.74  85.5684
 46.1056  7607.68  85.7806
 46.1476  7697.8  86.8812
 46.1896  7652.42  86.7855
 46.2316  7465.08  85.574
 46.2736  7475.01  86.0151
 46.3156  7632.14  86.4946
 46.3576  7575.8  86.3779
 46.3996  7588.38  86.6134
 46.4416  7533.49  85.8682
 46.4836  7489.73  85.9793
 46.5256  7618.14  86.6503
 46.5676  7396.95  85.4976
 46.6096  7564.26  86.3877
 46.6516  7611.41  85.6928
 46.6936  7635.96  86.3314
 46.7356  7643.19  86.4695
 46.7776  7431.14  86.1178
 46.8196  7531.24  86.2837
 46.8616  7364.42  85.2741
 46.9036  7501.38  85.7197
 46.9456  7493.99  85.3068
 46.9876  7419.62  84.968
 47.0296  7459.5  85.8931
 47.0716  7407.12  85.4118
 47.1136  7478.43  85.4957
 47.1556  7517.76  85.5832
 47.1976  7565.69  85.9347
 47.2396  7359.17  85.1601
 47.2816  7365.84  84.8985
 47.3236  7465.87  85.8528
 47.3656  7500.32  85.9739
 47.4076  7504.12  85.7949
 47.4496  7417.9  85.3959
 47.4916  7392.12  85.4295
 47.5336  7529.7  86.0389
 47.5756  7620.91  86.6794
 47.6176  7397.09  85.3012
 47.6596  7424.97  85.17
 47.7016  7602.71  85.9898
 47.7436  7546.38  86.0193
 47.7856  7532.45  85.9564
 47.8276  7382.81  85.1506
 47.8696  7480.98  85.8004
 47.9116  7461.22  85.3909
 47.9536  7458.21  85.3302
 47.9956  7530.31  86.465
 48.0376  7382.37  85.3845
 48.0796  7377.47  85.4847
 48.1216  7353.19  85.162
 48.1636  7586.35  86.048
 48.2056  7472.36  85.684
 48.2476  7617.77  86.8251
 48.2896  7488.59  85.9964
 48.3316  7481.33  85.9013
 48.3736  7511.08  86.0832
 48.4156  7373.61  85.1523
 48.4576  7447.78  85.8765
 48.4996  7557.07  85.9486
 48.5416  7526.18  86.0991
 48.5836  7434.51  85.2452
 48.6256  7481.81  85.7247
 48.6676  7429.5  85.9483
 48.7096  7390.43  84.986
 48.7516  7443.61  85.4408
 48.7936  7345.04  84.9398
 48.8356  7435.57  85.5109
 48.8776  7434.4  86.0897
 48.9196  7603.13  86.3992
 48.9616  7337.7  85.2761
 49.0036  7417.18  86.0888
 49.0456  7401.7  85.9793
 49.0876  7456.67  85.8211
 49.1296  7346.28  85.3506
 49.1716  7284.99  84.8712
 49.2136  7421.39  85.5753
 49.2556  7496.71  86.0427
 49.2976  7449.37  85.8417
 49.3396  7371.94  85.4478
 49.3816  7509.24  85.6584
 49.4236  7478.9  85.9185
 49.4656  7289.65  84.8495
 49.5076  7412.48  85.2976
 49.5496  7321.17  84.8453
 49.5916  7360.63  84.9797
 49.6336  7310.3  84.9014
 49.6756  7434.47  85.8557
 49.7176  7347.03  85.2898
 49.7596  7341.78  85.0185
 49.8016  7393.88  85.2432
 49.8436  7384.57  85.4951
 49.8856  7259.72  84.7708
 49.9276  7280.82  84.9972
 49.9696  7323.39  85.2274
 50.0116  7359.55  85.5728
 50.0536  7360.04  85.5192
 50.0956  7256.47  84.9909
 50.1376  7332.09  85.1096
 50.1796  7255  84.9365
 50.2216  7288.75  85.1331
 50.2636  7227.95  84.3918
 50.3056  7262.06  84.7647
 50.3476  7302.07  85.028
 50.3896  7255.49  84.7241
 50.4316  7294.08  84.7785
 50.4736  7198.58  84.4463
 50.5156  7309.17  85.0846
 50.5576  7363.18  85.1455
 50.5996  7286.31  84.9945
 50.6416  7269.04  84.8142
 50.6836  7320.34  85.1787
 50.7256  7333.69  85.1805
 50.7676  7411.39  85.9568
 50.8096  7330.14  85.0075
 50.8516  7179.17  84.5439
 50.8936  7155.35  84.1949
 50.9356  7329.23  85.3132
 50.9776  7243.22  84.975
 51.0196  7104.09  84.2868
 51.0616  7101.41  83.5885
 51.1036  7143.65  84.198
 51.1456  7255.89  84.7665
 51.1876  7168.2  83.5772
 51.2296  7165.46  84.2128
 51.2716  7063.23  83.3117
 51.3136  6954.62  83.1346
 51.3556  7063.83  83.3952
 51.3976  7130.66  83.9444
 51.4396  6938.73  83.1238
 51.4816  7061.03  83.7044
 51.5236  7194.16  84.5756
 51.5656  7037.08  83.2384
 51.6076  7153.94  84.0135
 51.6496  7025.39  83.4489
 51.6916  7012.17  83.7321
 51.7336  7023.09  83.8913
 51.7756  6990.72  83.3826
 51.8176  7155.96  84.4833
 51.8596  7025.91  83.725
 51.9016  7168.68  84.1685
 51.9436  7111.8  85.3503
 51.9856  7130.38  85.8764
 52.0276  7198.19  84.736
 52.0696  7157.88  84.5656
 52.1116  7054.13  84.0789
 52.1536  7202.15  84.8245
 52.1956  7163.97  84.0637
 52.2376  7260.54  84.7974
 52.2796  7269.59  84.6629
 52.3216  6991.63  83.7308
 52.3636  7128.63  84.1034
 52.4056  7056.57  83.5374
 52.4476  7033.17  83.7622
 52.4896  7055.99  83.9538
 52.5316  7061.33  84.0362
 52.5736  6912.51  82.854
 52.6156  7130.65  84.5673
 52.6576  7023.51  83.3544
 52.6996  6823.85  83.1535
 52.7416  6823.13  82.9978
 52.7836  6992.29  83.917
 52.8256  7004.89  83.188
 52.8676  6874.25  82.9911
 52.9096  7042.87  84.0808
 52.9516  6957.57  83.9717
 52.9936  7010.49  84.6683
 53.0356  7039.99  83.8142
 53.0776  7010  83.919
 53.1196  7038.65  84.1996
 53.1616  7009.1  84.0803
 53.2036  6892.99  83.3517
 53.2456  6933.79  83.7044
 53.2876  7056.65  84.1274
 53.3296  6914.06  83.6084
 53.3716  7101.47  84.4675
 53.4136  6897.07  83.4017
 53.4556  6938.71  83.6812
 53.4976  6934.13  83.4837
 53.5396  6881.93  83.5739
 53.5816  7024.92  84.0728
 53.6236  6946.43  83.9551
 53.6656  7007.18  83.9042
 53.7076  7093.37  84.392
 53.7496  6962.46  83.741
 53.7916  6880.13  83.3779
 53.8336  7113.46  84.6663
 53.8756  6769.34  83.1652
 53.9176  6902.09  83.2971
 53.9596  6764.59  83.2249
 54.0016  6779.45  82.6464
 54.0436  6627.73  81.9408
 54.0856  6798.8  82.3962
 54.1276  6735.68  82.2172
 54.1696  6721.4  82.2999
 54.2116  6843.31  82.7795
 54.2536  6608.21  81.1607
 54.2956  6755.06  82.1146
 54.3376  6746  82.5469
 54.3796  6679.55  82.0369
 54.4216  6775.67  82.6799
 54.4636  6748.76  82.491
 54.5056  6694.62  81.9565
 54.5476  6580.64  81.5957
 54.5896  6656.42  81.899
 54.6316  6737.81  82.2438
 54.6736  6722.96  82.2343
 54.7156  6682.11  82.0133
 54.7576  6593.46  81.4432
 54.7996  6691.14  82.2055
 54.8416  6639.31  81.9474
 54.8836  6698.36  82.3714
 54.9256  6517.01  81.0358
 54.9676  6535.15  81.0126
 55.0096  6611.57  81.531
 55.0516  6573.9  81.5131
 55.0936  6515.54  80.8117
 55.1356  6610.43  81.4527
 55.1776  6742.81  82.5028
 55.2196  6593.14  81.3655
 55.2616  6704  82.2716
 55.3036  6548.72  81.5029
 55.3456  6384.25  80.6085
 55.3876  6562.87  81.4426
 55.4296  6481.15  80.9392
 55.4716  6489.28  81.0077
 55.5136  6584.34  81.3645
 55.5556  6723.37  82.2756
 55.5976  6587.03  81.5157
 55.6396  6632.56  81.7538
 55.6816  6440.12  80.3989
 55.7236  6451.09  80.5478
 55.7656  6602.66  81.1904
 55.8076  6529.15  80.7619
 55.8496  6484.54  80.796
 55.8916  6416.63  80.5784
 55.9336  6678.26  82.0278
 55.9756  6418.19  80.2974
 56.0176  6438.51  80.5545
 56.0596  6409.14  80.3866
 56.1016  6388.81  80.2841
 56.1436  6404.83  80.6176
 56.1856  6302.56  79.7409
 56.2276  6643.37  81.9122
 56.2696  6468.79  80.7853
 56.3116  6575.91  81.8597
 56.3536  6505.85  81.0846
 56.3956  6430.17  80.5893
 56.4376  6359.03  80.1957
 56.4796  6305.83  79.6648
 56.5216  6419.09  80.7503
 56.5636  6339.36  79.832
 56.6056  6525.85  81.2269
 56.6476  6355.78  79.7678
 56.6896  6562.31  81.5311
 56.7316  6421.16  80.5653
 56.7736  6432.12  80.6426
 56.8156  6354.77  80.1676
 56.8576  6197.74  79.1101
 56.8996  6342.21  79.9276
 56.9416  6359.33  80.3564
 56.9836  6431.96  80.319
 57.0256  6339.65  80.0658
 57.0676  6451.38  80.8736
 57.1096  6421.52  80.4788
 57.1516  6270.67  79.5889
 57.1936  6373.45  79.9966
 57.2356  6282.74  79.749
 57.2776  6414.96  80.5506
 57.3196  6355.32  80.5047
 57.3616  6331.8  79.8807
 57.4036  6384.35  80.2527
 57.4456  6398.85  80.3296
 57.4876  6315.65  79.6793
 57.5296  6312.54  79.9697
 57.5716  6218.17  79.3798
 57.6136  6230.9  79.3013
 57.6556  6292.39  79.8112
 57.6976  6365.36  80.0984
 57.7396  6202.74  79.4184
 57.7816  6229  79.964
 57.8236  6234.37  79.7846
 57.8656  6215.8  79.3406
 57.9076  6210.08  79.3201
 57.9496  6282.66  80.1437
 57.9916  6289.81  79.7021
 58.0336  6237.03  79.6431
 58.0756  6314.16  79.7637
 58.1176  6236.75  79.2766
 58.1596  6193.7  79.5856
 58.2016  6020.15  77.691
 58.2436  6031.1  78.1714
 58.2856  6005.65  77.9267
 58.3276  5950.7  77.9342
 58.3696  6020.31  78.1425
 58.4116  5947.68  77.5387
 58.4536  6086.98  78.3254
 58.4956  5880.78  77.1669
 58.5376  6126.17  78.3291
 58.5796  5973.71  77.768
 58.6216  6006.39  77.8025
 58.6636  6018.37  78.0831
 58.7056  5958.85  77.5567
 58.7476  5958.23  77.9946
 58.7896  5992.15  77.8633
 58.8316  5994.87  77.8785
 58.8736  6044.99  78.2124
 58.9156  5867.55  77.1001
 58.9576  6053.47  78.6313
 58.9996  6033.56  77.7544
 59.0416  6069.12  78.3459
 59.0836  6044.54  78.1002
 59.1256  5935.86  78.0946
 59.1676  5950.89  78.5035
 59.2096  6070.55  78.5895
 59.2516  5988.92  77.6422
 59.2936  5972.33  77.8608
 59.3356  5927.78  77.4487
 59.3776  6082.31  78.6213
 59.4196  5948.87  77.6903
 59.4616  5745.16  76.2122
 59.5036  5868.02  77.0557
 59.5456  5945.63  77.2613
 59.5876  6030.54  78.002
 59.6296  5922.89  77.3712
 59.6716  5830.14  76.8199
 59.7136  6035.47  78.1493
 59.7556  5941.58  77.6744
 59.7976  6001.72  77.8094
 59.8396  6060.75  78.0853
 59.8816  5942.89  77.8636
 59.9236  5828.66  76.7613
 59.9656  5921.62  77.6293
 60.0076  5879.08  76.7157
 60.0496  5941.61  77.6202
 60.0916  6116.12  78.1685
 60.1336  5915.23  77.9699
 60.1756  5952.88  79.3935
 60.1996  0.0000000E+00  0.0000000E+00