File: docs/examples/opeando_xrd/IS17_D/Data/IS17_D/17_Da_f00113.xye
# /beamlines/bl04/projects/cycle2025-II/20250340211-lsimonelli/DATA/IS17_D/17_Da_f00113.xye : mythproc.py merge -s 0.006 -l 0.5 -f /beamlines/bl04/inhouse/ff/FlatField/ff_20Nov2024rod8mm60s_17keV.raw -b True -c true -o xye /beamlines/bl04/projects/cycle2025-II/20250340211-lsimonelli/DATA/IS17_D/17_Da_00113.dat
# IsMon = [6777431, 6781796, 6782949]  IsPos = [-1.5000, -2.4884, -3.4988]
# Wave = 0.4962  CalPath /beamlines/bl04/projects/cycle2025-II/20250340211-lsimonelli/DATA/Align/Si_Pos1_25keV_f00001.cal
# Date = 2025-09-25_01:03:48 Dt = 4.8000  Bin = 0.0060  <imon> = 6780725 +/- 2377 (Min/Max) 6777431 / 6782949
# icurr 251.6815  mocoIn 1.7171E-05  mocoOut 0.8061  i15 7.09814e+06  imon 6.78073e+06  i7 7.6667  iEMpd_timer 4.8000  iEMpd_1 3.5899E-08  iEMpd_2 7.8989E-08  iEMpd_3 1.8298E-08  iEMpd_4 4.8421E-08  iEMhp_timer 4.8000  iEMhp_1 4.9183E-06  iEMhp_2 -2.5490E-08  iEMhp_3 -2.2861E-08  iEMhp_4 -2.0588E-08
#      9776
 1.5856  41152.3  208.356
 1.6276  48628.1  222.605
 1.6696  55191.3  236.316
 1.7116  64347.2  255.665
 1.7536  73147.9  271.427
 1.7956  77632.1  280.322
 1.8376  73790.7  273.731
 1.8796  62364.5  249.791
 1.9216  50630.7  225.97
 1.9636  42855.8  207.569
 2.0056  39172  197.18
 2.0476  36142.4  191.477
 2.0896  34851.8  186.925
 2.1316  33834.4  183.291
 2.1736  32507.1  181.085
 2.2156  32954.6  180.864
 2.2576  31874.8  178.513
 2.2996  30760.3  176.009
 2.3416  31107.1  175.587
 2.3836  30095  172.812
 2.4256  29625.2  172.017
 2.4676  29193.9  170.518
 2.5096  28914.6  169.756
 2.5516  28369.9  172.011
 2.5936  28532.6  169.026
 2.6356  27938.9  167.965
 2.6776  28283.2  167.841
 2.7196  27581.5  166.282
 2.7616  27450.1  165.661
 2.8036  27157.4  164.951
 2.8456  27142  165.535
 2.8876  26614.5  163.787
 2.9296  26237.4  162.757
 2.9716  25990.1  161.469
 3.0136  25707.2  160.656
 3.0556  25841.8  161.482
 3.0976  25724.6  160.033
 3.1396  25442.6  159.876
 3.1816  25133.8  158.837
 3.2236  25083.9  158.681
 3.2656  24835.1  156.894
 3.3076  24548.9  157.48
 3.3496  24958.6  157.694
 3.3916  25163.1  158.168
 3.4336  25620.9  160.192
 3.4756  25888.2  160.958
 3.5176  26681.2  163.187
 3.5596  26358.1  165.213
 3.6016  26538.7  162.794
 3.6436  25803.5  161.64
 3.6856  25464.5  158.85
 3.7276  24288.3  156.232
 3.7696  24215.4  155.996
 3.8116  23786.6  154.694
 3.8536  23889.7  154.96
 3.8956  23811.4  154.53
 3.9376  23678.5  154.35
 3.9796  23677  153.851
 4.0216  23658.2  152.804
 4.0636  23510.5  153.827
 4.1056  23523.5  153.503
 4.1476  23714.3  154.455
 4.1896  24137.4  155.677
 4.2316  23884.8  154.684
 4.2736  24489.7  156.414
 4.3156  24770.4  157.535
 4.3576  25605  160.1
 4.3996  25795.9  160.956
 4.4416  26314.3  162.143
 4.4836  26636.2  163.284
 4.5256  27058.6  165.205
 4.5676  27005.1  165.289
 4.6096  27484.3  165.758
 4.6516  28013.1  166.682
 4.6936  28113.9  167.795
 4.7356  28297.3  168.176
 4.7776  28345.5  168.143
 4.8196  28118.6  168.139
 4.8616  27571.6  165.964
 4.9036  27279.5  164.831
 4.9456  27257.2  165.418
 4.9876  26649.3  163.463
 5.0296  26901.3  164.052
 5.0716  26768.5  164.422
 5.1136  26829.7  164.324
 5.1556  27260.7  165.085
 5.1976  27682.7  166.368
 5.2396  27663.8  165.997
 5.2816  27688.2  166.542
 5.3236  27713.8  166.315
 5.3656  27157.7  165.567
 5.4076  27044.6  165.372
 5.4496  27201.2  165.326
 5.4916  27188  165.046
 5.5336  27384.7  165.639
 5.5756  27160.9  165.004
 5.6176  27342.1  164.98
 5.6596  27622  166.649
 5.7016  27497.5  165.693
 5.7436  27731.2  166.674
 5.7856  27360.7  165.617
 5.8276  27960  167.132
 5.8696  28031  167.421
 5.9116  28205.8  168.654
 5.9536  28437.9  169.104
 5.9956  28684  169.188
 6.0376  28616.6  169.627
 6.0796  28872.6  170.215
 6.1216  28990.7  170.762
 6.1636  29279.2  170.664
 6.2056  29300.1  171.393
 6.2476  29357.4  171.266
 6.2896  29571.7  171.741
 6.3316  29348.2  171.278
 6.3736  29698  172.174
 6.4156  29467  171.458
 6.4576  29891.5  172.234
 6.4996  30098.3  173.306
 6.5416  30232.1  173.838
 6.5836  30257.4  174.139
 6.6256  30460.1  174.28
 6.6676  30898.2  175.092
 6.7096  30657  175.28
 6.7516  31077.4  176.115
 6.7936  31411.6  176.482
 6.8356  31284.1  176.201
 6.8776  31757.4  178.339
 6.9196  31732  178.678
 6.9616  32294  179.685
 7.0036  32558.7  180.071
 7.0456  32663.4  179.645
 7.0876  32778  181.604
 7.1296  32613.8  180.348
 7.1716  32630.4  179.927
 7.2136  32391.3  179.042
 7.2556  32715.8  180.101
 7.2976  32437.3  179.837
 7.3396  32510.7  180.253
 7.3816  32464.6  180.347
 7.4236  32761.5  180.449
 7.4656  32930.3  180.393
 7.5076  33150.2  181.13
 7.5496  33245.3  181.93
 7.5916  33064.6  181.469
 7.6336  33408.7  182.31
 7.6756  33506.8  182.428
 7.7176  34053.9  184.224
 7.7596  33842.4  184.908
 7.8016  34138.2  187.936
 7.8436  34877.9  186.551
 7.8856  35051.6  186.623
 7.9276  35429.2  188.021
 7.9696  35931.7  189.668
 8.0116  36933.4  190.802
 8.0536  37144.3  191.611
 8.0956  36948.9  192.297
 8.1376  37213.8  192.45
 8.1796  37656.4  194.144
 8.2216  38283.8  194.469
 8.2636  38584.9  195.488
 8.3056  38571.4  196.238
 8.3476  39151.7  197.024
 8.3896  38932.6  196.556
 8.4316  39207.4  197.415
 8.4736  38901.8  196.1
 8.5156  38985.8  196.596
 8.5576  38349.3  195.976
 8.5996  38470.8  195.136
 8.6416  38301  195.99
 8.6836  38372.9  195.996
 8.7256  38829.7  196.599
 8.7676  38072.1  197.625
 8.8096  37922.8  194.53
 8.8516  38032.5  194.473
 8.8936  37431.7  192.756
 8.9356  37472.9  193.235
 8.9776  37709.4  193.919
 9.0196  37287.6  192.522
 9.0616  37604.6  192.791
 9.1036  36922.1  192.221
 9.1456  37124.5  192.09
 9.1876  36953.2  191.607
 9.2296  37235.6  191.719
 9.2716  36589.5  190.118
 9.3136  36753.8  190.534
 9.3556  36800.3  190.639
 9.3976  35441.7  187.627
 9.4396  35625.2  187.998
 9.4816  35289.9  186.982
 9.5236  35304.7  186.92
 9.5656  35263.5  187.136
 9.6076  34903.6  186.702
 9.6496  34736.2  186.191
 9.6916  35053.7  186.998
 9.7336  34887  186.341
 9.7756  34843.9  187.355
 9.8176  33984.8  184.676
 9.8596  34008.3  183.166
 9.9016  33773.9  182.526
 9.9436  33356.1  181.13
 9.9856  33038.2  180.67
 10.0276  32610.4  180.614
 10.0696  32555.8  179.493
 10.1116  31770  177.578
 10.1536  31644.8  176.907
 10.1956  31603  176.873
 10.2376  30997.9  174.684
 10.2796  31131.4  175.176
 10.3216  31049.2  175.068
 10.3636  30403.6  173.413
 10.4056  30138.5  173.054
 10.4476  29851  171.856
 10.4896  29975.8  171.667
 10.5316  29511.8  170.719
 10.5736  29154.4  170.414
 10.6156  28917.9  169.498
 10.6576  29016.3  168.336
 10.6996  28824.9  168.457
 10.7416  28408  167.468
 10.7836  28627.9  168.796
 10.8256  28228.6  168.051
 10.8676  28415  168.13
 10.9096  27846.3  166.485
 10.9516  27631  164.763
 10.9936  27739.7  165.282
 11.0356  27538.1  165.325
 11.0776  27270.4  163.831
 11.1196  26862.3  163.354
 11.1616  26642.2  162.361
 11.2036  26984.3  163.254
 11.2456  26717.6  163.155
 11.2876  26703  162.846
 11.3296  26412.9  161.854
 11.3716  26808.5  162.783
 11.4136  26632.7  163.119
 11.4556  26698.3  162.974
 11.4976  26888.2  162.522
 11.5396  27362.4  164.124
 11.5816  27811.7  165.93
 11.6236  28212.7  167.357
 11.6656  27667.6  164.873
 11.7076  26768.8  163.022
 11.7496  26383.3  165.857
 11.7916  26245.4  160.669
 11.8336  25929.6  160.593
 11.8756  25452.7  158.642
 11.9176  25676.9  158.99
 11.9596  25234.3  157.817
 12.0016  25503.7  159.454
 12.0436  25549.2  159.007
 12.0856  25151.8  158.3
 12.1276  25292.8  158.667
 12.1696  24858  156.418
 12.2116  25385.9  158.059
 12.2536  24687.6  156.692
 12.2956  24903.6  156.716
 12.3376  24475.5  155.588
 12.3796  24743.4  156.891
 12.4216  24849.2  156.436
 12.4636  24616.7  156.629
 12.5056  24816.8  156.522
 12.5476  25023.7  156.699
 12.5896  24848.5  156.784
 12.6316  24436.1  155.651
 12.6736  24618.3  156.714
 12.7156  24393.6  155.864
 12.7576  24511  156.472
 12.7996  24874.4  156.256
 12.8416  24604.6  156.466
 12.8836  25102.8  157.866
 12.9256  25240  157.295
 12.9676  25304.9  157.924
 13.0096  24834.5  157.578
 13.0516  25019.5  157.175
 13.0936  25523.6  158.883
 13.1356  25528.5  158.147
 13.1776  25417.5  158.813
 13.2196  25703.7  159.349
 13.2616  25552.1  159.19
 13.3036  25368.3  158.772
 13.3456  25449.6  159.202
 13.3876  25362.4  158.225
 13.4296  25156.1  157.724
 13.4716  25260.8  157.658
 13.5136  25656  159.046
 13.5556  25306.9  158.575
 13.5976  25471.5  159.232
 13.6396  25583.2  158.945
 13.6816  25014.7  157.547
 13.7236  25939.9  160.195
 13.7656  24908.7  157.521
 13.8076  25241.4  157.333
 13.8496  24913.3  157.099
 13.8916  24972.7  158.112
 13.9336  25077  157.654
 13.9756  25055.1  156.922
 14.0176  24710.1  156.528
 14.0596  24742  156.601
 14.1016  24588.3  156.515
 14.1436  24421.4  155.111
 14.1856  23950.1  153.898
 14.2276  23693.7  153.565
 14.2696  24078.8  154.641
 14.3116  23805.8  153.657
 14.3536  23381.9  152.469
 14.3956  23356.5  152.109
 14.4376  23567.7  152.568
 14.4796  23310.9  151.73
 14.5216  23242.5  152.319
 14.5636  22719.4  150.156
 14.6056  22944.4  150.468
 14.6476  23105.1  150.208
 14.6896  22537  148.898
 14.7316  22339.1  149.283
 14.7736  22146  147.781
 14.8156  21886.8  146.944
 14.8576  21723.7  146.249
 14.8996  21497.4  146.707
 14.9416  21121.8  145.423
 14.9836  21219.6  145.712
 15.0256  20982.9  143.796
 15.0676  21038.2  144.309
 15.1096  21028.7  144.008
 15.1516  20519.5  142.824
 15.1936  20510.2  142.205
 15.2356  20293.1  141.734
 15.2776  20125.2  140.726
 15.3196  19714.9  140.299
 15.3616  19828.4  140.452
 15.4036  19684.5  139.798
 15.4456  19839  139.988
 15.4876  19649.5  138.991
 15.5296  19239.1  137.826
 15.5716  19139.7  137.063
 15.6136  19096  137.237
 15.6556  19120.1  136.548
 15.6976  18924  136.151
 15.7396  18751  135.917
 15.7816  18822.3  135.671
 15.8236  18489.4  135.182
 15.8656  18476.7  134.922
 15.9076  18172.3  133.634
 15.9496  18112.1  136.256
 15.9916  18184.2  136.963
 16.0336  17855.7  132.591
 16.0756  17997.4  133.423
 16.1176  17982.2  133.268
 16.1596  17395.6  132.432
 16.2016  17709.6  132.342
 16.2436  17248.6  131.002
 16.2856  17239.9  130.504
 16.3276  17082.3  130.329
 16.3696  17550.7  131.919
 16.4116  16960.7  130.161
 16.4536  17272.3  131.121
 16.4956  16900.8  129.446
 16.5376  17033.7  130.137
 16.5796  16853.7  128.796
 16.6216  16904.9  129.301
 16.6636  16907.3  129.466
 16.7056  16765.8  128.787
 16.7476  16913.3  128.881
 16.7896  16893  129.563
 16.8316  16928.7  129.655
 16.8736  16784.4  129.38
 16.9156  16790  129.734
 16.9576  16567  129.677
 16.9996  16698.4  130.684
 17.0416  16853.9  129.614
 17.0836  16754.5  128.994
 17.1256  16614.5  128.469
 17.1676  16688  128.747
 17.2096  16493.9  127.864
 17.2516  16412  127.636
 17.2936  16429.4  127.73
 17.3356  15968.2  125.934
 17.3776  16114.7  126.695
 17.4196  16086.1  126.264
 17.4616  15816.2  125.126
 17.5036  15741.3  125.189
 17.5456  15646.2  125.47
 17.5876  15535.7  124.062
 17.6296  15505.1  123.747
 17.6716  15341  123.677
 17.7136  15290.2  123.621
 17.7556  15259.2  123.785
 17.7976  15241.9  123.454
 17.8396  15028  122.08
 17.8816  15129  123.04
 17.9236  15010  122.362
 17.9656  15109.9  123.302
 18.0076  15075.5  122.738
 18.0496  14951.7  121.364
 18.0916  14882.7  121.62
 18.1336  14950.3  121.999
 18.1756  15133.4  122.258
 18.2176  14682.8  120.659
 18.2596  14720.2  120.547
 18.3016  14981.8  121.866
 18.3436  14959.9  121.783
 18.3856  14560.4  120.29
 18.4276  14747.6  120.73
 18.4696  14554.6  120.023
 18.5116  14750.2  121.127
 18.5536  14836.7  121.838
 18.5956  14555.6  120.235
 18.6376  14486.9  120.355
 18.6796  14369.3  119.202
 18.7216  14663.7  120.894
 18.7636  14420  119.881
 18.8056  14343  119.498
 18.8476  14283.6  119.875
 18.8896  14307.2  119.307
 18.9316  14567.5  120.37
 18.9736  14504.6  119.808
 19.0156  14299.2  119.368
 19.0576  14348.4  118.433
 19.0996  14502  119.781
 19.1416  14156.4  118.739
 19.1836  14256.1  118.753
 19.2256  14259.2  118.974
 19.2676  14261.3  119.087
 19.3096  14319.2  119.565
 19.3516  14149.1  118.644
 19.3936  14210.4  118.971
 19.4356  14282.8  119.158
 19.4776  14277.5  119.216
 19.5196  14313.9  119.225
 19.5616  14144.3  118.773
 19.6036  14357.8  119.154
 19.6456  14306.2  119.064
 19.6876  14256  118.496
 19.7296  14168.5  118.598
 19.7716  14255.6  119.115
 19.8136  14323.1  119.616
 19.8556  14493.5  119.795
 19.8976  14260.9  118.895
 19.9396  14358.4  118.875
 19.9816  14621.2  120.19
 20.0236  14904.1  121.579
 20.0656  15153.4  122.581
 20.1076  15130  122.973
 20.1496  15283.5  123.601
 20.1916  15445.6  123.703
 20.2336  15304.9  123.117
 20.2756  14714.7  121.158
 20.3176  14509.8  120.05
 20.3596  14326.3  119.261
 20.4016  14218.3  118.615
 20.4436  14166.9  118.959
 20.4856  13844.9  117.403
 20.5276  13853.2  117.904
 20.5696  13939.7  117.818
 20.6116  13706.4  117.009
 20.6536  13835.9  117.057
 20.6956  13709.6  116.643
 20.7376  13754  117.064
 20.7796  13639.7  116.265
 20.8216  13916.9  117.141
 20.8636  13701.7  116.614
 20.9056  13562.6  115.963
 20.9476  13604.8  115.989
 20.9896  13700.8  116.255
 21.0316  13654.5  115.946
 21.0736  13481.7  115.742
 21.1156  13533.1  116.117
 21.1576  13532  116.169
 21.1996  13488.9  115.961
 21.2416  13305.4  115.01
 21.2836  13399.8  115.375
 21.3256  13358.9  115.286
 21.3676  13412  115.052
 21.4096  13409.6  115.407
 21.4516  13263.6  114.606
 21.4936  13115.2  114.214
 21.5356  13311.7  115.014
 21.5776  13317.2  114.867
 21.6196  13175.4  114.292
 21.6616  13254.3  114.726
 21.7036  13105.4  113.855
 21.7456  13218.3  114.42
 21.7876  13071.8  113.53
 21.8296  13072.9  113.39
 21.8716  13113.9  113.806
 21.9136  13264.2  114.658
 21.9556  13138.7  113.783
 21.9976  13195.7  114.045
 22.0396  13063.3  113.729
 22.0816  13123.6  114.538
 22.1236  13262.8  114.59
 22.1656  13173.1  114.324
 22.2076  13255.3  114.136
 22.2496  13063.2  113.333
 22.2916  13154.1  113.611
 22.3336  13088.6  114.058
 22.3756  13151.9  114.052
 22.4176  13041.2  113.425
 22.4596  12851.9  113.19
 22.5016  12964.2  113.17
 22.5436  13052.8  113.434
 22.5856  13049.1  113.675
 22.6276  13028.9  113.727
 22.6696  13023.9  114.058
 22.7116  13010.6  113.508
 22.7536  13183.4  114.233
 22.7956  12997.8  112.746
 22.8376  12938.2  113.016
 22.8796  13049.7  113.301
 22.9216  13120.4  114.165
 22.9636  12993.1  112.748
 23.0056  12963.7  112.757
 23.0476  12998  113.488
 23.0896  13318.4  114.236
 23.1316  13202.1  114.183
 23.1736  12960.2  116.135
 23.2156  13205.1  114.542
 23.2576  13044.4  113.988
 23.2996  13223.6  114.538
 23.3416  12923.1  113.754
 23.3836  13087.8  113.699
 23.4256  13041.3  113.626
 23.4676  12989.6  113.086
 23.5096  12949  113.592
 23.5516  12813.4  112.27
 23.5936  12983.5  113.938
 23.6356  13128.3  114.23
 23.6776  12956.5  113.693
 23.7196  12692.3  112.322
 23.7616  12964.9  113.209
 23.8036  12970.9  113.291
 23.8456  12876.7  112.431
 23.8876  12672.3  111.902
 23.9296  12587.7  112.015
 23.9716  12663.9  111.54
 24.0136  12753.9  112.85
 24.0556  12495.9  111.431
 24.0976  12560.1  111.524
 24.1396  12513  113.994
 24.1816  12515.6  112.409
 24.2236  12481.6  111.864
 24.2656  12315.9  110.583
 24.3076  12268.4  110.627
 24.3496  12232.8  110.35
 24.3916  12374.2  111.041
 24.4336  12208.5  110.505
 24.4756  12165  110.182
 24.5176  11848.3  108.383
 24.5596  12073.3  109.739
 24.6016  12101.3  109.954
 24.6436  11900.7  108.53
 24.6856  11982.8  108.659
 24.7276  11928.2  108.725
 24.7696  12015.1  109.241
 24.8116  11780  108.336
 24.8536  11766.1  108.276
 24.8956  11605.2  107.275
 24.9376  11579.3  107.339
 24.9796  11572.1  107.416
 25.0216  11467.4  107.043
 25.0636  11545.6  107.055
 25.1056  11431.4  107.235
 25.1476  11648.9  109.92
 25.1896  11652.9  108.402
 25.2316  11611.4  107.467
 25.2736  11475.5  106.489
 25.3156  11515.2  106.755
 25.3576  11386.8  106.578
 25.3996  11425.9  106.747
 25.4416  11477.6  106.966
 25.4836  11293.1  106.633
 25.5256  11292.6  105.991
 25.5676  11467.6  106.531
 25.6096  11129.4  105.526
 25.6516  11402.2  106.301
 25.6936  11257.5  105.945
 25.7356  11267.4  106.124
 25.7776  11413.7  106.487
 25.8196  11168.8  105.502
 25.8616  11274.7  105.913
 25.9036  11421.5  106.071
 25.9456  11198.8  105.625
 25.9876  11164  105.398
 26.0296  11256.1  105.471
 26.0716  11141.8  105.36
 26.1136  11265.1  105.885
 26.1556  11319.2  105.503
 26.1976  11194.7  105.868
 26.2396  11228.2  105.164
 26.2816  11288.3  106.068
 26.3236  11162.6  105.636
 26.3656  11070.7  104.929
 26.4076  11161  105.566
 26.4496  11637.3  107.285
 26.4916  11347.3  105.929
 26.5336  11279.7  105.941
 26.5756  11606  107.283
 26.6176  11132.4  105.154
 26.6596  11095.3  105.293
 26.7016  10997.6  104.581
 26.7436  10937.1  104.434
 26.7856  10873.3  104.106
 26.8276  11002.3  104.669
 26.8696  10908.9  104.105
 26.9116  10963  104.301
 26.9536  10691.3  103.05
 26.9956  10936.7  104.257
 27.0376  10737.6  103.529
 27.0796  10819.8  103.651
 27.1216  10729.4  103.295
 27.1636  10603.2  102.849
 27.2056  10714.5  103.265
 27.2476  10701.2  103.201
 27.2896  10656.6  103.094
 27.3316  10634.1  102.7
 27.3736  10650  103.044
 27.4156  10551.7  102.417
 27.4576  10533.7  102.555
 27.4996  10502.6  101.998
 27.5416  10570.1  102.645
 27.5836  10524.8  102.243
 27.6256  10898.7  104.211
 27.6676  10907  104.269
 27.7096  10574.3  102.536
 27.7516  10469.1  102.171
 27.7936  10414.8  102.084
 27.8356  10659.8  102.887
 27.8776  10336.4  101.364
 27.9196  10295.3  101.009
 27.9616  10425.3  101.839
 28.0036  10362.8  101.506
 28.0456  10349.8  101.559
 28.0876  10218.6  101.015
 28.1296  10364.9  101.578
 28.1716  10274.4  101.146
 28.2136  10300.9  101.234
 28.2556  10077.1  100.248
 28.2976  10266.8  101.171
 28.3396  10293.4  101.056
 28.3816  10257.2  100.905
 28.4236  10180.8  100.677
 28.4656  10171.9  100.676
 28.5076  10117.1  100.034
 28.5496  10125.3  100.341
 28.5916  10271.2  100.87
 28.6336  10070.1  100.227
 28.6756  10176.9  99.9428
 28.7176  10125.4  100.244
 28.7596  10112.2  100.074
 28.8016  10186  100.469
 28.8436  9924.16  99.4187
 28.8856  10166  100.47
 28.9276  10088.8  100.333
 28.9696  10062.3  99.8615
 29.0116  9999.45  99.7288
 29.0536  9928.43  99.5805
 29.0956  9991.84  99.6124
 29.1376  9800.17  98.6165
 29.1796  9991.34  99.6206
 29.2216  9967.04  99.3368
 29.2636  9901.52  99.0845
 29.3056  9940.49  99.0703
 29.3476  9972.45  99.76
 29.3896  9991.21  99.9448
 29.4316  10147.1  100.043
 29.4736  9921.36  98.9864
 29.5156  10004.8  99.3195
 29.5576  9950.68  99.8066
 29.5996  9882.11  98.7104
 29.6416  9831.32  98.5755
 29.6836  9972.73  99.2074
 29.7256  9959  99.7146
 29.7676  9986.84  99.5033
 29.8096  10040.2  99.7167
 29.8516  9588.11  97.7774
 29.8936  9806.74  98.9821
 29.9356  9981.72  99.6111
 29.9776  9731.64  98.5053
 30.0196  9875.15  98.6096
 30.0616  9751.97  98.3729
 30.1036  9764.2  98.2588
 30.1456  9811.74  98.7301
 30.1876  9806.85  98.6877
 30.2296  9595.72  97.5662
 30.2716  9915.98  98.8115
 30.3136  9826.19  99.232
 30.3556  9741.54  98.8266
 30.3976  9715.08  100.238
 30.4396  9820.23  98.0811
 30.4816  9814.21  97.6376
 30.5236  9640.44  96.7959
 30.5656  9667.82  97.5829
 30.6076  9631.65  97.1712
 30.6496  9637.8  97.2467
 30.6916  9580.69  97.0437
 30.7336  9599.61  97.3002
 30.7756  9578.77  97.2855
 30.8176  9783.79  98.2367
 30.8596  9676.67  97.4588
 30.9016  9676.53  97.3335
 30.9436  9623.48  97.2929
 30.9856  9794.72  98.2666
 31.0276  9664.52  97.2144
 31.0696  9549.03  97.2088
 31.1116  9498.84  96.9302
 31.1536  9654.25  97.5964
 31.1956  9510.21  96.9577
 31.2376  9507.79  96.9492
 31.2796  9561.59  96.756
 31.3216  9584.12  96.8167
 31.3636  9569.08  97.4401
 31.4056  9559  98.7236
 31.4476  9522.13  96.4004
 31.4896  9500.93  96.8042
 31.5316  9564.36  96.5128
 31.5736  9575.31  96.3917
 31.6156  9416.53  95.6065
 31.6576  9506.59  96.1635
 31.6996  9607.98  96.3408
 31.7416  9311.4  95.7738
 31.7836  9410.2  95.42
 31.8256  9353.11  95.4029
 31.8676  9659.01  96.9422
 31.9096  9335.67  95.5229
 31.9516  9082.63  94.5253
 31.9936  9273.22  95.3269
 32.0356  9386.51  95.9847
 32.0776  9370.92  95.7839
 32.1196  9315.83  95.5182
 32.1616  9431.55  95.6388
 32.2036  9309.16  95.5366
 32.2456  9241.81  95.5693
 32.2876  9390  95.8219
 32.3296  9217.08  94.8996
 32.3716  9274.31  95.2898
 32.4136  9336.03  95.8249
 32.4556  9367.58  95.358
 32.4976  9328.73  95.1115
 32.5396  9361.54  95.3063
 32.5816  9240.98  94.8127
 32.6236  9202.66  94.6852
 32.6656  9417.95  96.3359
 32.7076  9219.4  94.9679
 32.7496  9254.73  94.8096
 32.7916  9267.3  94.836
 32.8336  9399.26  95.604
 32.8756  9339.72  95.0213
 32.9176  9087.66  94.217
 32.9596  9079.27  94.2475
 33.0016  9253.7  94.9399
 33.0436  9217.31  94.9249
 33.0856  9186.78  94.8378
 33.1276  9013.98  93.6745
 33.1696  9242.35  94.7028
 33.2116  9209.01  94.7554
 33.2536  9173.85  94.5785
 33.2956  9305.43  95.336
 33.3376  9103.47  94.1098
 33.3796  9134.58  94.3994
 33.4216  9200.95  94.3322
 33.4636  9312.18  95.0546
 33.5056  9053.91  93.9694
 33.5476  8991.07  93.638
 33.5896  9223.59  94.598
 33.6316  9058.35  94.0787
 33.6736  9044.24  94.2507
 33.7156  8925.32  93.6686
 33.7576  9168.2  94.5566
 33.7996  9186.81  94.4132
 33.8416  8976.84  93.5133
 33.8836  8998.53  93.4032
 33.9256  9032.92  93.648
 33.9676  8905.29  92.8728
 34.0096  8919  93.2737
 34.0516  8901.26  92.811
 34.0936  8897.97  93.0571
 34.1356  8960.73  93.1221
 34.1776  8902.25  92.8272
 34.2196  8837.45  92.6749
 34.2616  8756.42  92.3842
 34.3036  8764.05  92.6802
 34.3456  8777.62  92.5
 34.3876  9000.82  93.7262
 34.4296  8826.32  92.4077
 34.4716  8882.44  92.8547
 34.5136  8961.91  93.469
 34.5556  8769.84  92.7189
 34.5976  8854.58  93.0118
 34.6396  8781.33  92.2957
 34.6816  8769.16  92.3474
 34.7236  8909.19  92.8589
 34.7656  8749.33  92.2167
 34.8076  8750.13  92.5505
 34.8496  8727.49  92.2836
 34.8916  8784.19  92.4568
 34.9336  8936.61  93.2165
 34.9756  8874.25  92.8471
 35.0176  8810.35  93.0102
 35.0596  8742.17  92.4858
 35.1016  8876.56  92.9487
 35.1436  8829.94  92.3859
 35.1856  8752.4  92.1095
 35.2276  8877.4  92.9386
 35.2696  8798.1  92.7198
 35.3116  8780.44  92.7166
 35.3536  8751.99  92.3149
 35.3956  8687.31  91.6354
 35.4376  8674.61  92.1416
 35.4796  8662.11  92.1275
 35.5216  8686.32  92.2107
 35.5636  8520.79  92.0826
 35.6056  8769.66  92.4122
 35.6476  8824.8  92.5972
 35.6896  8828.08  92.7007
 35.7316  8640.03  91.6892
 35.7736  8592.77  91.639
 35.8156  8606.19  91.7069
 35.8576  8625.05  92.0666
 35.8996  8635.27  92.0817
 35.9416  8670.88  91.7782
 35.9836  8527.23  91.4595
 36.0256  8645.99  92.0053
 36.0676  8630.21  91.6844
 36.1096  8577.87  91.5421
 36.1516  8689.86  92.0266
 36.1936  8548.66  91.12
 36.2356  8637.86  92.2507
 36.2776  8616.68  91.5991
 36.3196  8572.4  91.036
 36.3616  8591.76  91.2754
 36.4036  8507.64  90.8831
 36.4456  8603.09  91.6007
 36.4876  8481.16  90.8899
 36.5296  8548.24  91.2917
 36.5716  8461.17  91.6178
 36.6136  8643.99  91.332
 36.6556  8549.04  91.0397
 36.6976  8600.13  91.8192
 36.7396  8553.51  91.297
 36.7816  8513.57  91.4652
 36.8236  8486.3  91.2398
 36.8656  8448.99  91.1124
 36.9076  8378.27  90.6064
 36.9496  8414.7  90.7837
 36.9916  8441.33  90.556
 37.0336  8556.17  91.4955
 37.0756  8468.2  90.8124
 37.1176  8341.49  90.4019
 37.1596  8343.94  90.4225
 37.2016  8343.74  90.6488
 37.2436  8598.35  91.3161
 37.2856  8395.74  90.4971
 37.3276  8360.18  89.6445
 37.3696  8372.44  90.6147
 37.4116  8337.16  90.3239
 37.4536  8355.62  90.2926
 37.4956  8384.64  90.4938
 37.5376  8357.67  91.94
 37.5796  8298.94  91.5686
 37.6216  8130.76  88.8959
 37.6636  8223.78  89.3055
 37.7056  8262.58  89.7085
 37.7476  8359.74  89.7642
 37.7896  8335.77  90.1233
 37.8316  8054.53  88.7877
 37.8736  8257.93  89.4054
 37.9156  8203.95  89.1231
 37.9576  8258.48  89.2994
 37.9996  8178.27  88.5833
 38.0416  8144.93  89.2239
 38.0836  8394.11  90.4778
 38.1256  8204.95  89.4041
 38.1676  8136.09  89.1761
 38.2096  8331.66  89.8602
 38.2516  8316.01  89.9704
 38.2936  8252.01  89.4358
 38.3356  8284.44  89.51
 38.3776  8099.32  88.7905
 38.4196  8358.01  90.0401
 38.4616  8286.71  89.9069
 38.5036  8200.5  89.2782
 38.5456  8133.62  89.754
 38.5876  8193.79  90.1109
 38.6296  8080.94  88.4651
 38.6716  8179.5  88.7949
 38.7136  8052.89  88.0478
 38.7556  8067.24  88.6346
 38.7976  8156.26  89.0595
 38.8396  8044.15  88.9015
 38.8816  7977.58  88.3098
 38.9236  7987.08  88.1755
 38.9656  8162.53  89.0508
 39.0076  8019.39  87.6663
 39.0496  8045.9  88.36
 39.0916  8175.62  88.705
 39.1336  8054.82  88.4705
 39.1756  8073.92  88.6397
 39.2176  8122.25  89.4408
 39.2596  8081.32  89.1383
 39.3016  8044.67  88.5016
 39.3436  8140.1  89.4616
 39.3856  8123.56  88.8102
 39.4276  8139.42  89.4058
 39.4696  8059.33  88.5829
 39.5116  8016.35  88.8614
 39.5536  8200.93  90.3005
 39.5956  8195.56  89.3588
 39.6376  8165.88  89.2015
 39.6796  8119.38  88.6871
 39.7216  8169.67  89.059
 39.7636  8129.41  89.4265
 39.8056  8182.07  89.4865
 39.8476  8031.59  88.9162
 39.8896  8119.23  89.0259
 39.9316  8028.37  88.7734
 39.9736  8235.16  89.4722
 40.0156  8127.96  88.7086
 40.0576  8112.39  88.9888
 40.0996  8131.8  88.2795
 40.1416  8209.95  89.5032
 40.1836  8186.7  89.2618
 40.2256  8167.62  89.2072
 40.2676  8100.83  89.0133
 40.3096  8332.78  90.134
 40.3516  8284.42  89.9789
 40.3936  8287.77  89.5546
 40.4356  8067.35  88.5483
 40.4776  8198.26  89.5198
 40.5196  8164.86  89.6319
 40.5616  8283.42  89.9178
 40.6036  8066.73  88.9844
 40.6456  8235.42  89.5074
 40.6876  8309.14  89.8992
 40.7296  8249.65  89.7133
 40.7716  8237.32  89.7798
 40.8136  8163.17  89.318
 40.8556  8194.26  89.6274
 40.8976  8294.57  90.0837
 40.9396  8072.74  89.235
 40.9816  8242.03  89.4251
 41.0236  8241.47  89.2064
 41.0656  8348.43  90.3355
 41.1076  8228.7  89.4464
 41.1496  8164.42  89.0123
 41.1916  8117.44  89.0808
 41.2336  8160.3  89.3088
 41.2756  8007.66  88.0723
 41.3176  8127.93  89.3554
 41.3596  8149.27  89.1923
 41.4016  8167.79  89.5517
 41.4436  8246.02  89.7668
 41.4856  8136.07  89.331
 41.5276  8138.24  89.365
 41.5696  8163.16  89.1257
 41.6116  8107.95  89.2307
 41.6536  8253.91  89.8813
 41.6956  8117.38  89.1152
 41.7376  8108.96  89.1706
 41.7796  8100.55  89.006
 41.8216  8064.55  89.0463
 41.8636  8193.28  89.6896
 41.9056  7981.66  88.3182
 41.9476  8048.39  88.9182
 41.9896  8113.28  88.9389
 42.0316  8259.31  89.8172
 42.0736  8128.67  89.2503
 42.1156  8093.27  88.8614
 42.1576  8204.3  89.5636
 42.1996  8069.46  88.9715
 42.2416  8086.63  88.6421
 42.2836  8056.68  88.5963
 42.3256  7942.47  88.0814
 42.3676  8058.38  88.5247
 42.4096  8151.24  88.9904
 42.4516  8080.15  88.6963
 42.4936  7965.13  88.1302
 42.5356  8036.6  88.6546
 42.5776  8034.89  88.5859
 42.6196  8149.49  89.272
 42.6616  7957.45  88.3857
 42.7036  8077.96  88.4303
 42.7456  8105.71  88.9494
 42.7876  8003.21  88.4806
 42.8296  8060.52  88.6283
 42.8716  7976.05  88.3211
 42.9136  7963.43  87.9968
 42.9556  8096.42  88.9077
 42.9976  8022.39  88.4613
 43.0396  8004.75  88.0929
 43.0816  8024.15  88.5819
 43.1236  7954.29  88.257
 43.1656  8007.65  88.3764
 43.2076  7925.31  88.0337
 43.2496  7941.42  87.9282
 43.2916  7960.9  88.4094
 43.3336  7964.91  88.2654
 43.3756  7958.99  87.9831
 43.4176  7875.38  87.6056
 43.4596  7805.58  87.0692
 43.5016  7937.89  88.2168
 43.5436  7881.55  87.8004
 43.5856  7897.83  87.9149
 43.6276  7871.2  87.6599
 43.6696  7918.96  88.1886
 43.7116  7956.72  87.8904
 43.7536  7911.66  88.1414
 43.7956  7765.13  88.5124
 43.8376  7882.36  87.6914
 43.8796  7889.54  87.8168
 43.9216  7864.12  87.5911
 43.9636  7890.41  87.8454
 44.0056  7803.88  87.5949
 44.0476  7732.7  86.8268
 44.0896  7761.11  87.3339
 44.1316  7827.01  87.2186
 44.1736  7743.47  86.8755
 44.2156  7856.94  87.3668
 44.2576  7763.35  87.1733
 44.2996  7767.44  87.1616
 44.3416  7907.76  87.6984
 44.3836  7770.31  87.2725
 44.4256  7519.94  85.4989
 44.4676  7657.32  86.435
 44.5096  7821.15  87.4937
 44.5516  7672.82  86.6147
 44.5936  7677.24  86.6088
 44.6356  7778.43  86.9099
 44.6776  7742.62  87.0355
 44.7196  7636.94  86.748
 44.7616  7643.15  88.1269
 44.8036  7684.82  86.986
 44.8456  7620.56  86.6179
 44.8876  7644.35  86.6003
 44.9296  7612.77  85.8788
 44.9716  7623.32  86.3773
 45.0136  7664.07  86.5307
 45.0556  7608.04  86.297
 45.0976  7467.58  85.5562
 45.1396  7559.53  85.8262
 45.1816  7622.67  86.1244
 45.2236  7680.09  86.3517
 45.2656  7577.39  86.27
 45.3076  7483.51  85.5228
 45.3496  7612.34  86.5605
 45.3916  7595.55  86.7382
 45.4336  7515.35  86.1274
 45.4756  7541.71  86.1353
 45.5176  7677.32  86.5166
 45.5596  7643.09  86.4355
 45.6016  7556.74  86.3729
 45.6436  7560.84  85.5732
 45.6856  7478.05  85.7576
 45.7276  7458.39  86.9587
 45.7696  7461.03  86.6388
 45.8116  7516.12  86.4052
 45.8536  7442.15  85.8785
 45.8956  7572.16  85.9696
 45.9376  7615.98  85.676
 45.9796  7561.57  86.0569
 46.0216  7603.62  86.6483
 46.0636  7708.45  86.3673
 46.1056  7607.65  85.7899
 46.1476  7581  86.2373
 46.1896  7465.91  85.7298
 46.2316  7459.62  85.5604
 46.2736  7506.31  86.0485
 46.3156  7575.51  86.1794
 46.3576  7480.24  85.8402
 46.3996  7417.78  85.6427
 46.4416  7538.44  85.8808
 46.4836  7390.27  85.4145
 46.5256  7458.85  85.749
 46.5676  7435.07  85.7274
 46.6096  7538.04  86.2579
 46.6516  7575.61  85.4968
 46.6936  7329.72  84.5891
 46.7356  7547.42  85.9461
 46.7776  7433.05  86.1315
 46.8196  7417.64  85.7782
 46.8616  7250  84.6066
 46.9036  7278.81  84.4294
 46.9456  7292.57  84.1449
 46.9876  7282.37  84.1808
 47.0296  7378.52  85.4171
 47.0716  7259.17  84.5514
 47.1136  7226.88  84.0429
 47.1556  7238  83.9791
 47.1976  7430.86  85.2407
 47.2396  7311.91  84.879
 47.2816  7214.34  84.0197
 47.3236  7370.98  85.3021
 47.3656  7313.3  84.8939
 47.4076  7325.26  84.6983
 47.4496  7233.01  84.3189
 47.4916  7219.99  84.4423
 47.5336  7271.36  84.5525
 47.5756  7321.81  84.964
 47.6176  7288.27  84.6681
 47.6596  7184.16  83.7771
 47.7016  7328.75  84.4244
 47.7436  7295.31  84.58
 47.7856  7291.33  84.5842
 47.8276  7212.32  84.1721
 47.8696  7243.61  84.4429
 47.9116  7280.75  84.3565
 47.9536  7273.65  84.2629
 47.9956  7069.14  83.7764
 48.0376  7076.59  83.5955
 48.0796  7217.87  84.5564
 48.1216  7324.62  84.9872
 48.1636  7369.13  84.8263
 48.2056  7341.15  84.9278
 48.2476  7268.58  84.8209
 48.2896  7254.19  84.6399
 48.3316  7173.24  84.1107
 48.3736  7111.51  83.769
 48.4156  7104.03  83.574
 48.4576  7088.02  83.7762
 48.4996  7274.67  84.3239
 48.5416  7236.89  84.4365
 48.5836  7229.89  84.0686
 48.6256  7092.94  83.4644
 48.6676  7238.84  84.8399
 48.7096  7088.76  83.2309
 48.7516  7063.76  83.2361
 48.7936  7000.95  82.9184
 48.8356  7143.11  83.8123
 48.8776  7055.27  83.8602
 48.9196  7213.44  84.1664
 48.9616  7056.11  83.6137
 49.0036  7093.19  84.1959
 49.0456  7103.37  84.2306
 49.0876  7170.97  84.1514
 49.1296  7035.97  83.5266
 49.1716  6957.79  82.9365
 49.2136  7139.02  83.9319
 49.2556  7092.2  83.693
 49.2976  7049.24  83.5127
 49.3396  7041.8  83.5236
 49.3816  7177.73  83.7469
 49.4236  7083.33  83.62
 49.4656  6973.73  82.9851
 49.5076  6994.77  82.8623
 49.5496  6967.36  82.7631
 49.5916  7056.69  83.2075
 49.6336  6993.33  83.038
 49.6756  7031.67  83.5078
 49.7176  6997.33  83.2358
 49.7596  7053.32  83.3334
 49.8016  7144.7  83.7944
 49.8436  6904.17  82.6578
 49.8856  6880.33  82.5295
 49.9276  6947.64  83.0238
 49.9696  6896.99  82.7045
 50.0116  6985.35  83.3645
 50.0536  7026.96  83.5678
 50.0956  6849.54  82.5711
 50.1376  6950.82  82.8781
 50.1796  6866.01  82.6413
 50.2216  6954.24  83.1674
 50.2636  6912.83  82.5347
 50.3056  6840.8  82.277
 50.3476  6952.9  82.9681
 50.3896  6912.83  82.703
 50.4316  6982.65  82.9547
 50.4736  6834.61  82.2878
 50.5156  6997.51  83.2513
 50.5576  7028.4  83.1966
 50.5996  6802.82  82.1275
 50.6416  6797.81  82.0262
 50.6836  6902.76  82.7152
 50.7256  6952.31  82.9401
 50.7676  6875.93  82.8021
 50.8096  6870.44  82.3038
 50.8516  6865.75  82.6898
 50.8936  6812.82  82.1535
 50.9356  6870.98  82.606
 50.9776  6866.4  82.7299
 51.0196  6724.55  81.9944
 51.0616  6767.97  81.5885
 51.1036  6896.47  82.7117
 51.1456  6872.97  82.4877
 51.1876  6838.45  81.6223
 51.2296  6795.77  81.9979
 51.2716  6729.25  81.3043
 51.3136  6726.31  81.7379
 51.3556  6755.56  81.5406
 51.3976  6824.38  82.1108
 51.4396  6696.24  81.6327
 51.4816  6738.26  81.7492
 51.5236  6814.36  82.2876
 51.5656  6664.4  80.9913
 51.6076  6785.17  81.8039
 51.6496  6738.33  81.7116
 51.6916  6670.93  81.6582
 51.7336  6700.07  81.9244
 51.7756  6610.27  81.0778
 51.8176  6652.54  81.4357
 51.8596  6698.73  81.7398
 51.9016  6903.28  82.5797
 51.9436  6686.92  82.7492
 51.9856  6588.97  82.5681
 52.0276  6719.37  81.884
 52.0696  6724.39  81.9845
 52.1116  6653.67  81.6545
 52.1536  6737.56  82.0155
 52.1956  6691.29  81.2297
 52.2376  6919.44  82.7943
 52.2796  6619.31  80.7867
 52.3216  6644.06  81.6336
 52.3636  6670.45  81.3725
 52.4056  6668.67  81.21
 52.4476  6682.87  81.6732
 52.4896  6685.01  81.7376
 52.5316  6616.68  81.3654
 52.5736  6582.39  80.8706
 52.6156  6567.76  81.1622
 52.6576  6780.61  81.8965
 52.6996  6518.35  81.2681
 52.7416  6632.25  81.8287
 52.7836  6673.67  81.9782
 52.8256  6690.65  81.2939
 52.8676  6537.27  80.9416
 52.9096  6694.03  81.9848
 52.9516  6543.36  81.4193
 52.9936  6478.36  81.4052
 53.0356  6471.94  80.379
 53.0776  6487.49  80.7395
 53.1196  6520.94  81.0719
 53.1616  6470.74  80.8051
 53.2036  6445.65  80.6078
 53.2456  6410.16  80.4892
 53.2876  6454.6  80.468
 53.3296  6504.32  81.1048
 53.3716  6525.52  80.9855
 53.4136  6551.54  81.2893
 53.4556  6428.93  80.5572
 53.4976  6434.07  80.44
 53.5396  6452.35  80.9434
 53.5816  6393.15  80.2108
 53.6236  6442.14  80.8593
 53.6656  6463.76  80.618
 53.7076  6492.5  80.7628
 53.7496  6487.32  80.8537
 53.7916  6551.13  81.3735
 53.8336  6319.36  79.8232
 53.8756  6433.74  81.0883
 53.9176  6488.02  80.772
 53.9596  6476.16  81.4646
 54.0016  6406.05  80.3527
 54.0436  6425.89  80.6945
 54.0856  6471.81  80.4099
 54.1276  6500.04  80.784
 54.1696  6438.57  80.5721
 54.2116  6396.71  80.0729
 54.2536  6505.55  80.5632
 54.2956  6426.04  80.1122
 54.3376  6349.63  80.1173
 54.3796  6383.3  80.2278
 54.4216  6463.88  80.7844
 54.4636  6415.85  80.4434
 54.5056  6438.44  80.4031
 54.5476  6419.65  80.6185
 54.5896  6535.99  81.1678
 54.6316  6452.13  80.5113
 54.6736  6390.92  80.2012
 54.7156  6401.45  80.2931
 54.7576  6362.08  80.0374
 54.7996  6352.18  80.1354
 54.8416  6444.2  80.7409
 54.8836  6340.69  80.21
 54.9256  6370.39  80.1361
 54.9676  6483.91  80.7022
 55.0096  6435.49  80.4748
 55.0516  6424.21  80.6356
 55.0936  6431.25  80.3083
 55.1356  6406  80.1906
 55.1776  6364.79  80.2112
 55.2196  6384.47  80.1118
 55.2616  6318.62  79.9177
 55.3036  6395.12  80.5579
 55.3456  6403.03  80.75
 55.3876  6334.74  80.0678
 55.4296  6399.73  80.4512
 55.4716  6416.04  80.5908
 55.5136  6356.21  79.968
 55.5556  6342.76  79.9582
 55.5976  6299.52  79.7427
 55.6396  6359.15  79.9833
 55.6816  6328.1  79.7459
 55.7236  6360.58  79.9913
 55.7656  6420.64  80.1201
 55.8076  6450.99  80.2925
 55.8496  6339.91  80.0384
 55.8916  6288.03  79.7993
 55.9336  6353.46  80.0273
 55.9756  6190.13  78.8848
 56.0176  6379.39  80.2332
 56.0596  6336.07  79.9452
 56.1016  6381.34  80.2405
 56.1436  6270.39  79.8008
 56.1856  6344.53  80.0063
 56.2276  6258.89  79.5303
 56.2696  6350.39  80.0778
 56.3116  6246.2  79.8258
 56.3536  6362.02  80.2129
 56.3956  6253.36  79.5186
 56.4376  6274.27  79.6846
 56.4796  6352.15  79.9733
 56.5216  6316.96  80.1325
 56.5636  6435.15  80.4592
 56.6056  6299.43  79.8439
 56.6476  6287.89  79.3922
 56.6896  6256.39  79.6503
 56.7316  6304.18  79.8621
 56.7736  6328.98  80.0066
 56.8156  6310.4  79.889
 56.8576  6319.71  79.8857
 56.8996  6299.22  79.6954
 56.9416  6246.78  79.6696
 56.9836  6270.96  79.341
 57.0256  6318.6  79.9578
 57.0676  6210.96  79.3977
 57.1096  6320.03  79.8799
 57.1516  6267.89  79.6065
 57.1936  6275.77  79.4074
 57.2356  6312.28  79.9589
 57.2776  6297.83  79.8286
 57.3196  6300.35  80.2176
 57.3616  6280.77  79.5788
 57.4036  6317.96  79.8737
 57.4456  6219.85  79.2201
 57.4876  6307.54  79.6356
 57.5296  6130.6  78.8486
 57.5716  6273.37  79.7516
 57.6136  6285.54  79.6328
 57.6556  6320.93  80.0057
 57.6976  6261.5  79.4581
 57.7396  6131.11  78.9979
 57.7816  6196.46  79.7766
 57.8236  6241.12  79.8553
 57.8656  6270.61  79.6997
 57.9076  6222.32  79.4156
 57.9496  6255.06  79.9814
 57.9916  6238.45  79.3858
 58.0336  6224.76  79.5752
 58.0756  6312.48  79.7384
 58.1176  6220.8  79.1784
 58.1596  6174.47  79.4561
 58.2016  6341.14  79.718
 58.2436  6346.01  80.165
 58.2856  6241.77  79.4306
 58.3276  6272.98  80.0054
 58.3696  6244.84  79.5729
 58.4116  6256.72  79.5134
 58.4536  6237.51  79.2739
 58.4956  6240.2  79.4758
 58.5376  6301.85  79.4314
 58.5796  6269.57  79.6575
 58.6216  6201.72  79.036
 58.6636  6299.22  79.8757
 58.7056  6194.49  79.0615
 58.7476  6207.53  79.5981
 58.7896  6239  79.4353
 58.8316  6285.42  79.7294
 58.8736  6334.7  80.0492
 58.9156  6165.3  79.0181
 58.9576  6363.61  80.5997
 58.9996  6360.28  79.8121
 59.0416  6416.81  80.5407
 59.0836  6254.07  79.4372
 59.1256  6216.5  79.9034
 59.1676  6222.41  80.2607
 59.2096  6299.31  80.0425
 59.2516  6410.89  80.3167
 59.2936  6310  80.0175
 59.3356  6344.57  80.1111
 59.3776  6356.58  80.3602
 59.4196  6306.52  79.9765
 59.4616  6322.58  79.9363
 59.5036  6247.76  79.4968
 59.5456  6332.86  79.7235
 59.5876  6487.18  80.887
 59.6296  6193.79  79.1069
 59.6716  6229.06  79.3906
 59.7136  6325.77  79.9925
 59.7556  6287.01  79.8863
 59.7976  6284.02  79.6043
 59.8396  6255.37  79.315
 59.8816  6267.77  79.9481
 59.9236  6189.53  79.0879
 59.9656  6330.7  80.2493
 60.0076  6259.48  79.1447
 60.0496  6344.61  80.1974
 60.0916  6461.18  80.3291
 60.1336  6189.4  79.7423
 60.1756  6348.25  81.9731
 60.1996  0.0000000E+00  0.0000000E+00