File: docs/examples/opeando_xrd/IS17_D/Data/IS17_D/17_Da_f00132.xye
# /beamlines/bl04/projects/cycle2025-II/20250340211-lsimonelli/DATA/IS17_D/17_Da_f00132.xye : mythproc.py merge -s 0.006 -l 0.5 -f /beamlines/bl04/inhouse/ff/FlatField/ff_20Nov2024rod8mm60s_17keV.raw -b True -c true -o xye /beamlines/bl04/projects/cycle2025-II/20250340211-lsimonelli/DATA/IS17_D/17_Da_00132.dat
# IsMon = [6778698, 6777606, 6781573]  IsPos = [-1.4999, -2.4884, -3.4988]
# Wave = 0.4962  CalPath /beamlines/bl04/projects/cycle2025-II/20250340211-lsimonelli/DATA/Align/Si_Pos1_25keV_f00001.cal
# Date = 2025-09-25_06:21:08 Dt = 4.8000  Bin = 0.0060  <imon> = 6779292 +/- 1673 (Min/Max) 6777606 / 6781573
# icurr 252.3108  mocoIn 1.7213E-05  mocoOut 0.8074  i15 7.10064e+06  imon 6.77929e+06  i7 5.3333  iEMpd_timer 4.8000  iEMpd_1 3.5222E-08  iEMpd_2 8.0282E-08  iEMpd_3 1.7561E-08  iEMpd_4 4.9841E-08  iEMhp_timer 4.8000  iEMhp_1 4.9279E-06  iEMhp_2 -2.5813E-08  iEMhp_3 -2.4473E-08  iEMhp_4 -2.1429E-08
#      9776
 1.5856  41000.3  207.929
 1.6276  48230.7  221.65
 1.6696  54527.6  234.844
 1.7116  63173.1  253.271
 1.7536  72788  270.704
 1.7956  77142.5  279.381
 1.8376  73480.5  273.101
 1.8796  61915.6  248.844
 1.9216  49745.5  223.941
 1.9636  42018.8  204.973
 2.0056  37640.2  193.247
 2.0476  34836.9  187.95
 2.0896  33758  183.932
 2.1316  32958.4  180.867
 2.1736  31177.9  177.309
 2.2156  31140.1  175.779
 2.2576  30205.3  173.74
 2.2996  29326.3  171.823
 2.3416  29533.1  171.052
 2.3836  28700.6  168.728
 2.4256  28002.6  167.206
 2.4676  27667.3  165.966
 2.5096  27316.8  164.966
 2.5516  27687.3  169.925
 2.5936  40216.2  200.66
 2.6356  26728.8  164.286
 2.6776  26201.1  161.551
 2.7196  25794.7  160.809
 2.7616  25665.9  160.187
 2.8036  25224.4  158.971
 2.8456  25298.1  159.817
 2.8876  24734.6  157.905
 2.9296  24337.5  156.755
 2.9716  24086.5  155.443
 3.0136  23841.1  154.714
 3.0556  24090.4  155.916
 3.0976  23949.6  154.4
 3.1396  23613  154.019
 3.1816  23491.3  153.559
 3.2236  23187.7  152.564
 3.2656  23349.8  152.14
 3.3076  22988.9  152.395
 3.3496  23539.8  153.156
 3.3916  23888.2  154.11
 3.4336  24225.2  155.767
 3.4756  24632.8  156.997
 3.5176  25359.1  159.097
 3.5596  25628.3  162.356
 3.6016  25552.4  159.741
 3.6436  24705.4  158.17
 3.6856  24357.2  155.355
 3.7276  23556  153.87
 3.7696  23362.6  153.422
 3.8116  22761.7  151.327
 3.8536  22885.3  151.666
 3.8956  22936.8  151.663
 3.9376  22882.5  151.742
 3.9796  22604.6  150.326
 4.0216  23015.7  150.726
 4.0636  22742.5  151.289
 4.1056  22858.3  151.324
 4.1476  22991.5  152.077
 4.1896  23104.6  152.306
 4.2316  23169.2  152.345
 4.2736  23804.8  154.21
 4.3156  24181.6  155.651
 4.3576  24703.9  157.254
 4.3996  25081.6  158.719
 4.4416  25782.9  160.497
 4.4836  26130.8  161.734
 4.5256  26526.2  163.564
 4.5676  26284.7  163.07
 4.6096  26798.9  163.316
 4.6516  27420  164.908
 4.6936  27520.6  166.017
 4.7356  27743  166.521
 4.7776  27721.1  166.286
 4.8196  27515  166.319
 4.8616  26880.7  163.879
 4.9036  26470.3  162.364
 4.9456  26458.2  162.973
 4.9876  25886.4  161.105
 5.0296  26198.8  161.895
 5.0716  26050.5  162.198
 5.1136  26249.5  162.539
 5.1556  26715.3  163.436
 5.1976  27880.5  166.95
 5.2396  27074  164.217
 5.2816  26917.3  164.2
 5.3236  27061.3  164.348
 5.3656  26810.9  164.506
 5.4076  26640.3  164.136
 5.4496  26697.7  163.797
 5.4916  26771.8  163.779
 5.5336  26878.7  164.112
 5.5756  26544  163.113
 5.6176  26737.4  163.141
 5.6596  26976.1  164.851
 5.7016  27199.3  164.792
 5.7436  27336.1  165.478
 5.7856  27105.7  164.842
 5.8276  27592.9  166.036
 5.8696  27796.3  166.821
 5.9116  27719.7  167.193
 5.9536  27839.7  167.305
 5.9956  28222.3  167.82
 6.0376  28402.2  168.991
 6.0796  28717.9  169.758
 6.1216  28491.1  169.289
 6.1636  28923.4  169.623
 6.2056  28721.7  169.698
 6.2476  28947.8  170.24
 6.2896  29046.1  170.209
 6.3316  28988.5  170.213
 6.3736  29220.9  170.786
 6.4156  29119.1  170.386
 6.4576  29341.1  170.642
 6.4996  29578.9  171.813
 6.5416  29527.6  171.8
 6.5836  29626.9  172.319
 6.6256  29747.7  172.232
 6.6676  30120.9  172.876
 6.7096  30052.3  173.534
 6.7516  30333.6  173.998
 6.7936  30740.3  174.578
 6.8356  31083.7  175.635
 6.8776  31489.9  177.592
 6.9196  31107  176.91
 6.9616  31575.3  177.681
 7.0036  32260.5  179.242
 7.0456  32138.7  178.196
 7.0876  31935.5  179.327
 7.1296  31997.4  178.636
 7.1716  31995.9  178.161
 7.2136  31708.8  177.146
 7.2556  31976.5  178.056
 7.2976  32240.6  179.292
 7.3396  31924.6  178.629
 7.3816  31754.2  178.361
 7.4236  32144  178.742
 7.4656  32458.4  179.095
 7.5076  32640  179.73
 7.5496  32732.1  180.52
 7.5916  32645.3  180.318
 7.6336  33122.2  181.525
 7.6756  33079.8  181.26
 7.7176  33501.7  182.726
 7.7596  33428.4  183.775
 7.8016  34477.3  188.846
 7.8436  34284.4  184.975
 7.8856  34666.4  185.614
 7.9276  35276.3  187.623
 7.9696  35308.8  188.036
 8.0116  36552.2  189.834
 8.0536  36634.9  190.31
 8.0956  36744.8  191.783
 8.1376  36951.6  191.792
 8.1796  37444.3  193.624
 8.2216  38042.1  193.875
 8.2636  38605.2  195.558
 8.3056  38254.5  195.441
 8.3476  38688.8  195.876
 8.3896  38628.9  195.808
 8.4316  38501.9  195.65
 8.4736  38758.1  195.76
 8.5156  38472.7  195.317
 8.5576  38164.4  195.53
 8.5996  38408.9  194.995
 8.6416  38189.7  195.731
 8.6836  37798.6  194.54
 8.7256  38564.6  195.949
 8.7676  38454.9  198.617
 8.8096  38460.7  195.868
 8.8516  37638.4  193.38
 8.8936  37895.3  193.929
 8.9356  37263.7  192.664
 8.9776  37539.6  193.462
 9.0196  37155.3  192.141
 9.0616  37556  192.634
 9.1036  37468.4  193.631
 9.1456  37066.1  191.922
 9.1876  36855.4  191.333
 9.2296  36991.9  191.072
 9.2716  36435.1  189.706
 9.3136  36534.5  189.949
 9.3556  36576.1  190.033
 9.3976  35150.7  186.831
 9.4396  35993.3  188.946
 9.4816  35210.5  186.745
 9.5236  35456.6  187.3
 9.5656  35049.3  186.554
 9.6076  34754.2  186.292
 9.6496  34532.7  185.625
 9.6916  34768.5  186.226
 9.7336  34730.6  185.904
 9.7756  35096.5  188.17
 9.8176  34059  184.879
 9.8596  33769.3  182.523
 9.9016  33477  181.724
 9.9436  33205.3  180.896
 9.9856  32796.7  180.012
 10.0276  32336.5  179.857
 10.0696  32800.8  180.166
 10.1116  31707.1  177.403
 10.1536  31874.4  178.04
 10.1956  31325.1  176.095
 10.2376  30903.7  174.405
 10.2796  31211.3  175.401
 10.3216  30844.2  174.641
 10.3636  31024.8  175.181
 10.4056  31034.3  175.616
 10.4476  31246.8  175.829
 10.4896  31783.6  176.769
 10.5316  30698.5  174.451
 10.5736  30008.7  172.894
 10.6156  29392.4  170.87
 10.6576  30913.5  173.756
 10.6996  29322.2  169.903
 10.7416  28926.8  168.993
 10.7836  29199.6  170.481
 10.8256  28671.4  169.362
 10.8676  28743.1  169.102
 10.9096  28386.6  168.087
 10.9516  28042.2  165.985
 10.9936  28284.8  166.894
 11.0356  28122.5  167.069
 11.0776  28179  166.537
 11.1196  27826.1  166.259
 11.1616  27456.2  164.835
 11.2036  27819.6  165.76
 11.2456  28022.2  167.1
 11.2876  27334.7  164.755
 11.3296  27292.1  164.522
 11.3716  27692.6  165.406
 11.4136  27686.5  166.316
 11.4556  28219.8  167.556
 11.4976  28419.9  167.091
 11.5396  27799.4  165.433
 11.5816  26945.8  163.334
 11.6236  26643.8  162.642
 11.6656  26616.8  161.699
 11.7076  26128.7  161.06
 11.7496  25985.3  164.578
 11.7916  26191.4  160.504
 11.8336  25750.1  160.034
 11.8756  25463.6  158.672
 11.9176  25579.7  158.694
 11.9596  25141.6  157.517
 12.0016  25089.7  158.154
 12.0436  25078.8  157.535
 12.0856  24882  157.449
 12.1276  24907.9  157.442
 12.1696  24805.8  156.248
 12.2116  25179.9  157.423
 12.2536  25063.4  157.9
 12.2956  24923.4  156.784
 12.3376  24703.2  156.301
 12.3796  24682.1  156.691
 12.4216  24873.7  156.513
 12.4636  24837.6  157.327
 12.5056  24639.5  155.962
 12.5476  24953.1  156.476
 12.5896  24703.2  156.328
 12.6316  24459.5  155.719
 12.6736  24413.3  156.063
 12.7156  24395  155.862
 12.7576  24475  156.356
 12.7996  24740.5  155.834
 12.8416  24349  155.655
 12.8836  25082.2  157.808
 12.9256  25143.5  156.997
 12.9676  25271.4  157.83
 13.0096  25013.4  158.13
 13.0516  25069.1  157.341
 13.0936  25042.1  157.658
 13.1356  25545.8  158.2
 13.1776  25037.6  157.625
 13.2196  25133.1  157.575
 13.2616  24939.6  157.277
 13.3036  25084.1  157.703
 13.3456  24976  157.72
 13.3876  24915.2  156.814
 13.4296  24988.2  157.197
 13.4716  25154.4  157.322
 13.5136  24995.3  156.978
 13.5556  25138.9  158.045
 13.5976  24937.2  157.569
 13.6396  25275.2  157.993
 13.6816  25050.5  157.781
 13.7236  25749.6  159.602
 13.7656  24854.2  157.344
 13.8076  25176  157.127
 13.8496  24727.5  156.326
 13.8916  24811.7  157.608
 13.9336  24704.2  156.48
 13.9756  24242.3  154.356
 14.0176  24603.2  156.196
 14.0596  24711.1  156.505
 14.1016  24352.2  155.761
 14.1436  24043.1  153.898
 14.1856  23849.7  153.573
 14.2276  23459.6  152.795
 14.2696  23757.6  153.609
 14.3116  23516.4  152.723
 14.3536  22934.3  151.002
 14.3956  22897.1  150.609
 14.4376  23102.9  151.058
 14.4796  22989.8  150.68
 14.5216  22830  150.96
 14.5636  22483  149.37
 14.6056  22749.3  149.823
 14.6476  22644.2  148.705
 14.6896  22271.9  148.021
 14.7316  21870.4  147.711
 14.7736  21937.9  147.087
 14.8156  21694.9  146.301
 14.8576  21574.5  145.739
 14.8996  21228.7  145.787
 14.9416  20724.1  144.039
 14.9836  20980.7  144.882
 15.0256  20713.4  142.885
 15.0676  20726  143.249
 15.1096  20539.6  142.337
 15.1516  20258.2  141.925
 15.1936  20216.7  141.197
 15.2356  19988.4  140.68
 15.2776  19891.8  139.922
 15.3196  19457  139.393
 15.3616  19555.9  139.491
 15.4036  19387.9  138.754
 15.4456  19658.1  139.363
 15.4876  19243.5  137.562
 15.5296  19165  137.579
 15.5716  18953.5  136.404
 15.6136  18971.8  136.808
 15.6556  19010.3  136.172
 15.6976  18664.6  135.231
 15.7396  18597.4  135.368
 15.7816  18537.2  134.657
 15.8236  18210.7  134.169
 15.8656  18206.1  133.948
 15.9076  18139.8  133.525
 15.9496  17919.8  135.517
 15.9916  17887.8  135.839
 16.0336  17628  131.725
 16.0756  17657  132.142
 16.1176  17605.2  132.017
 16.1596  17407.9  132.468
 16.2016  17425.3  131.266
 16.2436  17382.3  131.494
 16.2856  17299.7  130.722
 16.3276  16854.9  129.449
 16.3696  17174.8  130.487
 16.4116  16876  129.813
 16.4536  17235  130.963
 16.4956  17062.8  130.049
 16.5376  16926.5  129.71
 16.5796  16850.8  128.774
 16.6216  16827.2  128.994
 16.6636  16801.4  129.046
 16.7056  16783.8  128.85
 16.7476  16820  128.507
 16.7896  16814.8  129.247
 16.8316  16873.9  129.44
 16.8736  16738.4  129.184
 16.9156  16756  129.588
 16.9576  16619.1  129.883
 16.9996  16554.5  130.116
 17.0416  16482  128.184
 17.0836  16428.2  127.728
 17.1256  16234.3  126.99
 17.1676  16259.9  127.083
 17.2096  16154.2  126.542
 17.2516  16188.3  126.457
 17.2936  15968.6  125.923
 17.3356  15551.7  124.274
 17.3776  15788.5  125.406
 17.4196  15865  125.404
 17.4616  15811.4  125.104
 17.5036  15680.1  124.955
 17.5456  15359.9  124.317
 17.5876  15436.8  123.666
 17.6296  15612.2  124.179
 17.6716  15366.7  123.783
 17.7136  15247  123.437
 17.7556  15364.6  124.211
 17.7976  15311  123.734
 17.8396  15130.8  122.497
 17.8816  15142.2  123.075
 17.9236  14995.6  122.304
 17.9656  15273.3  123.972
 18.0076  15254.8  123.46
 18.0496  15449.2  123.366
 18.0916  16394.2  127.63
 18.1336  15754.1  125.234
 18.1756  15651.5  124.338
 18.2176  15343.9  123.343
 18.2596  15068.6  121.972
 18.3016  15286.4  123.103
 18.3436  15423.2  123.665
 18.3856  14975.2  121.984
 18.4276  14974.7  121.659
 18.4696  14941.5  121.614
 18.5116  15005  122.169
 18.5536  15111.7  122.962
 18.5956  14814.5  121.297
 18.6376  14795.6  121.637
 18.6796  14654.1  120.364
 18.7216  14880.4  121.79
 18.7636  14654.3  120.845
 18.8056  14524.2  120.252
 18.8476  14575.9  121.094
 18.8896  14481.6  120.035
 18.9316  14596.7  120.492
 18.9736  14441.5  119.545
 19.0156  14618.9  120.689
 19.0576  14560.4  119.3
 19.0996  14692.5  120.564
 19.1416  14375.7  119.649
 19.1836  14341.3  119.107
 19.2256  14250.5  118.945
 19.2676  14409.2  119.7
 19.3096  14497  120.312
 19.3516  14362.9  119.707
 19.3936  14384.9  119.705
 19.4356  14362.7  119.472
 19.4776  14353.7  119.54
 19.5196  14413  119.638
 19.5616  14363.6  119.688
 19.6036  14486.6  119.688
 19.6456  14440.9  119.62
 19.6876  14605.8  119.944
 19.7296  14352.6  119.359
 19.7716  14415.4  119.789
 19.8136  14676.3  121.076
 19.8556  15050.7  122.075
 19.8976  14998  121.928
 19.9396  15065.3  121.764
 19.9816  15089.9  122.113
 20.0236  14780.9  121.077
 20.0656  14555.3  120.145
 20.1076  14175.1  119.029
 20.1496  14077  118.615
 20.1916  14166.3  118.51
 20.2336  14104.1  118.186
 20.2756  13832.5  117.469
 20.3176  13792.2  117.044
 20.3596  13897  117.464
 20.4016  13859.1  117.107
 20.4436  13943.5  118.023
 20.4856  13628.2  116.48
 20.5276  13627.8  116.927
 20.5696  13720.8  116.785
 20.6116  13555  116.357
 20.6536  13639.1  116.227
 20.6956  13551.6  115.973
 20.7376  13558  116.233
 20.7796  13442.1  115.42
 20.8216  13671.3  116.104
 20.8636  13526.8  115.862
 20.9056  13801.7  116.982
 20.9476  13466.2  115.392
 20.9896  13702.8  116.264
 21.0316  13642.5  115.903
 21.0736  13593  116.215
 21.1156  13473.4  115.873
 21.1576  13511.1  116.075
 21.1996  13375.3  115.476
 21.2416  13176.2  114.441
 21.2836  13527.5  115.919
 21.3256  13199.5  114.592
 21.3676  13563  115.7
 21.4096  13251.1  114.672
 21.4516  13141.6  114.075
 21.4936  13094  114.127
 21.5356  13099.5  114.093
 21.5776  13344.5  114.987
 21.6196  13129.4  114.094
 21.6616  13056.9  113.863
 21.7036  13172.7  114.145
 21.7456  13263.8  114.617
 21.7876  13071.3  113.527
 21.8296  13008.1  113.108
 21.8716  12892.2  112.838
 21.9136  13168.5  114.24
 21.9556  13072.5  113.496
 21.9976  13057.4  113.447
 22.0396  13010.9  113.502
 22.0816  13010.7  114.042
 22.1236  13079.3  113.784
 22.1656  13117.6  114.081
 22.2076  13152  113.699
 22.2496  13063.3  113.348
 22.2916  13026.9  113.061
 22.3336  12966.7  113.542
 22.3756  13011.5  113.452
 22.4176  12816.2  112.453
 22.4596  12890.2  113.368
 22.5016  13103.6  113.79
 22.5436  12955.4  113.021
 22.5856  13026.6  113.586
 22.6276  12998.6  113.61
 22.6696  12906.7  113.547
 22.7116  12870.2  112.904
 22.7536  12892.1  112.975
 22.7956  12966.3  112.627
 22.8376  12797.5  112.409
 22.8796  12829  112.349
 22.9216  13155.5  114.324
 22.9636  12906.8  112.385
 23.0056  13053.2  113.153
 23.0476  13045.3  113.703
 23.0896  13215.1  113.806
 23.1316  13190.5  114.144
 23.1736  12854.6  115.672
 23.2156  12887  113.142
 23.2576  12925.4  113.443
 23.2996  12907.7  113.149
 23.3416  12615.8  112.39
 23.3836  12878.3  112.768
 23.4256  12955.7  113.23
 23.4676  12746.7  112.009
 23.5096  12734.9  112.635
 23.5516  12743.9  111.957
 23.5936  12856  113.342
 23.6356  13032.3  113.78
 23.6776  12842.4  113.172
 23.7196  12685.4  112.055
 23.7616  12914.4  112.977
 23.8036  12820.2  112.597
 23.8456  12666.3  111.496
 23.8876  12453.5  110.908
 23.9296  12620.3  112.148
 23.9716  12555  111.04
 24.0136  12634  112.305
 24.0556  12343.6  110.731
 24.0976  12418.8  110.874
 24.1396  12423.5  113.588
 24.1816  12387.6  111.829
 24.2236  12172.7  110.471
 24.2656  12220.1  110.156
 24.3076  12173.9  110.199
 24.3496  12322.9  110.763
 24.3916  12156.6  110.064
 24.4336  12157.1  110.274
 24.4756  12066.8  109.731
 24.5176  12043.3  109.271
 24.5596  11792  108.252
 24.6016  11873.4  108.913
 24.6436  11861.3  108.338
 24.6856  11899.7  108.281
 24.7276  11857.1  108.405
 24.7696  11846.8  108.473
 24.8116  11763.4  108.279
 24.8536  11707.5  108.002
 24.8956  11702.6  107.725
 24.9376  11645.6  107.4
 24.9796  11416.6  106.693
 25.0216  11395.3  106.696
 25.0636  11537.8  107.02
 25.1056  11324.2  106.731
 25.1476  11573.4  109.574
 25.1896  11622.7  108.266
 25.2316  11514.9  107.021
 25.2736  11492.2  106.571
 25.3156  11513  106.74
 25.3576  11295.5  106.153
 25.3996  11357.3  106.418
 25.4416  11526.4  107.196
 25.4836  11155.7  105.981
 25.5256  11458.2  106.763
 25.5676  11453.6  106.473
 25.6096  11139.9  105.577
 25.6516  11257.5  105.624
 25.6936  11137.6  105.379
 25.7356  11289.9  106.232
 25.7776  11272.3  105.747
 25.8196  11057.1  104.968
 25.8616  11228.5  105.697
 25.9036  11255.2  105.294
 25.9456  11171.3  105.505
 25.9876  11118.1  105.315
 26.0296  11345.1  105.894
 26.0716  11151.7  105.408
 26.1136  11294  106.021
 26.1556  11298  105.406
 26.1976  11045.5  105.155
 26.2396  11234.5  105.186
 26.2816  11096.1  105.163
 26.3236  11217.7  105.898
 26.3656  11101.9  105.073
 26.4076  11102.6  105.291
 26.4496  11731  107.703
 26.4916  11198.1  105.225
 26.5336  11144.3  105.302
 26.5756  11786.5  108.1
 26.6176  11080.9  104.915
 26.6596  10890.5  104.318
 26.7016  10929  104.261
 26.7436  10783.1  103.69
 26.7856  10687.2  103.211
 26.8276  10744.7  103.45
 26.8696  10898.3  104.055
 26.9116  10784.6  103.452
 26.9536  10861.6  103.869
 26.9956  10821.2  103.709
 27.0376  10691.6  103.3
 27.0796  10766.1  103.39
 27.1216  10632.5  102.822
 27.1636  10588  102.771
 27.2056  10660.8  103.007
 27.2476  10731.2  103.345
 27.2896  10742.8  103.516
 27.3316  10583.7  102.458
 27.3736  10585.1  102.733
 27.4156  10537.9  102.34
 27.4576  10509.1  102.438
 27.4996  10560.7  102.281
 27.5416  10623.5  102.905
 27.5836  10500.5  102.12
 27.6256  10934  104.371
 27.6676  10742.6  103.481
 27.7096  10497.1  102.158
 27.7516  10557.6  102.603
 27.7936  10472.7  102.363
 27.8356  10647.8  102.831
 27.8776  10493.5  102.128
 27.9196  10351.5  101.283
 27.9616  10527.3  102.331
 28.0036  10459.6  101.975
 28.0456  10402.1  101.823
 28.0876  10243.2  101.14
 28.1296  10220.9  100.87
 28.1716  10232.1  100.932
 28.2136  10314.9  101.304
 28.2556  10079.7  100.255
 28.2976  10209.2  100.889
 28.3396  10360.5  101.385
 28.3816  10151.7  100.387
 28.4236  10220  100.879
 28.4656  10180.8  100.719
 28.5076  10106.2  99.9845
 28.5496  10189.8  100.66
 28.5916  10322.3  101.121
 28.6336  10156.4  100.646
 28.6756  10278.2  100.44
 28.7176  10102.8  100.13
 28.7596  10014.1  99.5866
 28.8016  10107.7  100.09
 28.8436  9887.62  99.2328
 28.8856  10040.1  99.8465
 28.9276  10014.6  99.9614
 28.9696  9989.25  99.4946
 29.0116  9961.48  99.54
 29.0536  9800.58  98.935
 29.0956  9945.6  99.3792
 29.1376  9845.06  98.8406
 29.1796  9901.51  99.1688
 29.2216  9875.21  98.8802
 29.2636  9986.2  99.5154
 29.3056  9858.76  98.662
 29.3476  9944.69  99.6207
 29.3896  9921.05  99.5938
 29.4316  10080.3  99.7227
 29.4736  9920.43  98.9878
 29.5156  10092.9  99.7665
 29.5576  9971.87  99.9257
 29.5996  9910.98  98.8636
 29.6416  9838.98  98.6259
 29.6836  9964.06  99.1742
 29.7256  9878.24  99.3208
 29.7676  9874.45  98.9487
 29.8096  9730.92  98.1784
 29.8516  9796.67  98.8384
 29.8936  9835.61  99.1373
 29.9356  9831.23  98.864
 29.9776  9653.31  98.1229
 30.0196  9722.4  97.8612
 30.0616  9844.54  98.8462
 30.1036  9758.53  98.2446
 30.1456  9721.28  98.2832
 30.1876  9813.41  98.7271
 30.2296  9694.53  98.073
 30.2716  9829.06  98.3874
 30.3136  9710.87  98.6604
 30.3556  9639.47  98.3086
 30.3976  9577.96  99.517
 30.4396  9705.68  97.4942
 30.4816  9811.94  97.6179
 30.5236  9702.35  97.0932
 30.5656  9645.75  97.4606
 30.6076  9766.31  97.4913
 30.6496  9722.18  97.6601
 30.6916  9626.01  97.268
 30.7336  9593.06  97.2569
 30.7756  9638.63  97.5805
 30.8176  9437.5  96.4718
 30.8596  9539.38  96.7596
 30.9016  9650.06  97.6653
 30.9436  9495.03  96.6306
 30.9856  9661.99  97.586
 31.0276  9517.78  96.4651
 31.0696  9487.46  96.8826
 31.1116  9567.22  97.2684
 31.1536  9536.67  96.9905
 31.1956  9404.77  96.41
 31.2376  9297.45  95.8646
 31.2796  9578.83  96.8353
 31.3216  9527.92  96.5195
 31.3636  9478.65  96.978
 31.4056  9588.61  98.8759
 31.4476  9489.69  96.2364
 31.4896  9476.68  96.6806
 31.5316  9516.79  96.2796
 31.5736  9729.6  97.1648
 31.6156  9481.06  95.9357
 31.6576  9473.23  95.9949
 31.6996  9477.65  95.6729
 31.7416  9393.66  96.3308
 31.7836  9448.44  95.6141
 31.8256  9312.15  95.1939
 31.8676  9403.52  95.6584
 31.9096  9273.03  95.347
 31.9516  9230.68  95.2872
 31.9936  9328.51  95.6203
 32.0356  9311.75  95.601
 32.0776  9291.12  95.3782
 32.1196  9405.95  96.0588
 32.1616  9349.12  95.221
 32.2036  9287.05  95.4094
 32.2456  9336.03  96.055
 32.2876  9359.95  95.6664
 32.3296  9098.5  94.2848
 32.3716  9187.33  94.8461
 32.4136  9290.34  95.5888
 32.4556  9420.47  95.6238
 32.4976  9279.64  94.8075
 32.5396  9201.86  94.4912
 32.5816  9051.52  93.8335
 32.6236  9208.15  94.718
 32.6656  9306.2  95.7649
 32.7076  9091.36  94.3041
 32.7496  9203.77  94.5532
 32.7916  9216.13  94.5707
 32.8336  9274.49  94.9735
 32.8756  9264.62  94.6345
 32.9176  9071.88  94.1309
 32.9596  9196.93  94.8504
 33.0016  9159.58  94.4587
 33.0436  9312.26  95.4103
 33.0856  9042.11  94.095
 33.1276  9124.52  94.2556
 33.1696  9277.1  94.8784
 33.2116  9360.9  95.5364
 33.2536  9142.99  94.4165
 33.2956  9113.41  94.3475
 33.3376  9049.31  93.75
 33.3796  9084.07  94.1398
 33.4216  9087.7  93.7505
 33.4636  9142.02  94.1827
 33.5056  8984.29  93.609
 33.5476  8966.3  93.5069
 33.5896  9022.9  93.5756
 33.6316  8921.13  93.3554
 33.6736  8874.26  93.3501
 33.7156  8916.22  93.6226
 33.7576  9021.36  93.7947
 33.7996  9165.23  94.3046
 33.8416  8824.53  92.7188
 33.8836  8968.75  93.2494
 33.9256  9019.91  93.5813
 33.9676  9056.91  93.667
 34.0096  8745.83  92.3589
 34.0516  8808.14  92.3247
 34.0936  8914.63  93.1447
 34.1356  8938.89  93.0002
 34.1776  8833.71  92.4738
 34.2196  8827.6  92.6253
 34.2616  8835.1  92.7969
 34.3036  8790.07  92.8126
 34.3456  8813.65  92.6909
 34.3876  8842.13  92.8058
 34.4296  8882.48  92.6926
 34.4716  8871.57  92.7939
 34.5136  8829.99  92.7814
 34.5556  8760.69  92.6742
 34.5976  8853.84  92.9656
 34.6396  8800.15  92.392
 34.6816  8796.16  92.4883
 34.7236  8772.87  92.1469
 34.7656  8831.94  92.6549
 34.8076  8817.5  92.9055
 34.8496  8789.75  92.6123
 34.8916  8848.86  92.7994
 34.9336  8893.57  92.9948
 34.9756  8846.17  92.652
 35.0176  8838.91  93.1678
 35.0596  8692.51  92.2087
 35.1016  8734.92  92.2052
 35.1436  8624.02  91.3025
 35.1856  8609.67  91.352
 35.2276  8612.56  91.5434
 35.2696  8587.66  91.6033
 35.3116  8709.81  92.3442
 35.3536  8640.53  91.6902
 35.3956  8648.43  91.4329
 35.4376  8665.58  92.0888
 35.4796  8722.18  92.4513
 35.5216  8607.41  91.7904
 35.5636  8429.51  91.5876
 35.6056  8728.41  92.1995
 35.6476  8696.29  91.9248
 35.6896  8712.85  92.1075
 35.7316  8523.62  91.0565
 35.7736  8490.65  91.0915
 35.8156  8495.76  91.1144
 35.8576  8553.62  91.6839
 35.8996  8563.01  91.6947
 35.9416  8515.05  90.9421
 35.9836  8564.87  91.559
 36.0256  8545.6  91.4719
 36.0676  8644.81  91.7667
 36.1096  8475.29  90.9964
 36.1516  8624.7  91.6806
 36.1936  8464.34  90.6758
 36.2356  8449.84  91.2371
 36.2776  8613.5  91.5906
 36.3196  8497.28  90.6359
 36.3616  8581.03  91.2149
 36.4036  8572.87  91.2287
 36.4456  8518.28  91.1471
 36.4876  8385.08  90.3697
 36.5296  8568.37  91.4007
 36.5716  8592.33  92.3201
 36.6136  8582.42  91.0256
 36.6556  8638.86  91.5257
 36.6976  8468  91.1221
 36.7396  8476.18  90.8994
 36.7816  8547.84  91.657
 36.8236  8533.54  91.4991
 36.8656  8425.49  90.9902
 36.9076  8425.62  90.8752
 36.9496  8439.98  90.9301
 36.9916  8489.12  90.8245
 37.0336  8516.94  91.2877
 37.0756  8592.12  91.4835
 37.1176  8355.41  90.4864
 37.1596  8475.16  91.113
 37.2016  8392.69  90.9233
 37.2436  8471.41  90.6516
 37.2856  8330.18  90.1573
 37.3276  8396.49  89.854
 37.3696  8330.65  90.3964
 37.4116  8473.42  91.0659
 37.4536  8379.36  90.4295
 37.4956  8271.7  89.8834
 37.5376  8333.64  91.7898
 37.5796  8190.19  90.9658
 37.6216  8257.97  89.5861
 37.6636  8274.55  89.5693
 37.7056  8251.49  89.6375
 37.7476  8226.46  89.0346
 37.7896  8196.68  89.3816
 37.8316  8056.72  88.7842
 37.8736  8382.19  90.0745
 37.9156  8229.02  89.2499
 37.9576  8228.68  89.1408
 37.9996  8278.42  89.1034
 38.0416  8099.89  88.9663
 38.0836  8326.05  90.1061
 38.1256  8269.55  89.757
 38.1676  8024.39  88.5512
 38.2096  8258.41  89.4488
 38.2516  8379.72  90.3109
 38.2936  8165.02  88.9521
 38.3356  8251.37  89.3348
 38.3776  8147.87  89.0478
 38.4196  8347.49  89.9792
 38.4616  8181.5  89.3118
 38.5036  8279.99  89.6901
 38.5456  8194.41  90.0811
 38.5876  8132.73  89.7778
 38.6296  7898.11  87.459
 38.6716  8078.09  88.2434
 38.7136  7959.43  87.5356
 38.7556  7957.7  88.0274
 38.7976  8050.04  88.4791
 38.8396  7974.11  88.5133
 38.8816  8001.3  88.4345
 38.9236  8039.37  88.4636
 38.9656  8112.27  88.7748
 39.0076  8080.79  88.0062
 39.0496  8121.53  88.7693
 39.0916  8086.02  88.2191
 39.1336  8045.89  88.4215
 39.1756  8196.7  89.314
 39.2176  8073.66  89.1795
 39.2596  7933.22  88.3198
 39.3016  8053.2  88.5546
 39.3436  7933.99  88.3209
 39.3856  8120.84  88.7983
 39.4276  8114.45  89.2549
 39.4696  8108.14  88.8459
 39.5116  7940.02  88.4321
 39.5536  8074.91  89.6125
 39.5956  8148.3  89.1093
 39.6376  8161.79  89.1783
 39.6796  8117.05  88.6811
 39.7216  8174.83  89.0865
 39.7636  8034.09  88.8889
 39.8056  8109.79  89.0836
 39.8476  8119.29  89.391
 39.8896  8092.82  88.8737
 39.9316  7983.63  88.5328
 39.9736  8162.29  89.0759
 40.0156  8073.78  88.417
 40.0576  8062.83  88.7197
 40.0996  8188.12  88.5707
 40.1416  8106.24  88.9378
 40.1836  8106.62  88.827
 40.2256  8148.28  89.1015
 40.2676  8148.83  89.2081
 40.3096  8124.96  89.0038
 40.3516  8196.56  89.4997
 40.3936  8105.64  88.5623
 40.4356  8108.76  88.7796
 40.4776  8217.73  89.7921
 40.5196  8282.28  90.2699
 40.5616  8185.41  89.381
 40.6036  7956.67  88.3767
 40.6456  8159.78  89.0974
 40.6876  8171.76  89.15
 40.7296  8159.27  89.2248
 40.7716  8184.25  89.4901
 40.8136  8089.85  88.9188
 40.8556  8061.78  88.8955
 40.8976  8145.51  89.2759
 40.9396  7989.5  88.7685
 40.9816  8201.63  89.2151
 41.0236  8189.84  88.9231
 41.0656  8193.49  89.4908
 41.1076  8204.02  89.3202
 41.1496  8190.07  89.1514
 41.1916  8146.11  89.2422
 41.2336  8084.55  88.8894
 41.2756  8014.35  88.1088
 41.3176  8125.87  89.3396
 41.3596  8121.82  89.0459
 41.4016  8082.85  89.0873
 41.4436  8093.46  88.9325
 41.4856  8175.04  89.5501
 41.5276  8050.52  88.8837
 41.5696  8161.8  89.1239
 41.6116  8106.62  89.2183
 41.6536  8103.08  89.0558
 41.6956  8068.5  88.9229
 41.7376  8070.78  88.9622
 41.7796  8045.42  88.698
 41.8216  8025.34  88.8288
 41.8636  8013.37  88.7031
 41.9056  8015.48  88.4977
 41.9476  8134.02  89.3938
 41.9896  8107.34  88.9008
 42.0316  7975.58  88.265
 42.0736  8027.08  88.6609
 42.1156  8032.87  88.5272
 42.1576  8145.08  89.2467
 42.1996  8115.63  89.23
 42.2416  8145.25  88.9651
 42.2836  8023.92  88.4088
 42.3256  7969.72  88.2322
 42.3676  8010.84  88.2585
 42.4096  8176.38  89.1324
 42.4516  8053.96  88.5471
 42.4936  7975.41  88.1877
 42.5356  8039  88.6689
 42.5776  8143.01  89.1767
 42.6196  8059.26  88.7784
 42.6616  7998.37  88.6161
 42.7036  8042.9  88.2375
 42.7456  7976.94  88.2321
 42.7876  7937.3  88.1165
 42.8296  7930.59  87.9042
 42.8716  7950.57  88.1825
 42.9136  7971.85  88.0875
 42.9556  7871.36  87.6635
 42.9976  7982.4  88.2448
 43.0396  8059.01  88.3898
 43.0816  7909.05  87.9477
 43.1236  7918.83  88.0584
 43.1656  7898.64  87.7757
 43.2076  7913.22  87.963
 43.2496  7795.12  87.1092
 43.2916  7881.38  87.9672
 43.3336  7851.68  87.634
 43.3756  7896.05  87.6413
 43.4176  7842.63  87.4224
 43.4596  7788.81  86.9753
 43.5016  7980.17  88.4515
 43.5436  7834.09  87.5368
 43.5856  7783.88  87.2751
 43.6276  7872.54  87.6732
 43.6696  7749.34  87.2393
 43.7116  7906.56  87.6139
 43.7536  7905.49  88.1044
 43.7956  7852.36  89.0011
 43.8376  7796.58  87.2298
 43.8796  7774.15  87.1815
 43.9216  7861.17  87.5827
 43.9636  7829.82  87.5122
 44.0056  7653.46  86.7545
 44.0476  7711.59  86.7132
 44.0896  7682.51  86.8971
 44.1316  7905.1  87.663
 44.1736  7689.02  86.5822
 44.2156  7714.06  86.5818
 44.2576  7668.03  86.6449
 44.2996  7723.58  86.9305
 44.3416  7740.35  86.7661
 44.3836  7671.44  86.7237
 44.4256  7637.46  86.1694
 44.4676  7647  86.3846
 44.5096  7635.54  86.4656
 44.5516  7675.97  86.6611
 44.5936  7528.05  85.7721
 44.6356  7661.36  86.2603
 44.6776  7720.81  86.9237
 44.7196  7571.54  86.3813
 44.7616  7571.24  87.7138
 44.8036  7543.91  85.9655
 44.8456  7618.35  86.6011
 44.8876  7606.84  86.3802
 44.9296  7718.36  86.452
 44.9716  7632.85  86.4043
 45.0136  7684.41  86.6371
 45.0556  7550.51  85.8547
 45.0976  7641.27  86.532
 45.1396  7455.68  85.2433
 45.1816  7462.23  85.2024
 45.2236  7638.32  86.1083
 45.2656  7500.63  85.8288
 45.3076  7491.93  85.5659
 45.3496  7534.99  86.1148
 45.3916  7376.78  85.47
 45.4336  7450.73  85.7488
 45.4756  7459.85  85.6549
 45.5176  7586.28  85.9895
 45.5596  7610.15  86.2463
 45.6016  7360.6  85.2367
 45.6436  7485.78  85.1288
 45.6856  7342.87  84.9741
 45.7276  7349.65  86.3353
 45.7696  7462.76  86.6512
 45.8116  7519.28  86.4261
 45.8536  7454.34  85.9491
 45.8956  7504.59  85.5849
 45.9376  7462.91  84.8104
 45.9796  7492.44  85.661
 46.0216  7509.35  86.1031
 46.0636  7562.5  85.5489
 46.1056  7576.07  85.6115
 46.1476  7549.42  86.0582
 46.1896  7555.23  86.2384
 46.2316  7376.65  85.0785
 46.2736  7370.38  85.4192
 46.3156  7415.93  85.268
 46.3576  7453.49  85.6879
 46.3996  7391.95  85.4945
 46.4416  7583.25  86.1605
 46.4836  7374.1  85.3201
 46.5256  7375.86  85.2721
 46.5676  7276.05  84.8066
 46.6096  7388.96  85.3926
 46.6516  7506.3  85.1081
 46.6936  7426.15  85.1406
 46.7356  7501.39  85.6812
 46.7776  7357.4  85.6919
 46.8196  7368.85  85.3566
 46.8616  7216.22  84.4068
 46.9036  7128.72  83.5591
 46.9456  7301.23  84.2052
 46.9876  7324.34  84.4213
 47.0296  7223.03  84.5195
 47.0716  7284.19  84.7
 47.1136  7318.91  84.5788
 47.1556  7265.97  84.1392
 47.1976  7392.32  84.9511
 47.2396  7168.83  84.0506
 47.2816  7201.51  83.9442
 47.3236  7252.61  84.6032
 47.3656  7306.41  84.8617
 47.4076  7279.75  84.4954
 47.4496  7195.51  84.1044
 47.4916  7145.1  84.0031
 47.5336  7223.6  84.2748
 47.5756  7268.06  84.6431
 47.6176  7227.32  84.3062
 47.6596  7151.33  83.5874
 47.7016  7309.31  84.3149
 47.7436  7342.74  84.8518
 47.7856  7240.52  84.282
 47.8276  7137.88  83.7295
 47.8696  7141.13  83.8412
 47.9116  7343.11  84.7224
 47.9536  7213.28  83.9138
 47.9956  7104.29  83.9844
 48.0376  7145.92  84.0074
 48.0796  7218.05  84.5525
 48.1216  7321.73  84.9768
 48.1636  7369.72  84.8256
 48.2056  7278.03  84.5629
 48.2476  7170.56  84.246
 48.2896  7258.35  84.661
 48.3316  7179.78  84.1407
 48.3736  7113.89  83.7862
 48.4156  7073.46  83.3995
 48.4576  7088.46  83.7792
 48.4996  7187.53  83.8218
 48.5416  7229.35  84.3897
 48.5836  7148.13  83.591
 48.6256  7155.57  83.8423
 48.6676  7145.83  84.2953
 48.7096  7093.36  83.2588
 48.7516  7100.86  83.4519
 48.7936  6930.83  82.5075
 48.8356  7043.31  83.2254
 48.8776  7046.49  83.8081
 48.9196  7274.33  84.5136
 48.9616  7107.54  83.926
 49.0036  7037.71  83.8526
 49.0456  7043.31  83.8729
 49.0876  7108.22  83.7943
 49.1296  7013.22  83.3988
 49.1716  6912.26  82.6707
 49.2136  7049.38  83.4131
 49.2556  7079.12  83.6156
 49.2976  7041.85  83.4659
 49.3396  6953.89  82.9934
 49.3816  7193.65  83.8412
 49.4236  7047.58  83.4093
 49.4656  6916.9  82.6465
 49.5076  7079.3  83.363
 49.5496  7010.7  83.0226
 49.5916  7021.69  83.0005
 49.6336  6970.28  82.9024
 49.6756  6978.62  83.1886
 49.7176  6949.58  82.9513
 49.7596  6940.04  82.6569
 49.8016  7082.16  83.4092
 49.8436  6953.31  82.9512
 49.8856  6848.72  82.3349
 49.9276  6876.9  82.6086
 49.9696  6989.28  83.256
 50.0116  6979.28  83.3335
 50.0536  6967.24  83.2087
 50.0956  6937.99  83.1034
 50.1376  6999.37  83.1596
 50.1796  6860.63  82.6086
 50.2216  6862.86  82.6206
 50.2636  6847.92  82.148
 50.3056  6867.16  82.4399
 50.3476  6827.51  82.2161
 50.3896  6929.27  82.8
 50.4316  6930.45  82.6426
 50.4736  6765.3  81.8665
 50.5156  6944.49  82.9378
 50.5576  6911.68  82.4991
 50.5996  6796.51  82.0891
 50.6416  6754.92  81.7661
 50.6836  6881.37  82.5864
 50.7256  6895.64  82.5858
 50.7676  6940.45  83.1918
 50.8096  6885.9  82.3974
 50.8516  6775.73  82.1478
 50.8936  6777.92  81.9347
 50.9356  6861.27  82.5527
 50.9776  6837.46  82.5519
 51.0196  6684.85  81.761
 51.0616  6759.58  81.5462
 51.1036  6741.45  81.7884
 51.1456  6812.94  82.1368
 51.1876  6912.71  82.0724
 51.2296  6775.31  81.8855
 51.2716  6716.82  81.2308
 51.3136  6735.96  81.8097
 51.3556  6725.38  81.3672
 51.3976  6723.45  81.5102
 51.4396  6664.38  81.4515
 51.4816  6621.65  81.0468
 51.5236  6713.34  81.6933
 51.5656  6782.52  81.7143
 51.6076  6760.29  81.6666
 51.6496  6718.83  81.5984
 51.6916  6651.93  81.5534
 51.7336  6835.13  82.7513
 51.7756  6682.88  81.5317
 51.8176  6692.53  81.6937
 51.8596  6725.86  81.9114
 51.9016  6878.2  82.4385
 51.9436  6548.65  81.8774
 51.9856  6526.16  82.1668
 52.0276  6605.74  81.1799
 52.0696  6696.45  81.7976
 52.1116  6667.07  81.7329
 52.1536  6586.2  81.125
 52.1956  6738.36  81.5211
 52.2376  6663.16  81.2388
 52.2796  6725.21  81.4298
 52.3216  6576.91  81.207
 52.3636  6672.73  81.3778
 52.4056  6627.52  80.9482
 52.4476  6543.35  80.808
 52.4896  6622.07  81.344
 52.5316  6551.43  80.9552
 52.5736  6637.8  81.2125
 52.6156  6573.62  81.1924
 52.6576  6636.91  81.023
 52.6996  6360.06  80.2754
 52.7416  6582.6  81.5155
 52.7836  6554.8  81.2254
 52.8256  6698.98  81.3356
 52.8676  6409.82  80.1399
 52.9096  6469.38  80.5908
 52.9516  6451.91  80.8576
 52.9936  6505.92  81.5821
 53.0356  6422.22  80.071
 53.0776  6489.6  80.7472
 53.1196  6436.24  80.5422
 53.1616  6445.87  80.6443
 53.2036  6470.27  80.7556
 53.2456  6405.26  80.4471
 53.2876  6386.26  80.041
 53.3296  6426.56  80.618
 53.3716  6356.55  79.925
 53.4136  6373.75  80.1708
 53.4556  6432.2  80.5783
 53.4976  6363.41  79.9973
 53.5396  6445.79  80.9084
 53.5816  6312.53  79.7002
 53.6236  6318.5  80.0811
 53.6656  6454.72  80.5628
 53.7076  6405.36  80.2194
 53.7496  6358.08  80.0395
 53.7916  6576.46  81.531
 53.8336  6445  80.6065
 53.8756  6228.93  79.7811
 53.9176  6458.67  80.5929
 53.9596  6409.73  81.0453
 54.0016  6409.79  80.3808
 54.0436  6351.09  80.2194
 54.0856  6487.26  80.501
 54.1276  6356.4  79.8883
 54.1696  6382.22  80.2224
 54.2116  6376.49  79.941
 54.2536  6454.57  80.2469
 54.2956  6418.56  80.0688
 54.3376  6393.12  80.3935
 54.3796  6444.02  80.6132
 54.4216  6459.65  80.7513
 54.4636  6434.16  80.5551
 54.5056  6419.68  80.2807
 54.5476  6264.33  79.6392
 54.5896  6416.09  80.4237
 54.6316  6447.76  80.4825
 54.6736  6391.65  80.2076
 54.7156  6377.04  80.1396
 54.7576  6297.91  79.6389
 54.7996  6413.82  80.5024
 54.8416  6375.66  80.3114
 54.8836  6295.35  79.9193
 54.9256  6251.32  79.3914
 54.9676  6342.83  79.8221
 55.0096  6328.39  79.7934
 55.0516  6244.07  79.4979
 55.0936  6379.75  79.9842
 55.1356  6290.07  79.4696
 55.1776  6285.45  79.7053
 55.2196  6363.04  79.9764
 55.2616  6271.86  79.6161
 55.3036  6211.69  79.3905
 55.3456  6393.17  80.6889
 55.3876  6318.4  79.9643
 55.4296  6412.03  80.5262
 55.4716  6366.73  80.2798
 55.5136  6367.19  80.0396
 55.5556  6290.4  79.6244
 55.5976  6338.45  79.9851
 55.6396  6271.74  79.5121
 55.6816  6271.15  79.3859
 55.7236  6387.68  80.1524
 55.7656  6389.24  79.9261
 55.8076  6351.91  79.6744
 55.8496  6308.05  79.722
 55.8916  6295.7  79.8529
 55.9336  6252.32  79.3917
 55.9756  6325.6  79.7421
 56.0176  6298.93  79.7286
 56.0596  6277.11  79.5742
 56.1016  6323.54  79.876
 56.1436  6166.69  79.1375
 56.1856  6289.34  79.6633
 56.2276  6315.83  79.8887
 56.2696  6282.53  79.653
 56.3116  6224.67  79.6827
 56.3536  6273  79.653
 56.3956  6270.91  79.6303
 56.4376  6313.55  79.9203
 56.4796  6375.6  80.1235
 56.5216  6311.04  80.0926
 56.5636  6309.84  79.6753
 56.6056  6293.59  79.8053
 56.6476  6257.28  79.2035
 56.6896  6240.18  79.5419
 56.7316  6243.64  79.4671
 56.7736  6330.39  80.0201
 56.8156  6274.78  79.6712
 56.8576  6295.22  79.7381
 56.8996  6276.02  79.5518
 56.9416  6262.2  79.766
 56.9836  6174.84  78.7245
 57.0256  6227.33  79.3729
 57.0676  6212.77  79.405
 57.1096  6232.48  79.3225
 57.1516  6311.31  79.8861
 57.1936  6227.02  79.0954
 57.2356  6255.9  79.6032
 57.2776  6225.69  79.371
 57.3196  6232.11  79.7799
 57.3616  6232.57  79.2717
 57.4036  6299.99  79.7609
 57.4456  6228.43  79.2743
 57.4876  6327.75  79.7657
 57.5296  6162.74  79.0499
 57.5716  6240.1  79.5377
 57.6136  6274.7  79.5737
 57.6556  6271.21  79.692
 57.6976  6331.09  79.8858
 57.7396  6180.06  79.313
 57.7816  6154.03  79.5001
 57.8236  6081.68  78.8247
 57.8656  6214.03  79.3361
 57.9076  6227.65  79.4488
 57.9496  6232.41  79.8379
 57.9916  6206.4  79.1787
 58.0336  6214.23  79.5054
 58.0756  6182.27  78.945
 58.1176  6244.17  79.3242
 58.1596  6197.91  79.6032
 58.2016  6346.94  79.7632
 58.2436  6324.01  80.0402
 58.2856  6232.37  79.3738
 58.3276  6113.23  78.9833
 58.3696  6234.98  79.5191
 58.4116  6216.58  79.2513
 58.4536  6330.34  79.8748
 58.4956  6185.34  79.132
 58.5376  6252.33  79.1261
 58.5796  6261.9  79.6126
 58.6216  6276.33  79.519
 58.6636  6287.32  79.8049
 58.7056  6193.66  79.0656
 58.7476  6271.25  80.0118
 58.7896  6244.93  79.484
 58.8316  6198.53  79.187
 58.8736  6319.05  79.9556
 58.9156  6241.64  79.5162
 58.9576  6301.89  80.2143
 58.9996  6456.4  80.4204
 59.0416  6318.74  79.9227
 59.0836  6243.11  79.3688
 59.1256  6171  79.6196
 59.1676  6127.29  79.6465
 59.2096  6357.23  80.4093
 59.2516  6398.92  80.2413
 59.2936  6473.43  81.0468
 59.3356  6235.85  79.4214
 59.3776  6128.31  78.9038
 59.4196  6255.95  79.6567
 59.4616  6235.51  79.3836
 59.5036  6135.97  78.7833
 59.5456  6320.86  79.6475
 59.5876  6318.68  79.8293
 59.6296  6185.83  79.0556
 59.6716  6365.3  80.2538
 59.7136  6092.56  78.5038
 59.7556  6366.7  80.3906
 59.7976  6188.83  78.9987
 59.8396  6329.84  79.7854
 59.8816  6313.49  80.2386
 59.9236  6218.15  79.2702
 59.9656  6230.99  79.6113
 60.0076  6194.52  78.7326
 60.0496  6309.33  79.9738
 60.0916  6506.16  80.6079
 60.1336  6315.8  80.5521
 60.1756  6251.9  81.3483
 60.1996  0.0000000E+00  0.0000000E+00