File: docs/examples/opeando_xrd/IS17_D/Data/IS17_D/17_Da_f00134.xye
# /beamlines/bl04/projects/cycle2025-II/20250340211-lsimonelli/DATA/IS17_D/17_Da_f00134.xye : mythproc.py merge -s 0.006 -l 0.5 -f /beamlines/bl04/inhouse/ff/FlatField/ff_20Nov2024rod8mm60s_17keV.raw -b True -c true -o xye /beamlines/bl04/projects/cycle2025-II/20250340211-lsimonelli/DATA/IS17_D/17_Da_00134.dat
# IsMon = [6750472, 6748823, 6750051]  IsPos = [-1.4999, -2.4884, -3.4988]
# Wave = 0.4962  CalPath /beamlines/bl04/projects/cycle2025-II/20250340211-lsimonelli/DATA/Align/Si_Pos1_25keV_f00001.cal
# Date = 2025-09-25_06:54:14 Dt = 4.8000  Bin = 0.0060  <imon> = 6749782 +/- 700 (Min/Max) 6748823 / 6750472
# icurr 249.2384  mocoIn 1.7006E-05  mocoOut 0.7975  i15 7.06599e+06  imon 6.74978e+06  i7 7.0000  iEMpd_timer 4.8000  iEMpd_1 3.2871E-08  iEMpd_2 7.9143E-08  iEMpd_3 1.7827E-08  iEMpd_4 4.7940E-08  iEMhp_timer 4.8000  iEMhp_1 4.8700E-06  iEMhp_2 -2.5750E-08  iEMhp_3 -2.5176E-08  iEMhp_4 -2.1035E-08
#      9776
 1.5856  40310.6  206.154
 1.6276  47749.4  220.52
 1.6696  53763.9  233.171
 1.7116  62138.8  251.165
 1.7536  71229.6  267.765
 1.7956  75752.8  276.826
 1.8376  72389.7  271.041
 1.8796  60594.4  246.15
 1.9216  48866.1  221.932
 1.9636  41370.3  203.366
 2.0056  37119.1  191.887
 2.0476  34527.5  187.096
 2.0896  33386.4  182.899
 2.1316  31998  178.195
 2.1736  30732.7  176.022
 2.2156  31094.9  175.635
 2.2576  29999.5  173.133
 2.2996  28729.7  170.05
 2.3416  29047.3  169.62
 2.3836  28480.5  168.063
 2.4256  27780.9  166.527
 2.4676  27369.7  165.056
 2.5096  27322.7  164.968
 2.5516  28183  171.44
 2.5936  51838.6  227.808
 2.6356  26763.4  164.381
 2.6776  25793.8  160.275
 2.7196  25450.2  159.715
 2.7616  25325.9  159.11
 2.8036  24770.6  157.526
 2.8456  24874.9  158.458
 2.8876  24368.8  156.724
 2.9296  24003.9  155.666
 2.9716  23728.9  154.269
 3.0136  23557.8  153.78
 3.0556  23591.2  154.282
 3.0976  23626.5  153.336
 3.1396  23426  153.401
 3.1816  23046.2  152.087
 3.2236  22829.1  151.367
 3.2656  23091.6  151.288
 3.3076  22629.7  151.184
 3.3496  23189.3  152.003
 3.3916  23673  153.402
 3.4336  23914.6  154.755
 3.4756  24135.6  155.39
 3.5176  24960.2  157.822
 3.5596  25024.6  160.423
 3.6016  25282.6  158.894
 3.6436  24444.6  157.328
 3.6856  24013.7  154.255
 3.7276  23138.1  152.493
 3.7696  22925.5  151.982
 3.8116  22548.8  150.616
 3.8536  22527.1  150.475
 3.8956  22685.9  150.832
 3.9376  22615.2  150.846
 3.9796  22514.2  150.025
 4.0216  22506.2  149.049
 4.0636  22359.2  150.012
 4.1056  22331.9  149.565
 4.1476  22477.8  150.357
 4.1896  22809.7  151.333
 4.2316  22918.1  151.52
 4.2736  23534.2  153.328
 4.3156  23601.1  153.779
 4.3576  24507  156.632
 4.3996  24738.5  157.622
 4.4416  25024.9  158.121
 4.4836  25704  160.407
 4.5256  26172.8  162.465
 4.5676  25978.6  162.116
 4.6096  26630.3  162.795
 4.6516  27046.7  163.78
 4.6936  27174  164.97
 4.7356  27388.9  165.455
 4.7776  27289.9  164.992
 4.8196  26886  164.399
 4.8616  26286.5  162.053
 4.9036  26158  161.399
 4.9456  26022.6  161.626
 4.9876  25513.7  159.94
 5.0296  25772.1  160.568
 5.0716  25759.1  161.301
 5.1136  25693  160.801
 5.1556  26189.4  161.819
 5.1976  28053.7  167.461
 5.2396  26808.2  163.412
 5.2816  26646.2  163.37
 5.3236  26666.2  163.144
 5.3656  26255.3  162.793
 5.4076  26051.6  162.31
 5.4496  26288.8  162.537
 5.4916  26360.3  162.515
 5.5336  26370.1  162.556
 5.5756  26093.9  161.726
 5.6176  26400.4  162.114
 5.6596  26472.4  163.294
 5.7016  26882.6  163.83
 5.7436  26881.2  164.096
 5.7856  26620  163.357
 5.8276  27223.1  164.919
 5.8696  27328.3  165.404
 5.9116  27386.6  166.188
 5.9536  27341.6  165.8
 5.9956  27972.6  167.068
 6.0376  27950  167.637
 6.0796  28087.9  167.886
 6.1216  28117.9  168.181
 6.1636  28460.3  168.259
 6.2056  28212.2  168.194
 6.2476  28316.2  168.372
 6.2896  28704.2  169.203
 6.3316  28598  169.059
 6.3736  28641.8  169.088
 6.4156  28679.6  169.091
 6.4576  28995.8  169.633
 6.4996  29113.2  170.456
 6.5416  29140  170.67
 6.5836  29335.9  171.475
 6.6256  29265.6  170.832
 6.6676  29832  172.045
 6.7096  29410.5  171.666
 6.7516  30202.5  173.623
 6.7936  30587.6  174.15
 6.8356  30955.9  175.275
 6.8776  30717  175.402
 6.9196  30586.1  175.424
 6.9616  31177.6  176.556
 7.0036  31414.4  176.88
 7.0456  31446  176.265
 7.0876  31292.7  177.514
 7.1296  31530.1  177.327
 7.1716  31433.2  176.589
 7.2136  31211.7  175.752
 7.2556  31493.8  176.707
 7.2976  31474.9  177.15
 7.3396  31458  177.315
 7.3816  31385.1  177.323
 7.4236  31513.3  176.978
 7.4656  31953.9  177.697
 7.5076  32348  178.925
 7.5496  32080  178.72
 7.5916  31984.8  178.487
 7.6336  32513.1  179.849
 7.6756  32777.6  180.43
 7.7176  33017.8  181.394
 7.7596  33115.4  182.921
 7.8016  34378.6  188.581
 7.8436  34067.1  184.398
 7.8856  34203.9  184.38
 7.9276  34792.6  186.35
 7.9696  34884.7  186.913
 8.0116  35820.7  187.931
 8.0536  36173.5  189.113
 8.0956  36597.4  191.411
 8.1376  36738.7  191.248
 8.1796  37065.6  192.644
 8.2216  37854.8  193.407
 8.2636  37933.3  193.856
 8.3056  37690.8  194.013
 8.3476  38736.3  196.002
 8.3896  38138.5  194.571
 8.4316  38290.4  195.121
 8.4736  38290  194.584
 8.5156  38272.7  194.818
 8.5576  37574  194.011
 8.5996  37895.1  193.696
 8.6416  37710.4  194.5
 8.6836  37733.8  194.382
 8.7256  38105.6  194.785
 8.7676  38364  198.384
 8.8096  38057.8  194.846
 8.8516  37537.1  193.126
 8.8936  37489.2  192.871
 8.9356  36824.7  191.506
 8.9776  37158.3  192.489
 9.0196  36667.6  190.88
 9.0616  36906.8  190.973
 9.1036  37214.1  192.96
 9.1456  36658.3  190.877
 9.1876  36252.2  189.766
 9.2296  36781.7  190.542
 9.2716  35997.6  188.565
 9.3136  36213.7  189.113
 9.3556  36516.2  189.885
 9.3976  34946.8  186.291
 9.4396  35173.8  186.79
 9.4816  34655.8  185.261
 9.5236  35104.3  186.373
 9.5656  34782.1  185.838
 9.6076  34263.8  184.987
 9.6496  34210.1  184.763
 9.6916  34509.8  185.546
 9.7336  34018.1  183.993
 9.7756  34598.7  186.837
 9.8176  33547.7  183.472
 9.8596  33370  181.427
 9.9016  32913.2  180.174
 9.9436  32794  179.76
 9.9856  32547.5  179.304
 10.0276  31764.1  178.244
 10.0696  32497.6  179.322
 10.1116  31279.4  176.191
 10.1536  31249.1  176.272
 10.1956  30725.5  174.392
 10.2376  30399.3  172.958
 10.2796  30430.4  173.18
 10.3216  30461.2  173.534
 10.3636  30384.9  173.352
 10.4056  31300.3  176.358
 10.4476  31091.9  175.379
 10.4896  32400.6  178.463
 10.5316  31073.1  175.494
 10.5736  29472.1  171.329
 10.6156  29294.2  170.573
 10.6576  31441.3  175.22
 10.6996  29067.9  169.153
 10.7416  28222.3  166.907
 10.7836  29130.9  170.277
 10.8256  28087.6  167.631
 10.8676  28388.3  168.059
 10.9096  28012.1  166.976
 10.9516  27602.2  164.672
 10.9936  28069.8  166.262
 11.0356  27669.5  165.719
 11.0776  28074  166.225
 11.1196  27773.8  166.088
 11.1616  27321.2  164.423
 11.2036  27355.6  164.377
 11.2456  28006.1  167.046
 11.2876  26938.6  163.55
 11.3296  27023.2  163.707
 11.3716  27434.3  164.635
 11.4136  27409.7  165.481
 11.4556  27777.7  166.245
 11.4976  28212.5  166.48
 11.5396  27501.2  164.54
 11.5816  26679  162.526
 11.6236  26262  161.461
 11.6656  26114.7  160.167
 11.7076  25689.3  159.695
 11.7496  25564.7  163.233
 11.7916  25651.6  158.842
 11.8336  25389.5  158.918
 11.8756  25362.2  158.362
 11.9176  25241.6  157.636
 11.9596  24637.8  155.925
 12.0016  24851.7  157.403
 12.0436  24840.7  156.786
 12.0856  24575.8  156.478
 12.1276  24406.5  155.846
 12.1696  24513.6  155.326
 12.2116  24967.7  156.759
 12.2536  25238.7  158.452
 12.2956  24663.6  155.967
 12.3376  24295.2  155.001
 12.3796  24362.2  155.666
 12.4216  24544.2  155.473
 12.4636  24407.3  155.957
 12.5056  24296.9  154.873
 12.5476  24607.9  155.391
 12.5896  24423.8  155.449
 12.6316  23992.1  154.219
 12.6736  24107.1  155.076
 12.7156  24038.3  154.712
 12.7576  24062.1  155.037
 12.7996  24497.5  155.067
 12.8416  24257.4  155.361
 12.8836  24915.2  157.284
 12.9256  24873.9  156.159
 12.9676  24820.2  156.417
 13.0096  24535.8  156.619
 13.0516  24505.9  155.562
 13.0936  24633.8  156.361
 13.1356  25034.1  156.606
 13.1776  24565  156.118
 13.2196  24623.2  155.965
 13.2616  24794.7  156.822
 13.3036  24705.3  156.507
 13.3456  24687.7  156.809
 13.3876  24533.1  155.603
 13.4296  24717.9  156.343
 13.4716  24621.3  155.647
 13.5136  24612.3  155.765
 13.5556  24673.3  156.576
 13.5976  24844.8  157.261
 13.6396  25085.2  157.392
 13.6816  24663.6  156.551
 13.7236  25295.7  158.177
 13.7656  24512.7  156.257
 13.8076  25051.6  156.737
 13.8496  24523  155.673
 13.8916  24464.1  156.5
 13.9336  24639.3  156.269
 13.9756  24190.3  154.2
 14.0176  24170.9  154.819
 14.0596  24261.1  155.078
 14.1016  23892.7  154.281
 14.1436  23628.1  152.561
 14.1856  23381  152.058
 14.2276  23233.4  152.055
 14.2696  23503  152.781
 14.3116  23161.4  151.571
 14.3536  22691.2  150.199
 14.3956  22675.7  149.878
 14.4376  22782.7  150.009
 14.4796  22788.4  150.021
 14.5216  22405.3  149.549
 14.5636  22385.2  149.046
 14.6056  22268.6  148.234
 14.6476  22377.3  147.821
 14.6896  21860.3  146.65
 14.7316  21534.6  146.573
 14.7736  21432.5  145.383
 14.8156  21312.5  145.001
 14.8576  21118.5  144.197
 14.8996  20896.8  144.643
 14.9416  20441.3  143.061
 14.9836  20693.7  143.898
 15.0256  20202.2  141.113
 15.0676  20403.8  142.137
 15.1096  20288.5  141.471
 15.1516  19662.6  139.829
 15.1936  19936.7  140.223
 15.2356  19734.9  139.792
 15.2776  19758.9  139.459
 15.3196  19288.1  138.793
 15.3616  19274.7  138.496
 15.4036  18969.9  137.243
 15.4456  19457.1  138.655
 15.4876  18901.6  136.343
 15.5296  18784.6  136.205
 15.5716  18581  135.068
 15.6136  18452.5  134.924
 15.6556  18917.4  135.844
 15.6976  18478.8  134.556
 15.7396  18650.1  135.571
 15.7816  18225.6  133.53
 15.8236  17961.7  133.257
 15.8656  17857.5  132.665
 15.9076  17644.8  131.699
 15.9496  17801.4  135.067
 15.9916  17553.6  134.572
 16.0336  17227  130.216
 16.0756  17444.2  131.345
 16.1176  17357.2  131.09
 16.1596  17061.4  131.146
 16.2016  17237.2  130.56
 16.2436  17040.7  130.198
 16.2856  16783.5  128.757
 16.3276  16712.6  128.899
 16.3696  16724  128.766
 16.4116  16585.5  128.694
 16.4536  16813.5  129.356
 16.4956  16831.3  129.151
 16.5376  16719.1  128.923
 16.5796  16584.7  127.752
 16.6216  16647.1  128.305
 16.6636  16597.2  128.273
 16.7056  16686.7  128.473
 16.7476  16755.2  128.264
 16.7896  16430.9  127.766
 16.8316  16544.6  128.17
 16.8736  16560.5  128.496
 16.9156  16545.6  128.776
 16.9576  16300.4  128.629
 16.9996  16320.7  129.196
 17.0416  16340.9  127.627
 17.0836  16288.3  127.172
 17.1256  16018.8  126.133
 17.1676  16095  126.418
 17.2096  15851.4  125.342
 17.2516  16008  125.742
 17.2936  15667.2  124.706
 17.3356  15442.2  123.817
 17.3776  15655.2  124.865
 17.4196  15668.5  124.607
 17.4616  15498.6  123.853
 17.5036  15448.7  124.024
 17.5456  15191  123.62
 17.5876  15403.8  123.525
 17.6296  15259.7  122.752
 17.6716  15225.1  123.199
 17.7136  15155.9  123.06
 17.7556  15092.1  123.092
 17.7976  15280.7  123.602
 17.8396  14984.5  121.893
 17.8816  14915.7  122.158
 17.9236  14882.1  121.832
 17.9656  15073.2  123.153
 18.0076  15134.4  122.974
 18.0496  15421.7  123.257
 18.0916  16724.2  128.896
 18.1336  15873  125.705
 18.1756  15484.8  123.668
 18.2176  15276.5  123.074
 18.2596  14881.5  121.21
 18.3016  15354.1  123.367
 18.3436  15285  123.099
 18.3856  14985.6  122.027
 18.4276  14755.9  120.765
 18.4696  14849.4  121.244
 18.5116  14891.1  121.705
 18.5536  15002.6  122.522
 18.5956  14622.7  120.506
 18.6376  14712.2  121.292
 18.6796  14496.2  119.713
 18.7216  14777.4  121.365
 18.7636  14491.5  120.161
 18.8056  14360  119.567
 18.8476  14396  120.351
 18.8896  14244.9  119.046
 18.9316  14523  120.193
 18.9736  14172.8  118.42
 19.0156  14440.5  119.954
 19.0576  14474.4  118.944
 19.0996  14543.3  119.948
 19.1416  14194.8  118.892
 19.1836  14216.6  118.589
 19.2256  13997.7  117.875
 19.2676  14324.6  119.347
 19.3096  14236.2  119.23
 19.3516  14158.7  118.858
 19.3936  14231.6  119.062
 19.4356  14289.9  119.173
 19.4776  14313.6  119.372
 19.5196  14162.8  118.587
 19.5616  14037.5  118.318
 19.6036  14103.6  118.091
 19.6456  14204.8  118.635
 19.6876  14395.9  119.081
 19.7296  14191.1  118.684
 19.7716  14318.8  119.384
 19.8136  14418.5  120.009
 19.8556  14870.5  121.339
 19.8976  14823.5  121.216
 19.9396  14779.3  120.605
 19.9816  14899.9  121.34
 20.0236  14654.6  120.558
 20.0656  14360.5  119.341
 20.1076  13881.4  117.784
 20.1496  13896.5  117.86
 20.1916  13837.8  117.126
 20.2336  14013.2  117.798
 20.2756  13884.1  117.688
 20.3176  13621.5  116.316
 20.3596  13681.6  116.552
 20.4016  13637  116.165
 20.4436  13671.5  116.869
 20.4856  13583.9  116.274
 20.5276  13495.1  116.361
 20.5696  13429.9  115.543
 20.6116  13552.4  116.351
 20.6536  13457.6  115.447
 20.6956  13325.6  115.006
 20.7376  13291.4  115.088
 20.7796  13354  115.037
 20.8216  13521  115.463
 20.8636  13285.1  114.818
 20.9056  13760.3  116.809
 20.9476  13197.9  114.233
 20.9896  13735.3  116.399
 21.0316  13425.9  114.985
 21.0736  13470.7  115.694
 21.1156  13462  115.822
 21.1576  13271  115.045
 21.1996  13115.4  114.347
 21.2416  13176.7  114.444
 21.2836  13268  114.807
 21.3256  13061.5  113.988
 21.3676  13185.8  114.08
 21.4096  13170.3  114.321
 21.4516  13071.6  113.771
 21.4936  12837.3  113.003
 21.5356  13078.9  114.004
 21.5776  13137  114.091
 21.6196  12933  113.236
 21.6616  12891.3  113.137
 21.7036  12986.5  113.336
 21.7456  12961.1  113.301
 21.7876  12853.4  112.575
 21.8296  12858.1  112.457
 21.8716  12824.2  112.54
 21.9136  13042.5  113.694
 21.9556  12911.8  112.795
 21.9976  12827.2  112.445
 22.0396  12749  112.344
 22.0816  12913.6  113.619
 22.1236  13060  113.708
 22.1656  12950.7  113.356
 22.2076  12862.6  112.45
 22.2496  12809  112.243
 22.2916  12804.1  112.104
 22.3336  12838.9  112.983
 22.3756  12900  112.971
 22.4176  12819.3  112.471
 22.4596  12638.5  112.262
 22.5016  12864.7  112.758
 22.5436  12800.8  112.354
 22.5856  12786.8  112.542
 22.6276  12691  112.259
 22.6696  12757.3  112.895
 22.7116  12819.6  112.688
 22.7536  12742.4  112.322
 22.7956  12770.3  111.77
 22.8376  12672  111.865
 22.8796  12837.9  112.391
 22.9216  12943.4  113.407
 22.9636  12736.3  111.646
 23.0056  12808.1  112.093
 23.0476  12850.9  112.861
 23.0896  12967.5  112.74
 23.1316  13130.8  113.887
 23.1736  12601.2  114.521
 23.2156  12810.9  112.815
 23.2576  12681.9  112.371
 23.2996  12769.7  112.552
 23.3416  12642  112.502
 23.3836  12601.5  111.556
 23.4256  12673.1  111.991
 23.4676  12575.6  111.259
 23.5096  12786.4  112.868
 23.5516  12703.6  111.782
 23.5936  12643.6  112.422
 23.6356  12835.8  112.938
 23.6776  12627.8  112.237
 23.7196  12478.7  111.145
 23.7616  12727.3  112.165
 23.8036  12482.1  111.116
 23.8456  12642.4  111.399
 23.8876  12346.9  110.43
 23.9296  12473  111.495
 23.9716  12452.9  110.599
 24.0136  12404.8  111.289
 24.0556  12160.7  109.919
 24.0976  12118.6  109.537
 24.1396  12119.2  112.194
 24.1816  12252.5  111.213
 24.2236  12306  111.066
 24.2656  12074.6  109.487
 24.3076  12063.8  109.691
 24.3496  12147.5  109.965
 24.3916  12078  109.697
 24.4336  11975  109.437
 24.4756  12071.4  109.737
 24.5176  11850.6  108.386
 24.5596  11751.7  108.06
 24.6016  11682.9  108.028
 24.6436  11835.9  108.217
 24.6856  11849.9  108.046
 24.7276  11821.1  108.23
 24.7696  11813.3  108.311
 24.8116  11760.3  108.255
 24.8536  11497.1  107.025
 24.8956  11617.6  107.325
 24.9376  11466.5  106.564
 24.9796  11395.9  106.588
 25.0216  11282.1  106.16
 25.0636  11530.4  106.972
 25.1056  11048.7  105.417
 25.1476  11412.6  108.803
 25.1896  11413.3  107.283
 25.2316  11576.1  107.305
 25.2736  11446.8  106.361
 25.3156  11332.7  105.901
 25.3576  11241.7  105.902
 25.3996  11358  106.416
 25.4416  11210.3  105.718
 25.4836  11063  105.543
 25.5256  11248.5  105.781
 25.5676  11291.8  105.715
 25.6096  11134.5  105.547
 25.6516  11200.6  105.361
 25.6936  11170.8  105.533
 25.7356  11171.6  105.676
 25.7776  11275.4  105.762
 25.8196  11074.7  105.057
 25.8616  11127.2  105.227
 25.9036  11198  105.026
 25.9456  11038.7  104.874
 25.9876  11071.3  105.093
 26.0296  11250.4  105.447
 26.0716  10989.6  104.635
 26.1136  11195.3  105.556
 26.1556  11327.5  105.545
 26.1976  10985.5  104.869
 26.2396  11183.3  104.955
 26.2816  11031.2  104.845
 26.3236  11153  105.596
 26.3656  10922.2  104.216
 26.4076  11023.7  104.912
 26.4496  11604.9  107.126
 26.4916  11075.4  104.652
 26.5336  10887.4  104.083
 26.5756  11495.3  106.746
 26.6176  10987.7  104.474
 26.6596  10707  103.438
 26.7016  10743.3  103.37
 26.7436  10623.4  102.913
 26.7856  10684  103.195
 26.8276  10662.2  103.047
 26.8696  10869.2  103.916
 26.9116  10807.5  103.562
 26.9536  10683.2  103.01
 26.9956  10610.5  102.693
 27.0376  10538.2  102.551
 27.0796  10627.6  102.728
 27.1216  10557.6  102.457
 27.1636  10502.8  102.36
 27.2056  10639.8  102.906
 27.2476  10500.4  102.228
 27.2896  10613.5  102.893
 27.3316  10432.8  101.725
 27.3736  10489.7  102.271
 27.4156  10387.9  101.609
 27.4576  10423.4  102.018
 27.4996  10363  101.316
 27.5416  10449.5  102.059
 27.5836  10427.8  101.77
 27.6256  10776.9  103.621
 27.6676  10636  102.963
 27.7096  10394.7  101.66
 27.7516  10520.9  102.43
 27.7936  10384.4  101.927
 27.8356  10543.8  102.321
 27.8776  10359.5  101.469
 27.9196  10276.1  100.911
 27.9616  10410  101.757
 28.0036  10301.1  101.2
 28.0456  10276.4  101.214
 28.0876  10134.3  100.601
 28.1296  10256.6  101.045
 28.1716  10232.5  100.928
 28.2136  10162.2  100.547
 28.2556  10049.2  100.107
 28.2976  10065.1  100.175
 28.3396  10237.4  100.792
 28.3816  10127.8  100.268
 28.4236  10153.3  100.551
 28.4656  10033.2  99.9867
 28.5076  9992.03  99.4128
 28.5496  10033.3  99.8856
 28.5916  10053.4  99.7933
 28.6336  10012.9  99.9349
 28.6756  9970.03  98.9208
 28.7176  9966.69  99.4503
 28.7596  9993.73  99.4873
 28.8016  9978.28  99.4445
 28.8436  9775.7  98.6696
 28.8856  9958.79  99.4378
 28.9276  9983.16  99.8091
 28.9696  9833.27  98.714
 29.0116  9860.09  99.0384
 29.0536  9711.89  98.4816
 29.0956  9803.77  98.6707
 29.1376  9872.57  98.977
 29.1796  9748.55  98.4008
 29.2216  9747.87  98.2344
 29.2636  9784.25  98.4955
 29.3056  9805.11  98.3928
 29.3476  9792.29  98.8546
 29.3896  9916.13  99.5654
 29.4316  9949.95  99.0807
 29.4736  9862.49  98.7057
 29.5156  9782.66  98.225
 29.5576  9835.18  99.2381
 29.5996  9939.79  99.0122
 29.6416  9685.67  97.8577
 29.6836  9767.81  98.193
 29.7256  9655.25  98.1977
 29.7676  9793.44  98.5542
 29.8096  9712.73  98.0891
 29.8516  9638.05  98.044
 29.8936  9722.15  98.569
 29.9356  9707.25  98.2445
 29.9776  9458.2  97.1308
 30.0196  9693.67  97.7156
 30.0616  9839.46  98.8265
 30.1036  9744.66  98.1729
 30.1456  9634.79  97.8505
 30.1876  9619.34  97.7541
 30.2296  9613.03  97.6672
 30.2716  9585.17  97.1637
 30.3136  9614.55  98.1742
 30.3556  9656.68  98.3977
 30.3976  9546.12  99.3598
 30.4396  9665.27  97.2867
 30.4816  9626.88  96.6925
 30.5236  9585.47  96.5003
 30.5656  9510.56  96.7796
 30.6076  9601.6  96.6627
 30.6496  9647.77  97.2875
 30.6916  9442.56  96.3432
 30.7336  9462.96  96.5973
 30.7756  9446.1  96.6043
 30.8176  9486.57  96.726
 30.8596  9621.56  97.179
 30.9016  9346.97  96.1207
 30.9436  9384.86  96.0706
 30.9856  9394.25  96.2254
 31.0276  9402.17  95.8737
 31.0696  9332.12  96.0917
 31.1116  9448.97  96.6674
 31.1536  9571.87  97.1775
 31.1956  9339.9  96.0793
 31.2376  9261.12  95.6836
 31.2796  9374.43  95.8033
 31.3216  9280.42  95.266
 31.3636  9437.95  96.768
 31.4056  9358.66  97.6858
 31.4476  9334.98  95.4409
 31.4896  9171.86  95.1025
 31.5316  9526.92  96.3241
 31.5736  9659.09  96.8051
 31.6156  9513.44  96.0894
 31.6576  9424.81  95.7411
 31.6996  9358.75  95.0682
 31.7416  9189.44  95.2699
 31.7836  9275.9  94.7307
 31.8256  9303.44  95.1342
 31.8676  9470.13  95.9888
 31.9096  9153.77  94.7228
 31.9516  9260.15  95.4364
 31.9936  9077.12  94.3144
 32.0356  9268.58  95.3669
 32.0776  9362.84  95.7378
 32.1196  9164.65  94.8091
 32.1616  9325.04  95.091
 32.2036  9156.74  94.7373
 32.2456  9082.59  94.7357
 32.2876  9130.2  94.4789
 32.3296  9076.31  94.1646
 32.3716  9180.16  94.8054
 32.4136  9268.71  95.4836
 32.4556  9160.13  94.289
 32.4976  9219.96  94.5097
 32.5396  9146.3  94.2011
 32.5816  9019.56  93.6684
 32.6236  9191.9  94.6314
 32.6656  9308.16  95.7773
 32.7076  9087.64  94.2863
 32.7496  9156.08  94.3053
 32.7916  9091.64  93.9353
 32.8336  9156.35  94.365
 32.8756  9127.03  93.9257
 32.9176  9051.57  94.0262
 32.9596  9029.06  93.9848
 33.0016  9116.91  94.2299
 33.0436  9134.09  94.4999
 33.0856  9037.89  94.0707
 33.1276  8921.62  93.2011
 33.1696  9141.88  94.1799
 33.2116  9035.73  93.8637
 33.2536  8933  93.3201
 33.2956  8912.79  93.304
 33.3376  8948.05  93.2258
 33.3796  8994.66  93.6747
 33.4216  9078.64  93.7102
 33.4636  9052.01  93.7211
 33.5056  8837.59  92.8353
 33.5476  8816.63  92.7184
 33.5896  8976.58  93.3254
 33.6316  8793.76  92.691
 33.6736  8801.7  92.9633
 33.7156  8790.22  92.9581
 33.7576  8880.29  93.0561
 33.7996  9012.48  93.5142
 33.8416  8711.39  92.1208
 33.8836  8948.38  93.1454
 33.9256  8894.23  92.9218
 33.9676  8929.1  93.0009
 34.0096  8661.65  91.9126
 34.0516  8708.81  91.7979
 34.0936  8757.93  92.3272
 34.1356  8867.03  92.6361
 34.1776  8822.3  92.4156
 34.2196  8767.06  92.3067
 34.2616  8623.2  91.6813
 34.3036  8696.54  92.3136
 34.3456  8655.78  91.8568
 34.3876  8806.54  92.6153
 34.4296  8711.67  91.8091
 34.4716  8747.26  92.1425
 34.5136  8743.33  92.326
 34.5556  8648.58  92.08
 34.5976  8584.58  91.5438
 34.6396  8631.13  91.5036
 34.6816  8742.85  92.199
 34.7236  8728.16  91.9082
 34.7656  8750.49  92.2196
 34.8076  8654.55  92.0365
 34.8496  8688.3  92.0786
 34.8916  8585.33  91.4047
 34.9336  8770.22  92.3423
 34.9756  8736.49  92.0817
 35.0176  8670.91  92.2771
 35.0596  8515.44  91.2702
 35.1016  8655.68  91.7852
 35.1436  8718.8  91.8006
 35.1856  8510.98  90.8271
 35.2276  8566.28  91.2982
 35.2696  8497.3  91.1197
 35.3116  8545.41  91.4715
 35.3536  8461.25  90.7337
 35.3956  8503.62  90.6682
 35.4376  8595.16  91.7077
 35.4796  8634.02  91.9827
 35.5216  8456.18  90.9831
 35.5636  8417.97  91.5264
 35.6056  8541.63  91.2113
 35.6476  8542.27  91.1072
 35.6896  8649.45  91.7626
 35.7316  8524.71  91.0746
 35.7736  8548.22  91.3993
 35.8156  8399.62  90.5937
 35.8576  8599.32  91.9269
 35.8996  8525.97  91.5004
 35.9416  8365.4  90.1419
 35.9836  8419.22  90.7767
 36.0256  8543.14  91.4603
 36.0676  8429.08  90.6129
 36.1096  8432.38  90.7665
 36.1516  8455.9  90.7801
 36.1936  8485.73  90.7909
 36.2356  8440.42  91.1821
 36.2776  8412.14  90.5155
 36.3196  8378.29  89.996
 36.3616  8419.56  90.3506
 36.4036  8416.41  90.3947
 36.4456  8466.3  90.8769
 36.4876  8356.21  90.2159
 36.5296  8411.2  90.5581
 36.5716  8447.1  91.5416
 36.6136  8415.48  90.1399
 36.6556  8578.18  91.2087
 36.6976  8257.63  89.9873
 36.7396  8400.54  90.4944
 36.7816  8319.14  90.4279
 36.8236  8299.79  90.246
 36.8656  8274.63  90.1821
 36.9076  8302.53  90.2098
 36.9496  8338.06  90.3882
 36.9916  8289.03  89.7509
 37.0336  8387.49  90.6014
 37.0756  8331.58  90.0901
 37.1176  8256.66  89.9518
 37.1596  8225.99  89.794
 37.2016  8245.15  90.1228
 37.2436  8421.98  90.3926
 37.2856  8250.85  89.7293
 37.3276  8437.24  90.0749
 37.3696  8302.29  90.2474
 37.4116  8314.67  90.2154
 37.4536  8222.49  89.5836
 37.4956  8220.02  89.6044
 37.5376  8360.38  91.9433
 37.5796  8197.75  90.9975
 37.6216  8151.67  89.0056
 37.6636  8063.72  88.4188
 37.7056  8193.44  89.3239
 37.7476  8157.74  88.6649
 37.7896  8175.85  89.2629
 37.8316  7956.88  88.2318
 37.8736  8226.72  89.2395
 37.9156  8144.56  88.7925
 37.9576  8116.67  88.5179
 37.9996  7938.08  87.2644
 38.0416  8085.28  88.8923
 38.0836  8190.07  89.3682
 38.1256  8147.42  89.0834
 38.1676  7917.98  87.9654
 38.2096  8059.35  88.364
 38.2516  8127.97  88.9469
 38.2936  8172.6  88.9918
 38.3356  8264.75  89.4084
 38.3776  7936.04  87.8852
 38.4196  8262.26  89.5261
 38.4616  8049.06  88.5995
 38.5036  8154.03  89.0178
 38.5456  8124.78  89.7051
 38.5876  8019.9  89.1546
 38.6296  7906.8  87.5003
 38.6716  8006.52  87.8416
 38.7136  7956.57  87.5137
 38.7556  7939.31  87.9236
 38.7976  8049.11  88.4663
 38.8396  7997.69  88.638
 38.8816  7854.62  87.6215
 38.9236  7887.17  87.6158
 38.9656  7952.49  87.8904
 39.0076  7976.43  87.4242
 39.0496  8057.28  88.41
 39.0916  8013.35  87.8205
 39.1336  7987.48  88.09
 39.1756  8018.75  88.3257
 39.2176  7945.78  88.4651
 39.2596  7919.85  88.237
 39.3016  7938  87.9032
 39.3436  7946.28  88.384
 39.3856  7960.5  87.9107
 39.4276  7980.94  88.5139
 39.4696  8037.1  88.4504
 39.5116  7851.77  87.9281
 39.5536  7984.95  89.1133
 39.5956  7991.55  88.2443
 39.6376  8031.6  88.4695
 39.6796  7965.29  87.848
 39.7216  8117.13  88.7699
 39.7636  7978.33  88.5896
 39.8056  7969.39  88.31
 39.8476  7996.22  88.7209
 39.8896  7902.46  87.82
 39.9316  7975.47  88.4832
 39.9736  8203.73  89.3034
 40.0156  7947.93  87.7245
 40.0576  8060.14  88.7067
 40.0996  8041.42  87.7786
 40.1416  7971.23  88.1877
 40.1836  7972.36  88.0827
 40.2256  7992.97  88.2472
 40.2676  8002.81  88.406
 40.3096  8097.69  88.8612
 40.3516  8088.19  88.9122
 40.3936  8022.74  88.1111
 40.4356  7992.31  88.1406
 40.4776  8058.32  88.9174
 40.5196  8150.3  89.5465
 40.5616  8027.95  88.514
 40.6036  8092.11  89.1276
 40.6456  8167.01  89.1413
 40.6876  8137.74  88.9568
 40.7296  8114.39  88.983
 40.7716  8117.37  89.1263
 40.8136  8005.88  88.4534
 40.8556  8122.1  89.2264
 40.8976  8089.06  88.9677
 40.9396  7971.34  88.6655
 40.9816  8062.3  88.4512
 41.0236  8154.72  88.736
 41.0656  8165.18  89.3358
 41.1076  8079.71  88.6423
 41.1496  7927.51  87.7103
 41.1916  7960.13  88.2177
 41.2336  7994.18  88.3906
 41.2756  8064.3  88.3816
 41.3176  8062.19  88.9856
 41.3596  8053.78  88.6689
 41.4016  7962.45  88.4227
 41.4436  8066.66  88.7897
 41.4856  8084.25  89.0494
 41.5276  7973.52  88.4551
 41.5696  8068.45  88.6133
 41.6116  8003.23  88.6409
 41.6536  8028.72  88.6458
 41.6956  7930.3  88.1457
 41.7376  7974.15  88.4264
 41.7796  7980.4  88.3425
 41.8216  7963.29  88.485
 41.8636  8043.36  88.8648
 41.9056  7889.06  87.7979
 41.9476  8018.36  88.7543
 41.9896  7966.33  88.125
 42.0316  8056.41  88.714
 42.0736  7980.5  88.4008
 42.1156  7946.55  88.0507
 42.1576  7988.82  88.3861
 42.1996  7960.96  88.3728
 42.2416  7921.94  87.7393
 42.2836  7948.82  87.9904
 42.3256  7876.26  87.7131
 42.3676  7960.44  87.9824
 42.4096  7940.94  87.8325
 42.4516  7898.32  87.6875
 42.4936  7743.75  86.8951
 42.5356  7858.88  87.6765
 42.5776  7986.3  88.3208
 42.6196  8027.78  88.605
 42.6616  7784.58  87.4237
 42.7036  7922.86  87.5766
 42.7456  7946.27  88.0622
 42.7876  7855.85  87.6633
 42.8296  7843.18  87.4236
 42.8716  7782.27  87.245
 42.9136  7835.4  87.3276
 42.9556  7943.11  88.0648
 42.9976  7917.28  87.8806
 43.0396  7822.13  87.0798
 43.0816  7750.51  87.0629
 43.1236  7832.13  87.5775
 43.1656  7788.11  87.158
 43.2076  7762.87  87.1222
 43.2496  7784.93  87.0597
 43.2916  7806.21  87.5443
 43.3336  7830.01  87.5144
 43.3756  7817.33  87.194
 43.4176  7728.89  86.7842
 43.4596  7836.45  87.2425
 43.5016  7728.07  87.0439
 43.5436  7735.22  86.9858
 43.5856  7749.48  87.0877
 43.6276  7846.28  87.5263
 43.6696  7684.51  86.8771
 43.7116  7837.04  87.2279
 43.7536  7806.75  87.5491
 43.7956  7637.54  87.7801
 43.8376  7710.67  86.7496
 43.8796  7809.05  87.3799
 43.9216  7667.53  86.5028
 43.9636  7680.05  86.6813
 44.0056  7572.05  86.3023
 44.0476  7707.55  86.6957
 44.0896  7635.97  86.6371
 44.1316  7691.34  86.4735
 44.1736  7664.86  86.4399
 44.2156  7729.2  86.6636
 44.2576  7638.83  86.4825
 44.2996  7718.25  86.9022
 44.3416  7676.58  86.4249
 44.3836  7480.39  85.6423
 44.4256  7514.87  85.4819
 44.4676  7570.48  85.9557
 44.5096  7563.18  86.0583
 44.5516  7583.14  86.1337
 44.5936  7469.04  85.4378
 44.6356  7600.6  85.9249
 44.6776  7572.87  86.0889
 44.7196  7624.01  86.6829
 44.7616  7551.09  87.5975
 44.8036  7444.02  85.4
 44.8456  7575.94  86.3564
 44.8876  7465.97  85.5796
 44.9296  7581.28  85.6916
 44.9716  7466.7  85.4646
 45.0136  7581.64  86.0605
 45.0556  7494.99  85.5359
 45.0976  7426.84  85.3124
 45.1396  7379.1  84.8003
 45.1816  7356.63  84.6073
 45.2236  7568.88  85.7168
 45.2656  7351.99  84.9788
 45.3076  7433.81  85.2379
 45.3496  7339.11  84.9922
 45.3916  7354.15  85.3372
 45.4336  7368.14  85.2707
 45.4756  7265.58  84.5379
 45.5176  7371.94  84.7645
 45.5596  7487.25  85.5502
 45.6016  7431.82  85.6495
 45.6436  7454.81  84.9582
 45.6856  7386.7  85.2142
 45.7276  7303.28  86.0659
 45.7696  7299.12  85.6964
 45.8116  7449.19  86.0216
 45.8536  7307.76  85.0894
 45.8956  7405.63  85.0133
 45.9376  7470.65  84.8485
 45.9796  7374.99  84.9811
 46.0216  7426.75  85.6257
 46.0636  7440.2  84.8431
 46.1056  7362.13  84.3875
 46.1476  7188.3  83.9688
 46.1896  7316.44  84.8611
 46.2316  7228.04  84.2191
 46.2736  7142.05  84.079
 46.3156  7265.21  84.3906
 46.3576  7261.28  84.5695
 46.3996  7277.59  84.8236
 46.4416  7313.07  84.6115
 46.4836  7273.09  84.7296
 46.5256  7390.66  85.3508
 46.5676  7139.9  84.0017
 46.6096  7311.64  84.9346
 46.6516  7419.59  84.6043
 46.6936  7404.78  85.0167
 46.7356  7448.49  85.3673
 46.7776  7307.94  85.4036
 46.8196  7290.68  84.9019
 46.8616  7183.21  84.2167
 46.9036  7105.99  83.4245
 46.9456  7197.82  83.6078
 46.9876  7188.84  83.6354
 47.0296  7157.04  84.1342
 47.0716  7263.03  84.5777
 47.1136  7187.06  83.8116
 47.1556  7201.29  83.7656
 47.1976  7202.35  83.8445
 47.2396  7039.47  83.2826
 47.2816  7095.15  83.3232
 47.3236  7187.17  84.2314
 47.3656  7236.66  84.45
 47.4076  7157.68  83.7848
 47.4496  7188.06  84.0639
 47.4916  7058.54  83.4859
 47.5336  7178.31  84.0085
 47.5756  7125.57  83.813
 47.6176  7057.51  83.3155
 47.6596  7080.49  83.1711
 47.7016  7243.52  83.9366
 47.7436  7178.81  83.9001
 47.7856  7202.42  84.0573
 47.8276  7051.37  83.2326
 47.8696  7162.66  83.9579
 47.9116  7233.87  84.0918
 47.9536  7111.88  83.3233
 47.9956  7030.46  83.5457
 48.0376  6958.43  82.8926
 48.0796  7198.29  84.4415
 48.1216  7231.37  84.4491
 48.1636  7270.56  84.2467
 48.2056  7082.24  83.4136
 48.2476  7218.02  84.5183
 48.2896  7108.56  83.7874
 48.3316  7039.92  83.3214
 48.3736  7047.41  83.3964
 48.4156  7022.76  83.1043
 48.4576  7013.73  83.3369
 48.4996  7108.65  83.3579
 48.5416  7035.97  83.2503
 48.5836  7041.47  82.9677
 48.6256  7152.56  83.8212
 48.6676  7072.05  83.8501
 48.7096  7054.27  83.0329
 48.7516  7033.07  83.0525
 48.7936  6933.76  82.5273
 48.8356  7069.33  83.3785
 48.8776  7045.43  83.796
 48.9196  7193.31  84.0423
 48.9616  6980.7  83.1737
 49.0036  7054.52  83.9582
 49.0456  6894.33  82.9835
 49.0876  7058.15  83.4914
 49.1296  6844.66  82.3929
 49.1716  6771.88  81.8231
 49.2136  6940.67  82.7719
 49.2556  6977.02  83.0053
 49.2976  6981.35  83.1033
 49.3396  7011.6  83.3359
 49.3816  7068.5  83.0986
 49.4236  6970.31  82.944
 49.4656  6875.74  82.3985
 49.5076  6995.3  82.8628
 49.5496  6943.61  82.6253
 49.5916  6885.72  82.1911
 49.6336  6928  82.6499
 49.6756  6950.29  83.0119
 49.7176  6823.78  82.1971
 49.7596  6886.86  82.3388
 49.8016  6933.45  82.5562
 49.8436  6824.84  82.1846
 49.8856  6821.06  82.1668
 49.9276  6802.3  82.1582
 49.9696  6840.43  82.3671
 50.0116  6787.19  82.19
 50.0536  6923.21  82.9368
 50.0956  6897.98  82.8605
 50.1376  6764.42  81.7626
 50.1796  6847.9  82.5325
 50.2216  6734.33  81.8332
 50.2636  6758.55  81.6089
 50.3056  6809.73  82.0927
 50.3476  6842.19  82.3014
 50.3896  6727.09  81.5848
 50.4316  6766.23  81.6589
 50.4736  6719.41  81.5908
 50.5156  6851.63  82.3832
 50.5576  6918.57  82.5439
 50.5996  6799.79  82.109
 50.6416  6689.34  81.3673
 50.6836  6711.89  81.5654
 50.7256  6815.08  82.1129
 50.7676  6734.17  81.9411
 50.8096  6800.13  81.8814
 50.8516  6735.36  81.9033
 50.8936  6803.09  82.0972
 50.9356  6769.5  81.9982
 50.9776  6717.59  81.8323
 51.0196  6615.38  81.3399
 51.0616  6654.62  80.9133
 51.1036  6741.97  81.7966
 51.1456  6716.95  81.5516
 51.1876  6666.37  80.598
 51.2296  6687.12  81.3521
 51.2716  6635.12  80.7448
 51.3136  6688.89  81.5257
 51.3556  6700.23  81.2182
 51.3976  6610.79  80.828
 51.4396  6633.47  81.2692
 51.4816  6580.8  80.7945
 51.5236  6595.22  80.9755
 51.5656  6545.06  80.2747
 51.6076  6711.36  81.3693
 51.6496  6575.15  80.7257
 51.6916  6590.99  81.1811
 51.7336  6674.13  81.7795
 51.7756  6533.69  80.62
 51.8176  6617.94  81.2434
 51.8596  6651.72  81.4649
 51.9016  6710.4  81.432
 51.9436  6577.7  82.062
 51.9856  6501.32  82.0084
 52.0276  6676.76  81.6164
 52.0696  6510.34  80.6541
 52.1116  6620.65  81.4555
 52.1536  6598.73  81.2048
 52.1956  6658.91  81.0378
 52.2376  6643.76  81.112
 52.2796  6625.05  80.8148
 52.3216  6522.21  80.8733
 52.3636  6634.22  81.1451
 52.4056  6596.2  80.7665
 52.4476  6521.44  80.6751
 52.4896  6428.43  80.1466
 52.5316  6469.65  80.4442
 52.5736  6590.03  80.9245
 52.6156  6540.76  80.993
 52.6576  6565.75  80.5962
 52.6996  6349.44  80.206
 52.7416  6536.19  81.2412
 52.7836  6415.22  80.3573
 52.8256  6483.38  80.008
 52.8676  6377.11  79.9345
 52.9096  6570.89  81.2171
 52.9516  6455.6  80.8734
 52.9936  6443.69  81.1897
 53.0356  6394.85  79.894
 53.0776  6307.96  79.596
 53.1196  6296.57  79.6595
 53.1616  6403.02  80.375
 53.2036  6300.91  79.6879
 53.2456  6320.28  79.914
 53.2876  6372.42  79.9483
 53.3296  6270.97  79.6309
 53.3716  6308.55  79.6151
 53.4136  6297.75  79.6962
 53.4556  6266.74  79.5308
 53.4976  6360.59  79.9704
 53.5396  6409.56  80.6743
 53.5816  6306.69  79.659
 53.6236  6228.89  79.5038
 53.6656  6341.81  79.8545
 53.7076  6390.27  80.1196
 53.7496  6332.12  79.865
 53.7916  6450.56  80.736
 53.8336  6267.52  79.4857
 53.8756  6206.96  79.6443
 53.9176  6444.65  80.5046
 53.9596  6384.2  80.8869
 54.0016  6301.71  79.6997
 54.0436  6323.22  80.047
 54.0856  6361.67  79.7185
 54.1276  6311.57  79.6052
 54.1696  6266.67  79.4925
 54.2116  6335.39  79.6827
 54.2536  6337.95  79.513
 54.2956  6420.64  80.0796
 54.3376  6262.93  79.571
 54.3796  6304.7  79.7353
 54.4216  6470.25  80.8251
 54.4636  6342.83  79.9771
 54.5056  6346.7  79.8252
 54.5476  6238.34  79.4747
 54.5896  6324.81  79.8551
 54.6316  6284.82  79.4613
 54.6736  6367.07  80.0533
 54.7156  6356.49  80.0074
 54.7576  6283.3  79.5443
 54.7996  6340.67  80.0375
 54.8416  6387.1  80.387
 54.8836  6166.37  79.0947
 54.9256  6239.98  79.3138
 54.9676  6341.45  79.8151
 55.0096  6289.46  79.5579
 55.0516  6296.87  79.8335
 55.0936  6257.73  79.2148
 55.1356  6283.57  79.4188
 55.1776  6240.68  79.4173
 55.2196  6301.3  79.587
 55.2616  6259.94  79.5354
 55.3036  6234.39  79.5324
 55.3456  6264.38  79.8762
 55.3876  6250.8  79.5337
 55.4296  6211.76  79.2615
 55.4716  6255.85  79.573
 55.5136  6290.6  79.5555
 55.5556  6243.75  79.3273
 55.5976  6171.92  78.9246
 55.6396  6169.14  78.8582
 55.6816  6254.4  79.2805
 55.7236  6335.74  79.8349
 55.7656  6294.08  79.3277
 55.8076  6292.71  79.3024
 55.8496  6253.98  79.3787
 55.8916  6239.65  79.4949
 55.9336  6260.67  79.4371
 55.9756  6148.45  78.6175
 56.0176  6282.37  79.6231
 56.0596  6257.07  79.4458
 56.1016  6254.58  79.4343
 56.1436  6212.26  79.4294
 56.1856  6196.82  79.0809
 56.2276  6235.13  79.3755
 56.2696  6237.91  79.3667
 56.3116  6184.9  79.4263
 56.3536  6236.5  79.4178
 56.3956  6167.09  78.9665
 56.4376  6213.5  79.2965
 56.4796  6271.1  79.4605
 56.5216  6260.18  79.7739
 56.5636  6214.52  79.0731
 56.6056  6179.34  79.0749
 56.6476  6243.51  79.1156
 56.6896  6211.32  79.3554
 56.7316  6201.72  79.1975
 56.7736  6232.37  79.3975
 56.8156  6108.91  78.6102
 56.8576  6199.05  79.1185
 56.8996  6110.72  78.4902
 56.9416  6226.26  79.5395
 56.9836  6131.77  78.4504
 57.0256  6099.48  78.5572
 57.0676  6133.93  78.9025
 57.1096  6267.11  79.5431
 57.1516  6194.85  79.1489
 57.1936  6138.46  78.5341
 57.2356  6236.43  79.4823
 57.2776  6229.43  79.3934
 57.3196  6239.35  79.8289
 57.3616  6113.45  78.5123
 57.4036  6145.02  78.7762
 57.4456  6178.11  78.9509
 57.4876  6259.84  79.3296
 57.5296  6171.88  79.1103
 57.5716  6110.13  78.7076
 57.6136  6183.16  78.9906
 57.6556  6126.11  78.7674
 57.6976  6179.54  78.9288
 57.7396  6060.38  78.5406
 57.7816  6056.16  78.8696
 57.8236  6137.37  79.1868
 57.8656  6137.16  78.8447
 57.9076  6119.65  78.7526
 57.9496  6160.74  79.3763
 57.9916  6178.15  78.9974
 58.0336  6130.76  78.9748
 58.0756  6155.81  78.7676
 58.1176  6128.58  78.5887
 58.1596  6096.84  78.9503
 58.2016  6242.55  79.1105
 58.2436  6255.94  79.6146
 58.2856  6261.31  79.5657
 58.3276  6145.24  79.1968
 58.3696  6086.07  78.5611
 58.4116  6182.97  79.0509
 58.4536  6215.1  79.1453
 58.4956  6139.4  78.8375
 58.5376  6303.12  79.4505
 58.5796  6195.48  79.1937
 58.6216  6174.34  78.8706
 58.6636  6204.7  79.2814
 58.7056  6179.35  78.9785
 58.7476  6168.37  79.3577
 58.7896  6118.95  78.6816
 58.8316  6093.92  78.5167
 58.8736  6253.45  79.5387
 58.9156  6079.55  78.4765
 58.9576  6262.22  79.9643
 58.9996  6337.79  79.6728
 59.0416  6350.06  80.1303
 59.0836  6130.88  78.6609
 59.1256  6110.28  79.2314
 59.1676  6057.13  79.1742
 59.2096  6317.83  80.1716
 59.2516  6321.34  79.7652
 59.2936  6199.51  79.3253
 59.3356  6302.92  79.8592
 59.3776  6307.24  80.0593
 59.4196  6140.83  78.9307
 59.4616  6181.97  79.0538
 59.5036  6135.38  78.7907
 59.5456  6359.58  79.903
 59.5876  6362.18  80.1155
 59.6296  6026.39  78.0417
 59.6716  6204.18  79.2433
 59.7136  6274.23  79.6774
 59.7556  6196.25  79.319
 59.7976  6287.81  79.6398
 59.8396  6288.98  79.5393
 59.8816  6083.98  78.773
 59.9236  6284.3  79.7025
 59.9656  6162.42  79.1891
 60.0076  6083.48  78.0353
 60.0496  6250.52  79.6122
 60.0916  6224.82  78.8575
 60.1336  6091.93  79.1233
 60.1756  6123.43  80.5201
 60.1996  0.0000000E+00  0.0000000E+00