File: docs/examples/opeando_xrd/IS17_D/Data/IS17_D/17_Da_f00144.xye
# /beamlines/bl04/projects/cycle2025-II/20250340211-lsimonelli/DATA/IS17_D/17_Da_f00144.xye : mythproc.py merge -s 0.006 -l 0.5 -f /beamlines/bl04/inhouse/ff/FlatField/ff_20Nov2024rod8mm60s_17keV.raw -b True -c true -o xye /beamlines/bl04/projects/cycle2025-II/20250340211-lsimonelli/DATA/IS17_D/17_Da_00144.dat
# IsMon = [6779222, 6784127, 6778591]  IsPos = [-1.4999, -2.4884, -3.4988]
# Wave = 0.4962  CalPath /beamlines/bl04/projects/cycle2025-II/20250340211-lsimonelli/DATA/Align/Si_Pos1_25keV_f00001.cal
# Date = 2025-09-25_09:42:18 Dt = 4.8000  Bin = 0.0060  <imon> = 6780647 +/- 2474 (Min/Max) 6778591 / 6784127
# icurr 252.0975  mocoIn 1.7196E-05  mocoOut 0.8077  i15 7.09711e+06  imon 6.78065e+06  i7 7.3333  iEMpd_timer 4.8000  iEMpd_1 3.6420E-08  iEMpd_2 7.9668E-08  iEMpd_3 1.8675E-08  iEMpd_4 4.9124E-08  iEMhp_timer 4.8000  iEMhp_1 4.9253E-06  iEMhp_2 -2.6387E-08  iEMhp_3 -2.5066E-08  iEMhp_4 -2.1317E-08
#      9776
 1.5856  41288  208.67
 1.6276  48779.7  222.921
 1.6696  54896.2  235.651
 1.7116  63381.8  253.705
 1.7536  72540.5  270.26
 1.7956  77154.2  279.419
 1.8376  73907.3  273.91
 1.8796  61777.5  248.583
 1.9216  49933.1  224.377
 1.9636  41919.7  204.743
 2.0056  38026  194.247
 2.0476  35395.5  189.463
 2.0896  33676.3  183.72
 2.1316  32946.3  180.845
 2.1736  30924.8  176.599
 2.2156  31906.1  177.939
 2.2576  30486.8  174.559
 2.2996  29057.6  171.045
 2.3416  29838.7  171.94
 2.3836  28925  169.396
 2.4256  28349.7  168.25
 2.4676  27585.2  165.73
 2.5096  27483.8  165.48
 2.5516  27039.9  167.905
 2.5936  32241.9  179.645
 2.6356  26680  164.111
 2.6776  26263.2  161.719
 2.7196  25989.2  161.388
 2.7616  25655.9  160.129
 2.8036  25354.1  159.352
 2.8456  25422.8  160.183
 2.8876  24843  158.214
 2.9296  24357.3  156.794
 2.9716  24362.7  156.306
 3.0136  24218.9  155.911
 3.0556  24028.4  155.687
 3.0976  23919  154.282
 3.1396  23820.8  154.681
 3.1816  23654.4  154.068
 3.2236  23339.3  153.03
 3.2656  23612.5  152.959
 3.3076  23442.9  153.868
 3.3496  23736.1  153.758
 3.3916  24160.6  154.961
 3.4336  24427.3  156.392
 3.4756  24788.1  157.481
 3.5176  25697.6  160.116
 3.5596  25479.5  161.891
 3.6016  25860.2  160.7
 3.6436  24990.9  159.069
 3.6856  24510.1  155.84
 3.7276  23587.8  153.949
 3.7696  23547.7  154.04
 3.8116  23037.7  152.238
 3.8536  23094.9  152.368
 3.8956  23087.6  152.164
 3.9376  23217.3  152.843
 3.9796  22856.3  151.161
 4.0216  22936.6  150.453
 4.0636  22790.2  151.457
 4.1056  23064.1  151.989
 4.1476  23019.8  152.171
 4.1896  23419.2  153.343
 4.2316  23531.7  153.543
 4.2736  23883.3  154.466
 4.3156  24195.8  155.711
 4.3576  24798.4  157.558
 4.3996  25206.6  159.096
 4.4416  25519.6  159.676
 4.4836  26212.2  161.968
 4.5256  26587.2  163.753
 4.5676  26578.5  163.978
 4.6096  27147.5  164.379
 4.6516  27644.1  165.581
 4.6936  27737.8  166.68
 4.7356  27875.3  166.916
 4.7776  27790.5  166.493
 4.8196  27509.4  166.305
 4.8616  26949  164.072
 4.9036  26886  163.634
 4.9456  26665.6  163.612
 4.9876  26279  162.322
 5.0296  26463.2  162.713
 5.0716  26318.7  163.052
 5.1136  26450.4  163.154
 5.1556  26840  163.81
 5.1976  27603.2  166.125
 5.2396  27278.4  164.838
 5.2816  27183.6  165.013
 5.3236  27571.3  165.889
 5.3656  27030.7  165.177
 5.4076  26594.6  163.994
 5.4496  26914.4  164.46
 5.4916  26879  164.106
 5.5336  27063.7  164.675
 5.5756  26713.9  163.634
 5.6176  27069  164.151
 5.6596  27110.9  165.26
 5.7016  27476.5  165.629
 5.7436  27858.3  167.05
 5.7856  27348.2  165.572
 5.8276  27829.7  166.742
 5.8696  28050.2  167.576
 5.9116  28081.4  168.282
 5.9536  28127.3  168.171
 5.9956  28576.1  168.863
 6.0376  28702  169.881
 6.0796  28936.6  170.404
 6.1216  28951.6  170.649
 6.1636  28956.4  169.721
 6.2056  29097.2  170.804
 6.2476  29169.4  170.891
 6.2896  29257.3  170.827
 6.3316  29310.4  171.16
 6.3736  29505.3  171.618
 6.4156  29489  171.465
 6.4576  29781  171.914
 6.4996  29845.6  172.583
 6.5416  29843.9  172.719
 6.5836  29958.2  173.279
 6.6256  29916.6  172.721
 6.6676  30421.9  173.738
 6.7096  30133.2  173.769
 6.7516  30600.4  174.76
 6.7936  31068.5  175.522
 6.8356  31187.2  175.929
 6.8776  31279.4  176.993
 6.9196  31285.6  177.416
 6.9616  31810.3  178.324
 7.0036  32087.7  178.764
 7.0456  32227.5  178.442
 7.0876  31936.5  179.331
 7.1296  32307.4  179.499
 7.1716  32090.5  178.433
 7.2136  31965.8  177.862
 7.2556  32036.3  178.221
 7.2976  32213.6  179.216
 7.3396  32041.1  178.936
 7.3816  32042.2  179.167
 7.4236  32300.5  179.174
 7.4656  32382.3  178.884
 7.5076  32626.6  179.693
 7.5496  32689  180.416
 7.5916  32678.1  180.406
 7.6336  33159.1  181.625
 7.6756  33213.5  181.626
 7.7176  33481.5  182.657
 7.7596  33486.3  183.939
 7.8016  34010.3  187.58
 7.8436  34421.5  185.34
 7.8856  34553.1  185.302
 7.9276  35159.6  187.333
 7.9696  35457.4  188.427
 8.0116  36214.9  188.951
 8.0536  36449.8  189.823
 8.0956  36627.5  191.453
 8.1376  37348.6  192.812
 8.1796  37014.5  192.481
 8.2216  37960.4  193.658
 8.2636  38344.8  194.892
 8.3056  38142.3  195.172
 8.3476  38854.3  196.291
 8.3896  38431.7  195.298
 8.4316  38646.4  196.011
 8.4736  38858  196.002
 8.5156  38643.1  195.742
 8.5576  38143.8  195.444
 8.5996  37926.4  193.756
 8.6416  38126.6  195.534
 8.6836  37971.6  194.993
 8.7256  38385.3  195.468
 8.7676  37997.8  197.448
 8.8096  37892.1  194.454
 8.8516  37512  193.092
 8.8936  37593.2  193.183
 8.9356  37091.7  192.245
 8.9776  37274.4  192.816
 9.0196  37000.3  191.775
 9.0616  37370.1  192.183
 9.1036  36672.7  191.602
 9.1456  36961.4  191.696
 9.1876  36573.2  190.634
 9.2296  36939.4  190.986
 9.2716  36385.8  189.613
 9.3136  36324.8  189.439
 9.3556  36654  190.272
 9.3976  35192.3  186.968
 9.4396  35389.9  187.388
 9.4816  35215.2  186.785
 9.5236  35184.9  186.614
 9.5656  34994.2  186.436
 9.6076  34772.6  186.387
 9.6496  34627.2  185.917
 9.6916  34598.1  185.812
 9.7336  34532.9  185.41
 9.7756  34761  187.283
 9.8176  33885.1  184.377
 9.8596  33570.6  181.958
 9.9016  33292.3  181.193
 9.9436  33049.8  180.445
 9.9856  32758.8  179.865
 10.0276  32241.7  179.558
 10.0696  32688.6  179.832
 10.1116  31918.7  177.967
 10.1536  31606.5  177.261
 10.1956  31147.1  175.563
 10.2376  30873.1  174.296
 10.2796  30793.1  174.195
 10.3216  30615.7  173.964
 10.3636  30493.3  173.649
 10.4056  30746.2  174.76
 10.4476  30263.6  173.013
 10.4896  30951.8  174.412
 10.5316  30298.8  173.279
 10.5736  29745  172.101
 10.6156  29525  171.243
 10.6576  30405.4  172.293
 10.6996  29274.8  169.733
 10.7416  28814.1  168.633
 10.7836  29026.2  169.956
 10.8256  28478.8  168.794
 10.8676  28833.9  169.36
 10.9096  28313.1  167.882
 10.9516  28142.6  166.282
 10.9936  28271.3  166.871
 11.0356  27948.6  166.55
 11.0776  28071.7  166.219
 11.1196  27487.9  165.238
 11.1616  27263.4  164.236
 11.2036  27682.8  165.357
 11.2456  27590  165.788
 11.2876  27224.2  164.422
 11.3296  27115.5  163.99
 11.3716  27395.4  164.527
 11.4136  27307.2  165.173
 11.4556  27739  166.138
 11.4976  27967.4  165.756
 11.5396  28005  166.032
 11.5816  27226  164.177
 11.6236  26858.2  163.279
 11.6656  26655.4  161.819
 11.7076  26154.7  161.134
 11.7496  26072.4  164.863
 11.7916  25965.4  159.811
 11.8336  25756.6  160.07
 11.8756  25601  159.11
 11.9176  25627.7  158.82
 11.9596  25286.1  157.97
 12.0016  25139.8  158.313
 12.0436  25114.4  157.646
 12.0856  24840.8  157.32
 12.1276  24851.6  157.272
 12.1696  24849  156.385
 12.2116  25051.5  157.012
 12.2536  24881.3  157.323
 12.2956  24709.1  156.106
 12.3376  24494.4  155.644
 12.3796  24669  156.642
 12.4216  24594.5  155.632
 12.4636  24504.4  156.261
 12.5056  24429.1  155.301
 12.5476  24646.2  155.511
 12.5896  24763.6  156.518
 12.6316  24383.4  155.479
 12.6736  24288.7  155.655
 12.7156  24318.8  155.618
 12.7576  24552.5  156.599
 12.7996  24594.8  155.373
 12.8416  24470.7  156.045
 12.8836  24908.2  157.257
 12.9256  24952.8  156.396
 12.9676  25274.2  157.837
 13.0096  24743.8  157.274
 13.0516  24978  157.044
 13.0936  24961.9  157.407
 13.1356  25411  157.783
 13.1776  25107.9  157.833
 13.2196  25125.4  157.546
 13.2616  25034.2  157.568
 13.3036  24979.9  157.378
 13.3456  25011.3  157.826
 13.3876  24907.6  156.79
 13.4296  25111.7  157.581
 13.4716  25145.7  157.295
 13.5136  25092  157.279
 13.5556  25129.1  158.005
 13.5976  25042.3  157.895
 13.6396  25403.9  158.382
 13.6816  24946.1  157.447
 13.7236  25838.6  159.883
 13.7656  24891.6  157.465
 13.8076  24971.8  156.489
 13.8496  24541.9  155.739
 13.8916  24646.8  157.087
 13.9336  24787.8  156.749
 13.9756  24558.9  155.375
 14.0176  24573.3  156.1
 14.0596  24537.1  155.955
 14.1016  24219.3  155.337
 14.1436  23887.5  153.404
 14.1856  23578.2  152.695
 14.2276  23499.6  152.934
 14.2696  23768.1  153.641
 14.3116  23391.8  152.321
 14.3536  22934.2  150.997
 14.3956  22970.5  150.838
 14.4376  23307.4  151.723
 14.4796  23052.1  150.886
 14.5216  22666.2  150.42
 14.5636  22577.8  149.678
 14.6056  22697.3  149.662
 14.6476  22629.7  148.655
 14.6896  22198.9  147.777
 14.7316  21909.6  147.85
 14.7736  21759.6  146.479
 14.8156  21764.5  146.536
 14.8576  21568.9  145.723
 14.8996  21183.7  145.634
 14.9416  20760.5  144.169
 14.9836  20932.2  144.735
 15.0256  20716.1  142.891
 15.0676  20699.4  143.153
 15.1096  20512.1  142.238
 15.1516  20250.7  141.882
 15.1936  20254.4  141.326
 15.2356  20081.8  141.004
 15.2776  19826  139.681
 15.3196  19413.7  139.231
 15.3616  19524.3  139.392
 15.4036  19268.4  138.322
 15.4456  19579.2  139.081
 15.4876  19208.9  137.436
 15.5296  19242.8  137.839
 15.5716  18947  136.377
 15.6136  18804.7  136.188
 15.6556  18995.3  136.11
 15.6976  18745  135.503
 15.7396  18593.3  135.364
 15.7816  18449.1  134.331
 15.8236  18128.2  133.875
 15.8656  18335.1  134.417
 15.9076  18005.3  133.027
 15.9496  17850.3  135.257
 15.9916  18039.3  136.41
 16.0336  17653.1  131.836
 16.0756  17740.3  132.473
 16.1176  17642.4  132.184
 16.1596  17131.9  131.436
 16.2016  17523  131.655
 16.2436  17247.4  131.007
 16.2856  17211  130.41
 16.3276  16808.6  129.291
 16.3696  17204.8  130.628
 16.4116  16784.9  129.485
 16.4536  17018.3  130.17
 16.4956  16939.8  129.598
 16.5376  17049.8  130.198
 16.5796  16777.8  128.523
 16.6216  16830.1  129.029
 16.6636  16714.4  128.736
 16.7056  16862.1  129.174
 16.7476  16732.8  128.199
 16.7896  16638  128.592
 16.8316  16745.9  128.965
 16.8736  16680.9  128.981
 16.9156  16779.5  129.704
 16.9576  16565.7  129.664
 16.9996  16577.2  130.21
 17.0416  16689.6  128.957
 17.0836  16314.7  127.267
 17.1256  16338.4  127.372
 17.1676  16503.9  127.998
 17.2096  16063.3  126.165
 17.2516  15969  125.575
 17.2936  16160.4  126.666
 17.3356  15679.3  124.765
 17.3776  15959.5  126.063
 17.4196  15842.1  125.281
 17.4616  15749.9  124.842
 17.5036  15608.6  124.643
 17.5456  15358.2  124.289
 17.5876  15563.9  124.154
 17.6296  15461.1  123.559
 17.6716  15402.9  123.906
 17.7136  15225  123.339
 17.7556  15133.2  123.253
 17.7976  15314.5  123.726
 17.8396  15107.6  122.383
 17.8816  15233.1  123.432
 17.9236  15141.5  122.877
 17.9656  15251.8  123.876
 18.0076  15328  123.765
 18.0496  15370.2  123.048
 18.0916  15744  125.102
 18.1336  15480.4  124.138
 18.1756  15535.6  123.879
 18.2176  15319.5  123.247
 18.2596  15164.6  122.348
 18.3016  15274.2  123.049
 18.3436  15280.7  123.08
 18.3856  15005.5  122.112
 18.4276  15030.7  121.871
 18.4696  15015.2  121.924
 18.5116  15016.6  122.214
 18.5536  15048  122.714
 18.5956  14773.6  121.132
 18.6376  14706.3  121.259
 18.6796  14674.2  120.442
 18.7216  14856.3  121.681
 18.7636  14654.4  120.855
 18.8056  14587.1  120.51
 18.8476  14494.5  120.768
 18.8896  14636.7  120.677
 18.9316  14756.5  121.16
 18.9736  14650.2  120.407
 19.0156  14632.9  120.742
 19.0576  14527.3  119.163
 19.0996  14724.4  120.695
 19.1416  14385.5  119.692
 19.1836  14609.8  120.215
 19.2256  14439.8  119.731
 19.2676  14462.8  119.925
 19.3096  14579.9  120.655
 19.3516  14316  119.517
 19.3936  14397.8  119.747
 19.4356  14436.2  119.776
 19.4776  14534.5  120.29
 19.5196  14320.4  119.247
 19.5616  14289.5  119.384
 19.6036  14398.4  119.327
 19.6456  14376  119.352
 19.6876  14544.3  119.689
 19.7296  14279.6  119.057
 19.7716  14130.9  118.592
 19.8136  14495.9  120.334
 19.8556  14815.4  121.114
 19.8976  14682.3  120.636
 19.9396  14871.2  120.981
 19.9816  15071.9  122.04
 20.0236  15041.6  122.141
 20.0656  14920  121.639
 20.1076  14453  120.184
 20.1496  14265.3  119.412
 20.1916  14199.9  118.653
 20.2336  14174.5  118.466
 20.2756  13982.2  118.104
 20.3176  13694  116.628
 20.3596  13965.9  117.754
 20.4016  13818.7  116.938
 20.4436  13837.4  117.571
 20.4856  13549.7  116.139
 20.5276  13603.3  116.828
 20.5696  13763.8  116.973
 20.6116  13520.7  116.213
 20.6536  13631.1  116.185
 20.6956  13404.2  115.342
 20.7376  13566.1  116.268
 20.7796  13455.6  115.471
 20.8216  13524.2  115.477
 20.8636  13394.7  115.293
 20.9056  13617.1  116.187
 20.9476  13288.7  114.626
 20.9896  13697.5  116.24
 21.0316  13693.7  116.118
 21.0736  13333.1  115.103
 21.1156  13486.1  115.918
 21.1576  13433.6  115.748
 21.1996  13478.6  115.915
 21.2416  13229  114.674
 21.2836  13401.2  115.377
 21.3256  13195.6  114.58
 21.3676  13378.5  114.908
 21.4096  13366.3  115.172
 21.4516  13106.3  113.925
 21.4936  12940.1  113.439
 21.5356  13289.5  114.913
 21.5776  13320.7  114.886
 21.6196  13255.5  114.632
 21.6616  13124.8  114.157
 21.7036  13134.9  113.988
 21.7456  13042.6  113.656
 21.7876  13136.2  113.808
 21.8296  13071.8  113.388
 21.8716  13046.2  113.501
 21.9136  13232.2  114.518
 21.9556  13085.5  113.55
 21.9976  12926.5  112.865
 22.0396  12964  113.294
 22.0816  13022.6  114.105
 22.1236  13045.4  113.65
 22.1656  13078.8  113.924
 22.2076  13136.3  113.632
 22.2496  13006.4  113.086
 22.2916  13087.4  113.318
 22.3336  12980  113.585
 22.3756  13030.8  113.532
 22.4176  13019.1  113.337
 22.4596  12874.8  113.309
 22.5016  13048.7  113.548
 22.5436  13016.9  113.299
 22.5856  12955.4  113.273
 22.6276  12897.8  113.148
 22.6696  12861.3  113.357
 22.7116  12960.8  113.286
 22.7536  12997.3  113.432
 22.7956  12916.6  112.393
 22.8376  12832.1  112.569
 22.8796  12863.2  112.496
 22.9216  13139  114.262
 22.9636  12813.9  111.976
 23.0056  13023.1  113.022
 23.0476  12975  113.39
 23.0896  13265.3  114.019
 23.1316  13164.2  114.025
 23.1736  12888.2  115.802
 23.2156  13080.5  114.013
 23.2576  12894.5  113.326
 23.2996  12904.3  113.162
 23.3416  12806.4  113.248
 23.3836  12791.1  112.414
 23.4256  12873.3  112.884
 23.4676  12836.1  112.421
 23.5096  12730.2  112.638
 23.5516  12721.5  111.878
 23.5936  12742.8  112.88
 23.6356  12979  113.567
 23.6776  12962.1  113.719
 23.7196  12670.7  112.013
 23.7616  12898.1  112.932
 23.8036  12888.9  112.932
 23.8456  12834.4  112.263
 23.8876  12452  110.922
 23.9296  12548.5  111.846
 23.9716  12633.2  111.414
 24.0136  12705.2  112.643
 24.0556  12650.8  112.129
 24.0976  12330  110.502
 24.1396  12435.2  113.635
 24.1816  12428.7  112.017
 24.2236  12367.4  111.333
 24.2656  12250.8  110.277
 24.3076  12196.5  110.283
 24.3496  12314.9  110.702
 24.3916  12216.5  110.317
 24.4336  12200  110.45
 24.4756  12034.7  109.569
 24.5176  12075.8  109.401
 24.5596  11871.6  108.6
 24.6016  11721.3  108.196
 24.6436  11987.9  108.896
 24.6856  11907.5  108.299
 24.7276  11875.3  108.461
 24.7696  11762.9  108.072
 24.8116  11672.9  107.829
 24.8536  11603.7  107.51
 24.8956  11696.6  107.68
 24.9376  11369.5  106.102
 24.9796  11485.2  106.995
 25.0216  11490.2  107.135
 25.0636  11629.4  107.428
 25.1056  11233.8  106.287
 25.1476  11524.4  109.34
 25.1896  11593.4  108.121
 25.2316  11659.5  107.696
 25.2736  11515.6  106.669
 25.3156  11483.4  106.611
 25.3576  11418.7  106.733
 25.3996  11444.1  106.828
 25.4416  11471.2  106.939
 25.4836  11246  106.412
 25.5256  11381.1  106.404
 25.5676  11393.8  106.183
 25.6096  11204.8  105.883
 25.6516  11304  105.837
 25.6936  11184.7  105.604
 25.7356  11162.7  105.633
 25.7776  11342.3  106.085
 25.8196  11161.6  105.468
 25.8616  11283.5  105.963
 25.9036  11339  105.685
 25.9456  11233.6  105.791
 25.9876  11240.1  105.89
 26.0296  11246.1  105.418
 26.0716  11133.6  105.323
 26.1136  11195.8  105.553
 26.1556  11336.2  105.593
 26.1976  11057.1  105.213
 26.2396  11264.7  105.337
 26.2816  11198.9  105.638
 26.3236  11185.4  105.739
 26.3656  11101.5  105.069
 26.4076  11142.4  105.477
 26.4496  11671.8  107.381
 26.4916  11242.5  105.44
 26.5336  11088.5  105.039
 26.5756  11661.3  107.526
 26.6176  11101.3  105.009
 26.6596  10834.1  104.047
 26.7016  10911  104.166
 26.7436  10862.5  104.073
 26.7856  10850.6  103.998
 26.8276  10817.7  103.795
 26.8696  10963  104.362
 26.9116  10836.2  103.691
 26.9536  10792.4  103.535
 26.9956  10794.8  103.581
 27.0376  10775.9  103.702
 27.0796  10688.8  103.012
 27.1216  10702.9  103.164
 27.1636  10601.9  102.839
 27.2056  10670  103.052
 27.2476  10654.4  102.978
 27.2896  10657.5  103.102
 27.3316  10663.8  102.84
 27.3736  10598.5  102.795
 27.4156  10475.2  102.041
 27.4576  10604  102.896
 27.4996  10574.1  102.347
 27.5416  10471.1  102.165
 27.5836  10483.4  102.038
 27.6256  10846.8  103.949
 27.6676  10837.5  103.932
 27.7096  10409.8  101.733
 27.7516  10536.3  102.499
 27.7936  10473.8  102.372
 27.8356  10530.4  102.259
 27.8776  10446.7  101.899
 27.9196  10395.5  101.497
 27.9616  10440  101.902
 28.0036  10405.9  101.712
 28.0456  10421.9  101.923
 28.0876  10257.6  101.206
 28.1296  10399.3  101.742
 28.1716  10295.8  101.243
 28.2136  10262.2  101.048
 28.2556  10125.4  100.486
 28.2976  10199.3  100.84
 28.3396  10309.2  101.144
 28.3816  10231.1  100.778
 28.4236  10235.4  100.953
 28.4656  10061.3  100.129
 28.5076  10138.7  100.144
 28.5496  10083.7  100.136
 28.5916  10159.8  100.317
 28.6336  10012.7  99.9378
 28.6756  10227.9  100.193
 28.7176  10098.9  100.111
 28.7596  10071.8  99.8754
 28.8016  10145.4  100.267
 28.8436  9922.27  99.4075
 28.8856  10060.7  99.9438
 28.9276  10071.7  100.251
 28.9696  10019.7  99.6399
 29.0116  9998.3  99.7336
 29.0536  9876.63  99.3175
 29.0956  9964.66  99.482
 29.1376  9808.92  98.6605
 29.1796  9931.95  99.3179
 29.2216  9833.44  98.667
 29.2636  9911.71  99.1332
 29.3056  9907.78  98.9066
 29.3476  9903.33  99.4129
 29.3896  9943.48  99.7142
 29.4316  10081.2  99.7241
 29.4736  9891.86  98.8545
 29.5156  9947.96  99.0438
 29.5576  9797.61  99.0348
 29.5996  9924.01  98.9259
 29.6416  9908.65  98.9591
 29.6836  9931.36  99.0098
 29.7256  9829.52  99.0687
 29.7676  9896.13  99.0679
 29.8096  9774.3  98.3918
 29.8516  9796.47  98.8466
 29.8936  9830.33  99.1054
 29.9356  9881.34  99.1152
 29.9776  9694.27  98.3284
 30.0196  9777.86  98.1239
 30.0616  9786.57  98.5544
 30.1036  9812.19  98.4987
 30.1456  9770.77  98.5415
 30.1876  9755.26  98.4257
 30.2296  9664.69  97.9258
 30.2716  9714.2  97.8076
 30.3136  9664.63  98.4147
 30.3556  9843.01  99.3416
 30.3976  9717.1  100.239
 30.4396  9784.29  97.9021
 30.4816  9716.27  97.1529
 30.5236  9582.48  96.5017
 30.5656  9652.33  97.5116
 30.6076  9712.36  97.2391
 30.6496  9705.02  97.5924
 30.6916  9652.41  97.4225
 30.7336  9608.83  97.3555
 30.7756  9628.59  97.5494
 30.8176  9572.12  97.1772
 30.8596  9588.24  97.0278
 30.9016  9580.04  97.3297
 30.9436  9693.06  97.6493
 30.9856  9490.69  96.7321
 31.0276  9659.01  97.1892
 31.0696  9378.63  96.3467
 31.1116  9601.21  97.4595
 31.1536  9586.06  97.2651
 31.1956  9465.03  96.7369
 31.2376  9534.97  97.1043
 31.2796  9502.8  96.4687
 31.3216  9411.86  95.9539
 31.3636  9472.85  96.9435
 31.4056  9474.87  98.2888
 31.4476  9403.13  95.7833
 31.4896  9310.58  95.8123
 31.5316  9496.77  96.1539
 31.5736  9634.15  96.6654
 31.6156  9438.09  95.6999
 31.6576  9587.06  96.5514
 31.6996  9335.5  94.9488
 31.7416  9319.5  95.9288
 31.7836  9500.05  95.8599
 31.8256  9349.55  95.3745
 31.8676  9600.77  96.6361
 31.9096  9355.19  95.7565
 31.9516  9230.29  95.2717
 31.9936  9160.05  94.7309
 32.0356  9214.11  95.0828
 32.0776  9317.82  95.4999
 32.1196  9309.16  95.5371
 32.1616  9482.14  95.8782
 32.2036  9199.25  94.9556
 32.2456  9323.91  95.9775
 32.2876  9240.28  95.0397
 32.3296  9162.92  94.6055
 32.3716  9287.86  95.3462
 32.4136  9282.76  95.5592
 32.4556  9331.2  95.1622
 32.4976  9353.44  95.1918
 32.5396  9312.02  95.0534
 32.5816  9130.25  94.2439
 32.6236  9227.76  94.8113
 32.6656  9350.52  95.9901
 32.7076  9164.09  94.683
 32.7496  9256.09  94.8105
 32.7916  9272.84  94.8645
 32.8336  9234.68  94.7603
 32.8756  9312.82  94.8913
 32.9176  9075.32  94.1512
 32.9596  9041.98  94.0558
 33.0016  9172.57  94.5234
 33.0436  9235.67  95.0282
 33.0856  9178.43  94.8018
 33.1276  8921.5  93.1922
 33.1696  9193.28  94.4484
 33.2116  9134.74  94.3631
 33.2536  9207.4  94.7496
 33.2956  9151.98  94.5442
 33.3376  9071.16  93.8721
 33.3796  9157.92  94.5234
 33.4216  9229.12  94.4805
 33.4636  9044.81  93.6793
 33.5056  9054.5  93.9647
 33.5476  8920.68  93.2686
 33.5896  9152.46  94.2378
 33.6316  8966.11  93.5977
 33.6736  8829.81  93.125
 33.7156  9027.31  94.2074
 33.7576  9128.25  94.3487
 33.7996  9046.15  93.6914
 33.8416  8857.33  92.8884
 33.8836  9005.67  93.439
 33.9256  8876.91  92.834
 33.9676  8982.52  93.2789
 34.0096  8864.82  92.9812
 34.0516  8892.66  92.765
 34.0936  8837.33  92.7375
 34.1356  9021.37  93.44
 34.1776  8876.47  92.7
 34.2196  8871.56  92.8545
 34.2616  8778.7  92.4984
 34.3036  8847.51  93.1164
 34.3456  8790.25  92.5648
 34.3876  8790.36  92.5295
 34.4296  8864.05  92.6102
 34.4716  8801.57  92.4261
 34.5136  8854.8  92.9121
 34.5556  8767.9  92.7128
 34.5976  8838.37  92.8839
 34.6396  8864.94  92.7339
 34.6816  8764  92.3186
 34.7236  8751.1  92.0325
 34.7656  8799.84  92.4717
 34.8076  8758.35  92.596
 34.8496  8629.52  91.7614
 34.8916  8844.74  92.7753
 34.9336  8905.22  93.0535
 34.9756  8786.91  92.3488
 35.0176  8797.7  92.9451
 35.0596  8651.67  91.9939
 35.1016  8715.79  92.0995
 35.1436  8787.89  92.1675
 35.1856  8604.86  91.3292
 35.2276  8679.03  91.8996
 35.2696  8729.3  92.3543
 35.3116  8762.87  92.6255
 35.3536  8637.63  91.669
 35.3956  8678.88  91.593
 35.4376  8630.75  91.8882
 35.4796  8637.77  92.0017
 35.5216  8585.56  91.6843
 35.5636  8406.64  91.4644
 35.6056  8619.82  91.6224
 35.6476  8590.72  91.3624
 35.6896  8695.32  92.0025
 35.7316  8560.16  91.2581
 35.7736  8558.05  91.4519
 35.8156  8558.47  91.4439
 35.8576  8586.04  91.8548
 35.8996  8672.32  92.2861
 35.9416  8550.75  91.1291
 35.9836  8486.21  91.1384
 36.0256  8671.54  92.1483
 36.0676  8681.42  91.9494
 36.1096  8452.3  90.8655
 36.1516  8545.28  91.2566
 36.1936  8535.16  91.0549
 36.2356  8574.75  91.9085
 36.2776  8519.62  91.0974
 36.3196  8557.09  90.9554
 36.3616  8554.78  91.0725
 36.4036  8543.08  91.066
 36.4456  8517.55  91.1407
 36.4876  8411  90.5167
 36.5296  8455.62  90.7951
 36.5716  8496.96  91.8105
 36.6136  8697.62  91.6296
 36.6556  8641.14  91.5451
 36.6976  8504.37  91.3131
 36.7396  8544.8  91.2521
 36.7816  8483.17  91.3085
 36.8236  8459.78  91.0935
 36.8656  8482.28  91.3023
 36.9076  8390.86  90.6749
 36.9496  8298.59  90.1745
 36.9916  8319.01  89.9067
 37.0336  8615.67  91.8265
 37.0756  8422.07  90.5687
 37.1176  8328.87  90.3398
 37.1596  8453.59  91.0051
 37.2016  8406.99  90.998
 37.2436  8599.27  91.3332
 37.2856  8364.16  90.3248
 37.3276  8468.08  90.2347
 37.3696  8232.33  89.8517
 37.4116  8406.47  90.7138
 37.4536  8421.07  90.652
 37.4956  8171.93  89.3471
 37.5376  8326.3  91.7544
 37.5796  8312.46  91.6437
 37.6216  8217.26  89.3738
 37.6636  8226.88  89.3254
 37.7056  8165.51  89.1879
 37.7476  8264.09  89.2555
 37.7896  8234.76  89.5874
 37.8316  8074.75  88.9006
 37.8736  8263.46  89.4525
 37.9156  8207.61  89.1513
 37.9576  8307.6  89.579
 37.9996  8159.32  88.4904
 38.0416  8228.37  89.6864
 38.0836  8283.16  89.8915
 38.1256  8245.6  89.6323
 38.1676  7954.97  88.1867
 38.2096  8205.48  89.1783
 38.2516  8317.88  90.0038
 38.2936  8193.48  89.117
 38.3356  8314.65  89.6837
 38.3776  8100.46  88.8056
 38.4196  8141.29  88.8839
 38.4616  8198.39  89.428
 38.5036  8216.61  89.369
 38.5456  8229.21  90.2814
 38.5876  8157.19  89.9129
 38.6296  8079.57  88.4453
 38.6716  8012.38  87.8696
 38.7136  8041.41  87.9682
 38.7556  7935.08  87.8909
 38.7976  8176.43  89.1565
 38.8396  7996.47  88.6233
 38.8816  7943.48  88.0993
 38.9236  7959.62  88.0091
 38.9656  8202.69  89.2555
 39.0076  7955.1  87.3052
 39.0496  7964.71  87.8951
 39.0916  8041.75  87.9576
 39.1336  8051.31  88.4338
 39.1756  8001.48  88.2284
 39.2176  8040.27  88.9749
 39.2596  7956.24  88.432
 39.3016  7942.79  87.9303
 39.3436  8018.33  88.7756
 39.3856  8103.89  88.6911
 39.4276  8142.1  89.3979
 39.4696  7950.94  87.969
 39.5116  7908.61  88.2521
 39.5536  8157.07  90.0653
 39.5956  8117.09  88.9295
 39.6376  8208.3  89.4398
 39.6796  8144.04  88.8145
 39.7216  8127.74  88.84
 39.7636  8132.59  89.436
 39.8056  8060.3  88.8233
 39.8476  8061.53  89.0795
 39.8896  8058.85  88.6905
 39.9316  7905.95  88.1009
 39.9736  8154.33  89.0247
 40.0156  8066.55  88.3688
 40.0576  8018.33  88.4696
 40.0996  8214.52  88.7237
 40.1416  8029.24  88.5082
 40.1836  8114.8  88.877
 40.2256  8071.95  88.6844
 40.2676  8022.52  88.5222
 40.3096  8165.94  89.2226
 40.3516  8168.45  89.3525
 40.3936  8246.51  89.332
 40.4356  8158.27  89.041
 40.4776  8173.12  89.55
 40.5196  8128.92  89.4346
 40.5616  8145.68  89.163
 40.6036  8196.36  89.6994
 40.6456  8209.54  89.377
 40.6876  8256.9  89.6057
 40.7296  8128.67  89.0564
 40.7716  8129.38  89.1915
 40.8136  8127.48  89.1157
 40.8556  8129.2  89.2688
 40.8976  8068.89  88.8554
 40.9396  7974.98  88.6891
 40.9816  8118.74  88.7621
 41.0236  8164.79  88.7913
 41.0656  8164.54  89.3311
 41.1076  8188.37  89.2294
 41.1496  8113.89  88.7367
 41.1916  8082.94  88.8876
 41.2336  8129.05  89.1363
 41.2756  8041.48  88.2541
 41.3176  8054.46  88.9432
 41.3596  8100.29  88.9277
 41.4016  8108.27  89.2314
 41.4436  8145.69  89.2237
 41.4856  8180.12  89.5716
 41.5276  8149.51  89.4263
 41.5696  8143.22  89.013
 41.6116  8017.4  88.7262
 41.6536  8199.75  89.5861
 41.6956  8119.57  89.1978
 41.7376  8178.14  89.5467
 41.7796  8000.46  88.4576
 41.8216  8146.69  89.4995
 41.8636  8083.22  89.0854
 41.9056  8031.83  88.5901
 41.9476  8092.67  89.1668
 41.9896  8039.7  88.5347
 42.0316  8096.52  88.9289
 42.0736  8132.07  89.2397
 42.1156  7997.53  88.3338
 42.1576  7988.33  88.3784
 42.1996  8058.09  88.911
 42.2416  8043.97  88.4109
 42.2836  7994.33  88.2526
 42.3256  8002.67  88.4113
 42.3676  8069.96  88.5836
 42.4096  8153.82  89.0087
 42.4516  7971.26  88.0886
 42.4936  7952.3  88.0583
 42.5356  7921.55  88.0197
 42.5776  8120.07  89.0574
 42.6196  8044.43  88.6912
 42.6616  7819.8  87.6206
 42.7036  8035.66  88.1965
 42.7456  8071.36  88.7569
 42.7876  7880.12  87.7984
 42.8296  8028.35  88.455
 42.8716  7852.57  87.6354
 42.9136  7918.59  87.7916
 42.9556  8048.42  88.646
 42.9976  8043.19  88.5723
 43.0396  8015.81  88.1501
 43.0816  7951.35  88.17
 43.1236  7895.14  87.9279
 43.1656  7945.63  88.0379
 43.2076  7874.46  87.7509
 43.2496  7925.27  87.844
 43.2916  7864.98  87.8752
 43.3336  7971.39  88.3032
 43.3756  7917.38  87.752
 43.4176  7761.43  86.9682
 43.4596  7786.59  86.9653
 43.5016  7853  87.7416
 43.5436  7880.56  87.7985
 43.5856  7919.21  88.0403
 43.6276  7756.58  87.0231
 43.6696  7848.14  87.8
 43.7116  7793.75  86.9875
 43.7536  7797.51  87.4921
 43.7956  7713.66  88.2245
 43.8376  7781.44  87.1324
 43.8796  7743.24  87.0052
 43.9216  7845.77  87.4942
 43.9636  7778.83  87.239
 44.0056  7763.46  87.3764
 44.0476  7781.15  87.1087
 44.0896  7650.18  86.7127
 44.1316  7816.19  87.166
 44.1736  7642.49  86.3081
 44.2156  7803.43  87.0574
 44.2576  7702.45  86.8356
 44.2996  7780.24  87.2355
 44.3416  7782.23  87.0153
 44.3836  7528.09  85.9058
 44.4256  7525.32  85.5416
 44.4676  7781.76  87.1396
 44.5096  7805.57  87.4202
 44.5516  7550.72  85.9452
 44.5936  7576.26  86.0426
 44.6356  7666.28  86.2888
 44.6776  7769.87  87.1873
 44.7196  7705.9  87.1494
 44.7616  7597.52  87.8592
 44.8036  7450.37  85.453
 44.8456  7550.37  86.2273
 44.8876  7604.13  86.3837
 44.9296  7650.35  86.0955
 44.9716  7570.88  86.066
 45.0136  7573.03  86.0219
 45.0556  7642.18  86.388
 45.0976  7624.34  86.4589
 45.1396  7438.88  85.1585
 45.1816  7454.29  85.1814
 45.2236  7637.15  86.115
 45.2656  7422.02  85.3874
 45.3076  7540.43  85.8634
 45.3496  7409.44  85.414
 45.3916  7517.1  86.2966
 45.4336  7486.63  85.9631
 45.4756  7533.26  86.0797
 45.5176  7476.16  85.377
 45.5596  7525.58  85.7807
 45.6016  7351.39  85.1997
 45.6436  7565.56  85.5985
 45.6856  7406.74  85.3611
 45.7276  7456.67  86.9658
 45.7696  7475.93  86.7337
 45.8116  7443.57  85.9763
 45.8536  7357.15  85.3715
 45.8956  7525.23  85.6879
 45.9376  7456.41  84.7604
 45.9796  7567.22  86.0764
 46.0216  7525.37  86.1872
 46.0636  7558.95  85.517
 46.1056  7489.91  85.1091
 46.1476  7499.68  85.7591
 46.1896  7451.01  85.6346
 46.2316  7375.1  85.0644
 46.2736  7263.36  84.7837
 46.3156  7411.55  85.2295
 46.3576  7438.83  85.5908
 46.3996  7407.47  85.5641
 46.4416  7426.38  85.2558
 46.4836  7370.96  85.2924
 46.5256  7403.09  85.4151
 46.5676  7388.36  85.4448
 46.6096  7518.81  86.1316
 46.6516  7462.11  84.8429
 46.6936  7329.77  84.5744
 46.7356  7455.63  85.4154
 46.7776  7403.33  85.9609
 46.8196  7288.59  84.8858
 46.8616  7149.28  84.0205
 46.9036  7265.72  84.3515
 46.9456  7291.62  84.146
 46.9876  7296.78  84.2649
 47.0296  7260.4  84.7436
 47.0716  7161.45  83.9825
 47.1136  7225.17  84.034
 47.1556  7180.69  83.6394
 47.1976  7322.55  84.554
 47.2396  7285.92  84.7347
 47.2816  7144.78  83.6017
 47.3236  7248.46  84.5829
 47.3656  7242.56  84.48
 47.4076  7161.35  83.8168
 47.4496  7163.81  83.9258
 47.4916  7158.44  84.0746
 47.5336  7298.87  84.7161
 47.5756  7240.12  84.486
 47.6176  7124.77  83.7066
 47.6596  7259.13  84.2055
 47.7016  7213.44  83.7601
 47.7436  7239.55  84.248
 47.7856  7218.94  84.1621
 47.8276  7123.81  83.6578
 47.8696  7198.33  84.1781
 47.9116  7199.25  83.8912
 47.9536  7226.48  83.9931
 47.9956  7099.61  83.9562
 48.0376  7108.56  83.7758
 48.0796  7157.75  84.2
 48.1216  7314.51  84.9245
 48.1636  7337.1  84.6361
 48.2056  7202.47  84.1222
 48.2476  7267.47  84.8106
 48.2896  7174.74  84.1787
 48.3316  7152.08  83.9796
 48.3736  7036.21  83.3263
 48.4156  7066.49  83.3601
 48.4576  7102.63  83.862
 48.4996  7186.2  83.8045
 48.5416  7166.06  84.021
 48.5836  7096.07  83.2837
 48.6256  7101.61  83.5259
 48.6676  7096.13  83.9957
 48.7096  7057.83  83.0502
 48.7516  7176.75  83.8977
 48.7936  7055.31  83.2451
 48.8356  7045.41  83.2343
 48.8776  7143.73  84.3842
 48.9196  7156.67  83.8299
 48.9616  7062.12  83.657
 49.0036  7075.64  84.0886
 49.0456  7004.75  83.6464
 49.0876  7093.48  83.7121
 49.1296  6925.74  82.8693
 49.1716  6891.77  82.536
 49.2136  7030.47  83.293
 49.2556  7008.84  83.1911
 49.2976  7040.87  83.4593
 49.3396  6956.31  83.0126
 49.3816  7118.81  83.4084
 49.4236  7026.31  83.2772
 49.4656  6924.6  82.6968
 49.5076  6990.31  82.8375
 49.5496  6934.19  82.561
 49.5916  7017.21  82.9777
 49.6336  6986.69  82.9873
 49.6756  7004.25  83.3358
 49.7176  6904.13  82.6744
 49.7596  6929.42  82.5976
 49.8016  7047.46  83.2173
 49.8436  6888.34  82.5613
 49.8856  6954.04  82.9714
 49.9276  6861.83  82.5105
 49.9696  6963.86  83.1112
 50.0116  6936.11  83.0729
 50.0536  6888.58  82.7403
 50.0956  6914.06  82.9636
 50.1376  6900.13  82.5827
 50.1796  6885.2  82.7564
 50.2216  6883.53  82.7429
 50.2636  6804.56  81.8862
 50.3056  6817.6  82.1332
 50.3476  6933.39  82.8514
 50.3896  6863.5  82.4015
 50.4316  6801.63  81.8696
 50.4736  6868.28  82.49
 50.5156  6826.71  82.2387
 50.5576  6901.85  82.4448
 50.5996  6784.18  82.0119
 50.6416  6776.18  81.8991
 50.6836  6763.72  81.8724
 50.7256  6937.27  82.8543
 50.7676  6840.5  82.5767
 50.8096  6824.23  82.0271
 50.8516  6822.56  82.429
 50.8936  6786.36  81.9891
 50.9356  6859.7  82.5407
 50.9776  6805.72  82.3582
 51.0196  6697.36  81.8357
 51.0616  6721.34  81.3051
 51.1036  6872.07  82.5744
 51.1456  6831.92  82.2387
 51.1876  6726.35  80.9534
 51.2296  6731.26  81.6186
 51.2716  6859.49  82.094
 51.3136  6716.9  81.682
 51.3556  6654.5  80.944
 51.3976  6619.59  80.8759
 51.4396  6612.96  81.1364
 51.4816  6682.6  81.4119
 51.5236  6701.58  81.6106
 51.5656  6754.23  81.5416
 51.6076  6668.91  81.1009
 51.6496  6751.48  81.8032
 51.6916  6686.38  81.7519
 51.7336  6800.64  82.5515
 51.7756  6631.26  81.2102
 51.8176  6718.6  81.8461
 51.8596  6628.68  81.3175
 51.9016  6780.75  81.8509
 51.9436  6693.93  82.7911
 51.9856  6550.99  82.3259
 52.0276  6633.33  81.3653
 52.0696  6593.49  81.1762
 52.1116  6570.93  81.1589
 52.1536  6557.28  80.9636
 52.1956  6699.9  81.3051
 52.2376  6697.16  81.4588
 52.2796  6602.85  80.6981
 52.3216  6621.13  81.5008
 52.3636  6662.51  81.3311
 52.4056  6649.31  81.1061
 52.4476  6719.52  81.9034
 52.4896  6576.36  81.0764
 52.5316  6565.9  81.0584
 52.5736  6622.51  81.1274
 52.6156  6616.44  81.4641
 52.6576  6725.31  81.5826
 52.6996  6323.4  80.0602
 52.7416  6559.06  81.3888
 52.7836  6614.79  81.6019
 52.8256  6644.01  81.0213
 52.8676  6437.6  80.3259
 52.9096  6459.92  80.547
 52.9516  6465.43  80.9402
 52.9936  6461.77  81.2991
 53.0356  6412.37  79.9958
 53.0776  6465.97  80.5849
 53.1196  6420.03  80.4299
 53.1616  6399.01  80.3451
 53.2036  6309.2  79.7374
 53.2456  6406.17  80.445
 53.2876  6358.2  79.8498
 53.3296  6346.46  80.1016
 53.3716  6401.5  80.1962
 53.4136  6451.75  80.6586
 53.4556  6278.13  79.5973
 53.4976  6338.76  79.828
 53.5396  6362.34  80.364
 53.5816  6397.03  80.2217
 53.6236  6357.34  80.311
 53.6656  6318.4  79.7002
 53.7076  6482.99  80.6909
 53.7496  6366.45  80.0855
 53.7916  6566.89  81.4587
 53.8336  6369.22  80.1276
 53.8756  6267.59  80.0251
 53.9176  6351.9  79.9093
 53.9596  6421.65  81.1202
 54.0016  6326.02  79.8469
 54.0436  6360.09  80.2784
 54.0856  6497.74  80.5672
 54.1276  6399.59  80.1635
 54.1696  6394.06  80.294
 54.2116  6427.76  80.2644
 54.2536  6369.49  79.7098
 54.2956  6425.22  80.1011
 54.3376  6348.37  80.1102
 54.3796  6350.35  80.0173
 54.4216  6471.05  80.8152
 54.4636  6401.15  80.3475
 54.5056  6487.77  80.7138
 54.5476  6372.9  80.3273
 54.5896  6356.82  80.0647
 54.6316  6449.06  80.4915
 54.6736  6382.31  80.1502
 54.7156  6368.32  80.0862
 54.7576  6363.15  80.0436
 54.7996  6367.94  80.2101
 54.8416  6366.24  80.248
 54.8836  6340.55  80.2066
 54.9256  6266.96  79.4898
 54.9676  6434.3  80.4048
 55.0096  6402.23  80.2631
 55.0516  6315.5  79.9579
 55.0936  6370.45  79.9262
 55.1356  6298.49  79.5146
 55.1776  6360.75  80.1813
 55.2196  6357.05  79.9384
 55.2616  6297.36  79.7787
 55.3036  6345.4  80.2429
 55.3456  6346.5  80.3969
 55.3876  6322.89  79.9932
 55.4296  6366.34  80.2394
 55.4716  6311.4  79.9301
 55.5136  6376.75  80.0903
 55.5556  6283.87  79.5835
 55.5976  6340.63  79.997
 55.6396  6220.54  79.1866
 55.6816  6328.86  79.7497
 55.7236  6387.83  80.1608
 55.7656  6421.91  80.131
 55.8076  6404.81  80.0053
 55.8496  6257.99  79.4054
 55.8916  6242.6  79.5067
 55.9336  6209.71  79.1169
 55.9756  6241.19  79.2085
 56.0176  6230.19  79.2918
 56.0596  6385.81  80.2575
 56.1016  6361.6  80.1193
 56.1436  6171.12  79.1653
 56.1856  6273.23  79.5581
 56.2276  6316.72  79.8932
 56.2696  6219.72  79.2511
 56.3116  6187.34  79.4455
 56.3536  6297.83  79.8083
 56.3956  6324.61  79.9706
 56.4376  6368.36  80.2779
 56.4796  6331.21  79.8412
 56.5216  6286.23  79.9315
 56.5636  6326.24  79.7782
 56.6056  6241.4  79.4748
 56.6476  6254.55  79.1811
 56.6896  6336.68  80.1502
 56.7316  6215.36  79.2857
 56.7736  6193.36  79.1487
 56.8156  6321.24  79.9472
 56.8576  6216.69  79.2329
 56.8996  6220.08  79.1976
 56.9416  6299.73  80.0031
 56.9836  6186.56  78.7966
 57.0256  6168.38  79.0036
 57.0676  6224.82  79.4835
 57.1096  6288.92  79.6794
 57.1516  6365.26  80.2347
 57.1936  6257.9  79.2945
 57.2356  6274.42  79.7158
 57.2776  6352.95  80.1697
 57.3196  6291.12  80.1586
 57.3616  6198.38  79.0563
 57.4036  6272.19  79.5868
 57.4456  6244.55  79.3741
 57.4876  6266.62  79.3764
 57.5296  6187.37  79.2161
 57.5716  6160.91  79.0317
 57.6136  6225.39  79.263
 57.6556  6206.97  79.2819
 57.6976  6231.04  79.2609
 57.7396  6153.33  79.1405
 57.7816  6161.93  79.55
 57.8236  6168.9  79.3867
 57.8656  6115.42  78.7012
 57.9076  6256.66  79.6399
 57.9496  6229.27  79.8178
 57.9916  6172.14  78.9573
 58.0336  6140.96  79.0347
 58.0756  6243.1  79.3227
 58.1176  6241.2  79.3094
 58.1596  6138.42  79.2168
 58.2016  6369.02  79.9082
 58.2436  6276.93  79.7412
 58.2856  6222.17  79.3176
 58.3276  6152.94  79.2433
 58.3696  6272.34  79.7452
 58.4116  6338.32  80.0335
 58.4536  6307.26  79.7178
 58.4956  6177.13  79.0769
 58.5376  6310.17  79.4892
 58.5796  6178.39  79.0871
 58.6216  6228.02  79.2073
 58.6636  6249.05  79.5698
 58.7056  6199.56  79.1022
 58.7476  6213.83  79.644
 58.7896  6223.07  79.3377
 58.8316  6178.58  79.0476
 58.8736  6363.84  80.2381
 58.9156  6246.66  79.5369
 58.9576  6211.31  79.6422
 58.9996  6341.53  79.6867
 59.0416  6385.73  80.3465
 59.0836  6249.44  79.4112
 59.1256  6155.62  79.5125
 59.1676  6169.8  79.9102
 59.2096  6301.32  80.0805
 59.2516  6167.48  78.8021
 59.2936  6227.26  79.5162
 59.3356  6295.2  79.8239
 59.3776  6258.22  79.7612
 59.4196  6184.24  79.2227
 59.4616  6377.04  80.3051
 59.5036  6118.61  78.6967
 59.5456  6285.04  79.447
 59.5876  6373.29  80.1991
 59.6296  6351.11  80.1305
 59.6716  6148.99  78.9036
 59.7136  6364.36  80.2615
 59.7556  6179.66  79.2263
 59.7976  6206.67  79.1378
 59.8396  6267.27  79.4155
 59.8816  6305.95  80.2178
 59.9236  6261.71  79.5729
 59.9656  6132.55  79.009
 60.0076  6159.51  78.535
 60.0496  6295.48  79.9114
 60.0916  6370.14  79.7863
 60.1336  6088.18  79.1125
 60.1756  6213.39  81.1233
 60.1996  0.0000000E+00  0.0000000E+00