File: docs/examples/opeando_xrd/IS17_D/Data/IS17_D/17_Da_f00004.xye
# /beamlines/bl04/projects/cycle2025-II/20250340211-lsimonelli/DATA/IS17_D/17_Da_f00004.xye : mythproc.py merge -s 0.006 -l 0.5 -f /beamlines/bl04/inhouse/ff/FlatField/ff_20Nov2024rod8mm60s_17keV.raw -b True -c true -o xye /beamlines/bl04/projects/cycle2025-II/20250340211-lsimonelli/DATA/IS17_D/17_Da_00004.dat
# IsMon = [6775719, 6777845, 6778240]  IsPos = [-1.5000, -2.4885, -3.4988]
# Wave = 0.4962  CalPath /beamlines/bl04/projects/cycle2025-II/20250340211-lsimonelli/DATA/Align/Si_Pos1_25keV_f00001.cal
# Date = 2025-09-23_18:40:50 Dt = 4.8000  Bin = 0.0060  <imon> = 6777268 +/- 1107 (Min/Max) 6775719 / 6778240
# icurr 252.3747  mocoIn 1.7212E-05  mocoOut 0.8078  i15 7.08218e+06  imon 6.77727e+06  i7 5.6667  iEMpd_timer 4.8000  iEMpd_1 3.5059E-08  iEMpd_2 7.8672E-08  iEMpd_3 1.6381E-08  iEMpd_4 4.7094E-08  iEMhp_timer 4.8000  iEMhp_1 4.9307E-06  iEMhp_2 -2.3997E-08  iEMhp_3 -2.3973E-08  iEMhp_4 -2.1361E-08
#      9776
 1.5856  39636.2  204.456
 1.6276  47059.1  218.956
 1.6696  54609.5  235.037
 1.7116  63542.5  254.029
 1.7536  72596.5  270.367
 1.7956  77126.2  279.371
 1.8376  73405.1  272.98
 1.8796  61944.3  248.931
 1.9216  49794.1  224.067
 1.9636  42318.2  206.236
 2.0056  37305.8  192.4
 2.0476  34630.7  187.406
 2.0896  33046.1  181.995
 2.1316  32598.2  179.888
 2.1736  30727  176.035
 2.2156  31311.9  176.276
 2.2576  30039  173.275
 2.2996  28514.6  169.441
 2.3416  29064.1  169.69
 2.3836  28383  167.803
 2.4256  27573.7  165.932
 2.4676  27131.6  164.363
 2.5096  27251.4  164.78
 2.5516  26241.7  165.432
 2.5936  26390.6  162.551
 2.6356  25698.2  161.081
 2.6776  25867.5  160.507
 2.7196  25238.5  159.058
 2.7616  25263.3  158.918
 2.8036  24914.2  157.982
 2.8456  24826.7  158.314
 2.8876  24298.2  156.472
 2.9296  23911.2  155.369
 2.9716  23795.3  154.492
 3.0136  23442.2  153.408
 3.0556  23728.3  154.734
 3.0976  23527.5  153.036
 3.1396  23285.7  152.939
 3.1816  22952.8  151.781
 3.2236  23114.8  152.317
 3.2656  22994.1  150.963
 3.3076  22690.2  151.394
 3.3496  23137.1  152.077
 3.3916  23318.3  152.253
 3.4336  23859.2  154.577
 3.4756  24251.5  155.775
 3.5176  25084.6  158.22
 3.5596  24972.5  160.822
 3.6016  25258.6  158.82
 3.6436  24427.5  157.273
 3.6856  23977.5  154.129
 3.7276  22862.8  151.58
 3.7696  22820.2  151.433
 3.8116  22377.5  150.042
 3.8536  22522.1  150.463
 3.8956  22340.1  149.679
 3.9376  22193.3  149.433
 3.9796  22247.4  149.135
 4.0216  22462.3  148.895
 4.0636  22309.8  149.846
 4.1056  22369.5  149.69
 4.1476  22481  150.38
 4.1896  22609.9  150.672
 4.2316  22934.3  151.576
 4.2736  23365.5  152.777
 4.3156  23671.7  154.008
 4.3576  24295.4  155.95
 4.3996  24668.3  157.397
 4.4416  25115.7  158.405
 4.4836  25597.3  160.066
 4.5256  26043.2  162.069
 4.5676  26053.2  162.35
 4.6096  26436.8  162.567
 4.6516  27145  164.078
 4.6936  27266.8  165.254
 4.7356  27171.5  164.797
 4.7776  27232.5  164.812
 4.8196  26893.5  164.429
 4.8616  26339.6  162.343
 4.9036  26275.7  161.769
 4.9456  26100  161.864
 4.9876  25524.1  159.973
 5.0296  25835.2  160.77
 5.0716  25639.4  160.776
 5.1136  25708  160.85
 5.1556  26078.4  161.47
 5.1976  26357.9  162.335
 5.2396  26471.5  162.383
 5.2816  26537.8  163.041
 5.3236  26576.6  162.868
 5.3656  26198.7  162.617
 5.4076  25850.5  161.683
 5.4496  25966.6  161.532
 5.4916  25885.2  161.044
 5.5336  26086.6  161.673
 5.5756  25826.7  160.898
 5.6176  26164.6  161.388
 5.6596  26337.7  162.738
 5.7016  26336.5  162.157
 5.7436  26595  163.22
 5.7856  26370.8  162.589
 5.8276  26864.2  163.827
 5.8696  26904.4  164.014
 5.9116  26749.7  164.244
 5.9536  26994.5  164.749
 5.9956  27462.4  165.537
 6.0376  27209.7  165.405
 6.0796  27485.2  166.069
 6.1216  27692.4  166.897
 6.1636  27887.8  166.562
 6.2056  27951  167.404
 6.2476  28141.5  167.674
 6.2896  28360.4  168.189
 6.3316  28233.9  167.988
 6.3736  28331.4  168.167
 6.4156  28290.6  168.001
 6.4576  28549.2  168.323
 6.4996  28837.8  169.644
 6.5416  28709.1  169.403
 6.5836  28863.1  170.083
 6.6256  28875.1  169.685
 6.6676  29697.5  171.657
 6.7096  29351.3  171.5
 6.7516  29945.6  172.883
 6.7936  29901.7  172.186
 6.8356  30074.9  172.764
 6.8776  30588.3  175.027
 6.9196  30320.4  174.659
 6.9616  30917.6  175.79
 7.0036  31191.3  176.248
 7.0456  31418.4  176.189
 7.0876  31358.2  177.619
 7.1296  31364.5  176.859
 7.1716  31005.3  175.387
 7.2136  30957.1  175.035
 7.2556  31089.2  175.566
 7.2976  31286.7  176.62
 7.3396  31320.5  176.919
 7.3816  30968.1  176.141
 7.4236  31399.4  176.659
 7.4656  31490.7  176.407
 7.5076  31604.4  176.856
 7.5496  31774.7  177.865
 7.5916  31835  178.063
 7.6336  31998.1  178.415
 7.6756  32169.8  178.75
 7.7176  32532.9  180.062
 7.7596  32575  181.42
 7.8016  32773.5  184.134
 7.8436  33565.1  183.019
 7.8856  33491.2  182.435
 7.9276  34277.8  184.953
 7.9696  34377.5  185.534
 8.0116  35276.4  186.485
 8.0536  35431.3  187.152
 8.0956  35251.7  187.838
 8.1376  35828.4  188.847
 8.1796  36050  189.971
 8.2216  36898.8  190.935
 8.2636  36765.2  190.835
 8.3056  37118.8  192.522
 8.3476  37368.2  192.496
 8.3896  37519.1  192.968
 8.4316  37646.6  193.459
 8.4736  37685.1  193.025
 8.5156  37323.5  192.373
 8.5576  37018.4  192.547
 8.5996  36780.4  190.812
 8.6416  36743.4  191.973
 8.6836  36549.1  191.293
 8.7256  37240.2  192.533
 8.7676  36410.7  193.264
 8.8096  36144.1  189.909
 8.8516  35757.4  188.557
 8.8936  35699.6  188.229
 8.9356  35632.4  188.413
 8.9776  35952.8  189.35
 9.0196  35314.3  187.335
 9.0616  35552.7  187.444
 9.1036  35305.8  187.977
 9.1456  35296.1  187.301
 9.1876  35361.8  187.433
 9.2296  35593.1  187.446
 9.2716  34465.8  184.518
 9.3136  35153.4  186.328
 9.3556  34996  185.896
 9.3976  33293.6  181.841
 9.4396  33963  183.556
 9.4816  33553.4  182.31
 9.5236  33584.1  182.303
 9.5656  33075  181.235
 9.6076  33054.6  181.698
 9.6496  33047.4  181.606
 9.6916  33056.7  181.6
 9.7336  33125.5  181.573
 9.7756  32951.9  182.29
 9.8176  32233.6  179.847
 9.8596  32220.8  178.278
 9.9016  31638  176.653
 9.9436  31844.2  176.971
 9.9856  31091.8  175.252
 10.0276  30611.7  174.984
 10.0696  31059.4  175.308
 10.1116  30174.8  173.051
 10.1536  29697.5  171.365
 10.1956  29695.7  171.448
 10.2376  29148.5  169.374
 10.2796  29486.3  170.477
 10.3216  29293.2  170.033
 10.3636  28949.4  169.214
 10.4056  28787.1  169.127
 10.4476  28734.2  168.604
 10.4896  28527.3  167.46
 10.5316  27905.8  165.996
 10.5736  27810.4  166.431
 10.6156  27340.7  164.796
 10.6576  27647.5  164.312
 10.6996  27490  164.5
 10.7416  26921.7  163.022
 10.7836  27144.7  164.366
 10.8256  26696.2  163.423
 10.8676  26876.5  163.514
 10.9096  26430.9  162.198
 10.9516  26430.7  161.142
 10.9936  26405.8  161.263
 11.0356  26244.6  161.396
 11.0776  26120.1  160.332
 11.1196  25567.1  159.349
 11.1616  25514.1  158.885
 11.2036  25498.3  158.697
 11.2456  25533.1  159.498
 11.2876  25420.5  158.881
 11.3296  24885.9  157.103
 11.3716  25455  158.619
 11.4136  25483.6  159.56
 11.4556  25688  159.869
 11.4976  25914.6  159.559
 11.5396  26469.4  161.417
 11.5816  26455.4  161.833
 11.6236  26138.1  161.305
 11.6656  25799.2  159.204
 11.7076  25065.5  157.747
 11.7496  24857.2  160.976
 11.7916  24591.5  155.52
 11.8336  24318.7  155.557
 11.8756  24201.5  154.695
 11.9176  24507.8  155.328
 11.9596  24045.1  154.045
 12.0016  23938.9  154.485
 12.0436  23788.4  153.435
 12.0856  23707.2  153.687
 12.1276  23685.1  153.529
 12.1696  23651.6  152.572
 12.2116  23945.7  153.501
 12.2536  23294.2  152.196
 12.2956  23642.2  152.699
 12.3376  23305.1  151.816
 12.3796  23305.9  152.26
 12.4216  23428.4  151.892
 12.4636  23216.8  152.092
 12.5056  23533.1  152.422
 12.5476  23568.9  152.073
 12.5896  23473  152.379
 12.6316  23234.5  151.766
 12.6736  23405.1  152.794
 12.7156  23192.9  151.979
 12.7576  23417.2  152.931
 12.7996  23458  151.741
 12.8416  23150.9  151.776
 12.8836  23859.6  153.91
 12.9256  23919.3  153.125
 12.9676  24010.5  153.84
 13.0096  23806.9  154.276
 13.0516  24102.1  154.275
 13.0936  24081.6  154.325
 13.1356  24357  154.476
 13.1776  24123  154.703
 13.2196  24184.2  154.57
 13.2616  24004.4  154.297
 13.3036  24094.2  154.723
 13.3456  23913  154.124
 13.3876  24041.7  154.044
 13.4296  23819.1  153.474
 13.4716  24013.9  153.715
 13.5136  24011.3  153.851
 13.5556  23920.6  154.164
 13.5976  24214.8  155.257
 13.6396  24216.7  154.641
 13.6816  23744.9  153.48
 13.7236  24563.8  155.872
 13.7656  23877.1  154.223
 13.8076  24029.8  153.51
 13.8496  23782.6  153.494
 13.8916  23747.7  154.185
 13.9336  23659  153.131
 13.9756  23423.5  151.736
 14.0176  23487.1  152.614
 14.0596  23674.7  153.18
 14.1016  23382.8  152.629
 14.1436  23017  150.578
 14.1856  22751.9  149.996
 14.2276  22506.9  149.664
 14.2696  22871  150.711
 14.3116  22450  149.203
 14.3536  22080.9  148.167
 14.3956  22085.5  147.913
 14.4376  22180.8  148.004
 14.4796  22017.5  147.456
 14.5216  21639.2  146.975
 14.5636  21500.5  146.064
 14.6056  21601  145.998
 14.6476  21559.8  145.1
 14.6896  21295.5  144.739
 14.7316  20933.4  144.51
 14.7736  21008  143.929
 14.8156  20714  142.955
 14.8576  20696.3  142.741
 14.8996  20185.2  142.162
 14.9416  19933.8  141.268
 14.9836  20066.7  141.686
 15.0256  19921.1  140.12
 15.0676  19800.8  140.008
 15.1096  19822.6  139.826
 15.1516  19491  139.204
 15.1936  19167.9  137.48
 15.2356  19070.1  137.405
 15.2776  18974.8  136.654
 15.3196  18600.5  136.285
 15.3616  18682.1  136.341
 15.4036  18508.8  135.562
 15.4456  18680.2  135.847
 15.4876  18384.7  134.454
 15.5296  18252.6  134.254
 15.5716  18002.6  132.933
 15.6136  17925.4  132.973
 15.6556  18167.3  133.114
 15.6976  17965.8  132.448
 15.7396  17718.8  132.132
 15.7816  17532.2  130.948
 15.8236  17393.8  131.126
 15.8656  17491.5  131.285
 15.9076  17060.1  129.488
 15.9496  17119.6  132.469
 15.9916  17169.8  133.089
 16.0336  16693.1  128.194
 16.0756  17122.9  130.136
 16.1176  17024.9  129.678
 16.1596  16382.8  128.516
 16.2016  16709.5  128.552
 16.2436  16480.8  128.048
 16.2856  16215.7  126.571
 16.3276  16246.3  127.096
 16.3696  16400.6  127.523
 16.4116  16181.2  127.128
 16.4536  16442.3  127.925
 16.4956  16111.7  126.381
 16.5376  16174.8  126.801
 16.5796  16173.7  126.172
 16.6216  16152.7  126.393
 16.6636  16099.4  126.331
 16.7056  16112.4  126.253
 16.7476  15949.5  125.151
 16.7896  16074.5  126.384
 16.8316  16045.4  126.237
 16.8736  15962.9  126.172
 16.9156  16047.7  126.833
 16.9576  15916  127.101
 16.9996  15904  127.532
 17.0416  15840.6  125.655
 17.0836  15723.3  124.96
 17.1256  15703  124.889
 17.1676  15578.5  124.379
 17.2096  15485.3  123.889
 17.2516  15485.5  123.97
 17.2936  15343.1  123.421
 17.3356  15088.1  122.398
 17.3776  15149.1  122.83
 17.4196  15213.4  122.786
 17.4616  14855  121.258
 17.5036  14792.4  121.357
 17.5456  14686.5  121.555
 17.5876  14716.9  120.742
 17.6296  14712.3  120.53
 17.6716  14435.9  119.966
 17.7136  14247.1  119.321
 17.7556  14354.7  120.052
 17.7976  14396.7  119.839
 17.8396  14036.5  117.979
 17.8816  14299.2  119.607
 17.9236  14074.6  118.483
 17.9656  14365.6  120.392
 18.0076  14327.4  119.652
 18.0496  14123.3  117.952
 18.0916  14259.7  119.046
 18.1336  14102.8  118.489
 18.1756  14336.7  119.001
 18.2176  13986.5  117.766
 18.2596  14012.3  117.613
 18.3016  14116.3  118.299
 18.3436  14259.9  119.131
 18.3856  13714.7  116.738
 18.4276  14001.7  117.636
 18.4696  13963.1  117.567
 18.5116  14051.4  118.223
 18.5536  13994.1  118.334
 18.5956  13729.3  116.769
 18.6376  13754.3  117.276
 18.6796  13814.6  116.875
 18.7216  13934.5  117.926
 18.7636  13593.6  116.388
 18.8056  13760  117.042
 18.8476  13738.8  117.565
 18.8896  13778.6  117.079
 18.9316  13820.6  117.082
 18.9736  13769.3  116.731
 19.0156  13601.5  116.413
 19.0576  13543.4  115.06
 19.0996  13715.3  116.486
 19.1416  13503.4  115.962
 19.1836  13635.5  116.136
 19.2256  13472.3  115.647
 19.2676  13529.9  115.991
 19.3096  13687.2  116.897
 19.3516  13501  115.891
 19.3936  13511.8  116.009
 19.4356  13573.4  116.153
 19.4776  13554.7  116.165
 19.5196  13509  115.815
 19.5616  13498.3  116.024
 19.6036  13527.8  115.654
 19.6456  13641.1  116.26
 19.6876  13616.2  115.805
 19.7296  13490.9  115.724
 19.7716  13507.2  115.808
 19.8136  13760.8  117.245
 19.8556  14010.1  117.781
 19.8976  13815.3  117.021
 19.9396  14044.7  117.566
 19.9816  14116  118.097
 20.0236  14205.7  118.699
 20.0656  14566.4  120.185
 20.1076  14248.9  119.341
 20.1496  14240.7  119.311
 20.1916  14088.7  118.143
 20.2336  13838.2  117.061
 20.2756  13739.3  117.073
 20.3176  13488.4  115.749
 20.3596  13494.8  115.752
 20.4016  13411.6  115.201
 20.4436  13370.1  115.579
 20.4856  13155.1  114.438
 20.5276  13200  115.08
 20.5696  13229.6  114.777
 20.6116  12899.9  113.51
 20.6536  13122.5  114.052
 20.6956  12928.6  113.273
 20.7376  12988.8  113.766
 20.7796  12844.3  112.823
 20.8216  13115.7  113.721
 20.8636  12815.6  112.776
 20.9056  12945.7  113.296
 20.9476  12708.4  112.095
 20.9896  12883.2  112.734
 21.0316  12993.2  113.11
 21.0736  12782.8  112.705
 21.1156  12845  113.127
 21.1576  12819.9  113.069
 21.1996  12813.2  113.02
 21.2416  12541.9  111.655
 21.2836  12733.5  112.468
 21.3256  12699.5  112.403
 21.3676  12815.6  112.467
 21.4096  12708.2  112.351
 21.4516  12514.4  111.323
 21.4936  12522.9  111.603
 21.5356  12613  111.955
 21.5776  12578.9  111.64
 21.6196  12419  110.964
 21.6616  12455.2  111.205
 21.7036  12596.9  111.624
 21.7456  12616.6  111.784
 21.7876  12483.8  110.949
 21.8296  12544  111.074
 21.8716  12427.5  110.784
 21.9136  12643.9  111.943
 21.9556  12469.4  110.848
 21.9976  12382.5  110.474
 22.0396  12234.5  110.06
 22.0816  12431.9  111.478
 22.1236  12491.6  111.208
 22.1656  12347.6  110.725
 22.2076  12571.1  111.157
 22.2496  12310.5  110.025
 22.2916  12401.2  110.309
 22.3336  12416.5  111.081
 22.3756  12414.5  110.816
 22.4176  12199.5  109.71
 22.4596  12372  111.065
 22.5016  12498.8  111.124
 22.5436  12439.5  110.749
 22.5856  12417.7  110.897
 22.6276  12306.2  110.532
 22.6696  12265.8  110.692
 22.7116  12147.5  109.684
 22.7536  12341.5  110.531
 22.7956  12303.4  109.699
 22.8376  12262.5  110.035
 22.8796  12372.4  110.329
 22.9216  12454.4  111.238
 22.9636  12218.3  109.34
 23.0056  12410.9  110.334
 23.0476  12462.4  111.131
 23.0896  12632  111.261
 23.1316  12524.3  111.213
 23.1736  12382.6  113.516
 23.2156  12500.8  111.449
 23.2576  12409.7  111.169
 23.2996  12522.2  111.46
 23.3416  12338.6  111.151
 23.3836  12338.6  110.392
 23.4256  12418.6  110.873
 23.4676  12378.9  110.392
 23.5096  12391.1  111.116
 23.5516  12323.7  110.099
 23.5936  12332.3  111.036
 23.6356  12475.8  111.339
 23.6776  12270.5  110.635
 23.7196  12168.4  109.971
 23.7616  12497.2  111.15
 23.8036  12260.2  110.139
 23.8456  12252.7  109.674
 23.8876  12000.3  108.887
 23.9296  11982.9  109.284
 23.9716  12081.2  108.942
 24.0136  12273  110.695
 24.0556  11980.3  109.098
 24.0976  11958.7  108.813
 24.1396  11871.7  111.028
 24.1816  11938.1  110.111
 24.2236  11785.8  108.695
 24.2656  11650.7  107.553
 24.3076  11689.5  107.971
 24.3496  11726.1  108.039
 24.3916  11694.6  107.945
 24.4336  11601.7  107.72
 24.4756  11777.8  108.406
 24.5176  11472.3  106.644
 24.5596  11457.3  106.897
 24.6016  11353  106.495
 24.6436  11423.1  106.328
 24.6856  11464.3  106.276
 24.7276  11311.4  105.874
 24.7696  11338.7  106.113
 24.8116  11247.7  105.858
 24.8536  11179.5  105.531
 24.8956  11219.4  105.472
 24.9376  11063.6  104.916
 24.9796  10991.8  104.683
 25.0216  10931.6  104.507
 25.0636  11087.6  104.905
 25.1056  11070.8  105.247
 25.1476  11080  107.187
 25.1896  11062.5  105.622
 25.2316  11173.2  105.421
 25.2736  11057.4  104.536
 25.3156  10985.5  104.267
 25.3576  10851.1  104.037
 25.3996  10973.1  104.603
 25.4416  10843  103.969
 25.4836  10641.8  103.514
 25.5256  10781.3  103.562
 25.5676  10951.5  104.107
 25.6096  10719  103.563
 25.6516  10907  103.971
 25.6936  10730.2  103.434
 25.7356  10722.9  103.53
 25.7776  10936  104.236
 25.8196  10594.1  102.749
 25.8616  10780.3  103.563
 25.9036  10885.6  103.55
 25.9456  10641.8  102.971
 25.9876  10622.2  102.802
 26.0296  10902.1  103.891
 26.0716  10546.9  102.511
 26.1136  10711.3  103.244
 26.1556  10725.2  102.703
 26.1976  10598.4  103.007
 26.2396  10717  102.991
 26.2816  10611.7  102.84
 26.3236  10724.1  103.541
 26.3656  10602.4  102.683
 26.4076  10839  104.016
 26.4496  11078.7  104.675
 26.4916  10615.3  102.459
 26.5336  10763.7  103.49
 26.5756  10996.9  104.466
 26.6176  10613.2  102.675
 26.6596  10514.3  102.493
 26.7016  10471.7  102.054
 26.7436  10361.6  101.645
 26.7856  10354.4  101.594
 26.8276  10427  101.906
 26.8696  10422.8  101.761
 26.9116  10369  101.443
 26.9536  10378.5  101.531
 26.9956  10275.4  101.054
 27.0376  10202.3  100.901
 27.0796  10288.7  101.143
 27.1216  10212.7  100.773
 27.1636  10053.4  100.144
 27.2056  10167.7  100.597
 27.2476  10292.8  101.215
 27.2896  10258.3  101.153
 27.3316  10187.5  100.517
 27.3736  10142.7  100.561
 27.4156  10072  100.054
 27.4576  10124.6  100.545
 27.4996  10064.6  99.8431
 27.5416  10094  100.308
 27.5836  10073.8  100.029
 27.6256  10259.4  101.112
 27.6676  10216.2  100.915
 27.7096  10127.8  100.34
 27.7516  9983.33  99.7723
 27.7936  9933.54  99.696
 27.8356  9932.89  99.3184
 27.8776  9921.03  99.2975
 27.9196  9810.29  98.5966
 27.9616  9814.06  98.8007
 28.0036  9967.73  99.5486
 28.0456  9816.28  98.9136
 28.0876  9788.07  98.8655
 28.1296  9859.34  99.0682
 28.1716  9741.92  98.4862
 28.2136  9934.41  99.4185
 28.2556  9708.81  98.3891
 28.2976  9790.78  98.8027
 28.3396  9857  98.9195
 28.3816  9782.62  98.5449
 28.4236  9765.5  98.6078
 28.4656  9692.68  98.2721
 28.5076  9662.08  97.7619
 28.5496  9726.19  98.3465
 28.5916  9831.29  98.6846
 28.6336  9629.65  98.0058
 28.6756  9709.67  97.6168
 28.7176  9579.46  97.5048
 28.7596  9583.96  97.4248
 28.8016  9688.63  97.9886
 28.8436  9569.26  97.6252
 28.8856  9707.06  98.1705
 28.9276  9653.82  98.1472
 28.9696  9553.56  97.2958
 29.0116  9457.1  96.9887
 29.0536  9483.67  97.3203
 29.0956  9542.54  97.347
 29.1376  9571.34  97.4571
 29.1796  9506.55  97.1688
 29.2216  9530.57  97.1367
 29.2636  9497.77  96.9609
 29.3056  9490.84  96.8019
 29.3476  9510.85  97.4223
 29.3896  9512.24  97.5219
 29.4316  9628.87  97.459
 29.4736  9509.03  96.9151
 29.5156  9588.5  97.2294
 29.5576  9485.98  97.4532
 29.5996  9585.81  97.2257
 29.6416  9427.25  96.5317
 29.6836  9658.22  97.6387
 29.7256  9417.81  96.9753
 29.7676  9329.71  96.187
 29.8096  9309.79  96.0254
 29.8516  9344.76  96.5344
 29.8936  9430.3  97.0654
 29.9356  9513.25  97.2487
 29.9776  9277.71  96.1911
 30.0196  9236.55  95.3692
 30.0616  9428.35  96.7334
 30.1036  9318  95.9944
 30.1456  9293.24  96.095
 30.1876  9273.81  95.971
 30.2296  9279.92  95.9483
 30.2716  9511.85  96.7835
 30.3136  9317.8  96.633
 30.3556  9269.62  96.405
 30.3976  9178.12  97.4117
 30.4396  9396.23  95.9337
 30.4816  9267.08  94.8736
 30.5236  9250.16  94.8094
 30.5656  9293.94  95.6742
 30.6076  9313.46  95.5532
 30.6496  9324.54  95.6515
 30.6916  9181.54  95.0037
 30.7336  9186.76  95.1831
 30.7756  9093.35  94.7875
 30.8176  9365.9  96.1139
 30.8596  9235.36  95.2151
 30.9016  9313.68  95.487
 30.9436  9240.71  95.3324
 30.9856  9277.75  95.6339
 31.0276  9175.86  94.7131
 31.0696  9099.03  94.8903
 31.1116  9093.48  94.8375
 31.1536  9200  95.2726
 31.1956  8993  94.2831
 31.2376  9150.78  95.1139
 31.2796  9098.61  94.3862
 31.3216  9136.95  94.5327
 31.3636  9080.89  94.922
 31.4056  9129.11  96.4802
 31.4476  9045.85  93.9555
 31.4896  8980.91  94.1131
 31.5316  8947.7  93.3946
 31.5736  9106.96  94.0011
 31.6156  8966.73  93.2918
 31.6576  8956.56  93.3273
 31.6996  8991.96  93.1863
 31.7416  8849.74  93.3585
 31.7836  9094.68  93.8033
 31.8256  8921.17  93.2413
 31.8676  8936.73  93.2483
 31.9096  8943.8  93.4986
 31.9516  8731.17  92.6698
 31.9936  8923.69  93.5123
 32.0356  8931.19  93.6195
 32.0776  8893.94  93.3116
 32.1196  8973.67  93.7388
 32.1616  9047.02  93.6644
 32.2036  8763.81  92.688
 32.2456  8782.55  93.1586
 32.2876  8834.86  92.7738
 32.3296  8755.88  92.4902
 32.3716  8794.26  92.7934
 32.4136  8880.58  93.457
 32.4556  8872.75  92.8583
 32.4976  8896.05  92.8788
 32.5396  8803.72  92.421
 32.5816  8726.34  92.1348
 32.6236  8896.91  93.1
 32.6656  8914.27  93.7234
 32.7076  8755.88  92.5486
 32.7496  8807.58  92.4926
 32.7916  8885.95  92.8636
 32.8336  8817.04  92.5983
 32.8756  8853.47  92.5149
 32.9176  8600.45  91.6601
 32.9596  8643.33  91.9563
 33.0016  8706.25  92.0865
 33.0436  8907.01  93.315
 33.0856  8697.98  92.2793
 33.1276  8652.81  91.7806
 33.1696  8756.42  92.1717
 33.2116  8778.04  92.5137
 33.2536  8743.13  92.3301
 33.2956  8832.53  92.8803
 33.3376  8685.17  91.9234
 33.3796  8708.33  92.1694
 33.4216  8775.47  92.1304
 33.4636  8696.34  91.8559
 33.5056  8648.25  91.8348
 33.5476  8581.96  91.48
 33.5896  8740.2  92.0727
 33.6316  8617.35  91.759
 33.6736  8528.93  91.5244
 33.7156  8513.29  91.4812
 33.7576  8629.67  91.7395
 33.7996  8694.91  91.8554
 33.8416  8455.29  90.758
 33.8836  8625.46  91.4508
 33.9256  8632.97  91.5511
 33.9676  8755.27  92.091
 34.0096  8383.89  90.4228
 34.0516  8473.2  90.542
 34.0936  8504.26  90.9799
 34.1356  8593.28  91.1955
 34.1776  8459.35  90.495
 34.2196  8543.02  91.1167
 34.2616  8419.01  90.5864
 34.3036  8384.2  90.6484
 34.3456  8429.2  90.6467
 34.3876  8496.82  91.0615
 34.4296  8436.17  90.3412
 34.4716  8525.84  90.952
 34.5136  8496.55  91.0144
 34.5556  8446.85  90.9967
 34.5976  8426.64  90.7305
 34.6396  8441.56  90.4927
 34.6816  8436.11  90.5758
 34.7236  8502.05  90.714
 34.7656  8460.49  90.6873
 34.8076  8290.91  90.0888
 34.8496  8375.66  90.4056
 34.8916  8452.74  90.6936
 34.9336  8469.88  90.7488
 34.9756  8688.99  91.834
 35.0176  8421.47  90.9297
 35.0596  8303.29  90.1302
 35.1016  8411.18  90.4783
 35.1436  8408.55  90.157
 35.1856  8384.78  90.1525
 35.2276  8396.36  90.3844
 35.2696  8297.66  90.0462
 35.3116  8362.03  90.4845
 35.3536  8192.25  89.3051
 35.3956  8239.79  89.249
 35.4376  8308.18  90.1708
 35.4796  8271.96  90.0276
 35.5216  8310.63  90.1975
 35.5636  8108.94  89.8291
 35.6056  8374.2  90.3084
 35.6476  8308.58  89.8521
 35.6896  8370.7  90.3507
 35.7316  8209.78  89.3784
 35.7736  8221.71  89.6371
 35.8156  8246.48  89.7689
 35.8576  8201.71  89.7678
 35.8996  8411.28  90.8811
 35.9416  8303.45  89.804
 35.9836  8157.27  89.4499
 36.0256  8206.5  89.6446
 36.0676  8454.36  90.5211
 36.1096  8182.51  89.412
 36.1516  8202.9  89.4106
 36.1936  8118.98  88.8055
 36.2356  8239.46  90.0963
 36.2776  8156.47  89.1202
 36.3196  8206.7  89.0762
 36.3616  8207.06  89.2072
 36.4036  8087.35  88.6133
 36.4456  8176.64  89.3047
 36.4876  8058.52  88.5982
 36.5296  8123.05  88.9958
 36.5716  8119.14  89.7462
 36.6136  8284.77  89.4281
 36.6556  8316.6  89.8
 36.6976  8134.48  89.3065
 36.7396  8141.07  89.0738
 36.7816  8139.71  89.4381
 36.8236  8193.38  89.6598
 36.8656  8016.8  88.7532
 36.9076  8096.07  89.2
 36.9496  8130.01  89.2489
 36.9916  8004.33  88.191
 37.0336  8202.26  89.5898
 37.0756  8166.53  89.1859
 37.1176  8012.51  88.6069
 37.1596  8137.29  89.2964
 37.2016  7997.15  88.7035
 37.2436  8155.51  88.9412
 37.2856  8041.85  88.5734
 37.3276  8163.41  88.5933
 37.3696  8024.68  88.7143
 37.4116  8005.3  88.5126
 37.4536  7949.52  88.075
 37.4956  7969.17  88.2242
 37.5376  8005.5  89.9785
 37.5796  7939.56  89.5615
 37.6216  7897.51  87.6089
 37.6636  7860.08  87.3077
 37.7056  7948.63  87.9859
 37.7476  8009.63  87.8602
 37.7896  8004.61  88.33
 37.8316  7752.08  87.0893
 37.8736  7887.35  87.3831
 37.9156  7866.81  87.2691
 37.9576  7915.32  87.4337
 37.9996  7698.51  85.9509
 38.0416  7867.1  87.6906
 38.0836  8000.39  88.334
 38.1256  7855.81  87.4789
 38.1676  7692.88  86.7126
 38.2096  7731.02  86.5579
 38.2516  7977.1  88.119
 38.2936  7827.29  87.0947
 38.3356  7897.67  87.4081
 38.3776  7779.11  87.0149
 38.4196  7930.43  87.71
 38.4616  7816.57  87.3071
 38.5036  8013.34  88.25
 38.5456  7746.87  87.5947
 38.5876  7850.98  88.2106
 38.6296  7749.62  86.6257
 38.6716  7783.31  86.615
 38.7136  7754.84  86.3994
 38.7556  7675.29  86.452
 38.7976  7729.28  86.6918
 38.8396  7783.91  87.4477
 38.8816  7742.07  87.0005
 38.9236  7796.89  87.1137
 38.9656  7662.61  86.2753
 39.0076  7842.59  86.6953
 39.0496  7749.87  86.7137
 39.0916  7779.53  86.5175
 39.1336  7783.92  86.9641
 39.1756  7719.56  86.6712
 39.2176  7730.2  87.2554
 39.2596  7750.02  87.2898
 39.3016  7771.62  86.9745
 39.3436  7666.38  86.8156
 39.3856  7838.74  87.2374
 39.4276  7758.93  87.2838
 39.4696  7756.55  86.8979
 39.5116  7661.52  86.8702
 39.5536  7851.17  88.3601
 39.5956  7776.73  87.0475
 39.6376  7785.37  87.0988
 39.6796  7810.48  86.987
 39.7216  7739.15  86.6833
 39.7636  7793.25  87.5536
 39.8056  7815.89  87.459
 39.8476  7654.49  86.8032
 39.8896  7725.45  86.8346
 39.9316  7700.49  86.9432
 39.9736  7871.89  87.4805
 40.0156  7697.25  86.3334
 40.0576  7837.54  87.4734
 40.0996  7907.44  87.0478
 40.1416  7795.47  87.2133
 40.1836  7873.35  87.5367
 40.2256  7808.4  87.2213
 40.2676  7768.46  87.1675
 40.3096  7779.58  87.0925
 40.3516  7858.15  87.6374
 40.3936  7811.99  86.9467
 40.4356  7796.47  87.0507
 40.4776  7864.02  87.6753
 40.5196  7864.55  87.9659
 40.5616  7907.09  87.8481
 40.6036  7763.23  87.2933
 40.6456  7842.11  87.3512
 40.6876  7944.04  87.903
 40.7296  7911.78  87.8523
 40.7716  7799.87  87.3629
 40.8136  7785.35  87.2228
 40.8556  7799.4  87.4389
 40.8976  7889.59  87.8577
 40.9396  7758.54  87.4786
 40.9816  7884.91  87.469
 41.0236  7907.71  87.3775
 41.0656  7843.81  87.564
 41.1076  7803.09  87.1087
 41.1496  7747.11  86.7068
 41.1916  7826.59  87.467
 41.2336  7772.8  87.1621
 41.2756  7789.76  86.8632
 41.3176  7748.95  87.2441
 41.3596  7747.6  86.961
 41.4016  7790.79  87.4586
 41.4436  7891.05  87.8154
 41.4856  7826.08  87.6099
 41.5276  7714.77  87.0098
 41.5696  7760.43  86.8877
 41.6116  7732.7  87.1377
 41.6536  7846.79  87.6369
 41.6956  7905.87  87.9464
 41.7376  7806.98  87.4931
 41.7796  7816.13  87.4767
 41.8216  7762.24  87.3622
 41.8636  7832.82  87.6945
 41.9056  7681.25  86.6405
 41.9476  7830.88  87.7036
 41.9896  7775.04  87.0692
 42.0316  7815.33  87.3641
 42.0736  7757.36  87.1865
 42.1156  7693.5  86.6386
 42.1576  7779.44  87.2105
 42.1996  7789.1  87.4119
 42.2416  7824.71  87.1961
 42.2836  7773.43  87.0207
 42.3256  7739.22  86.9471
 42.3676  7732.54  86.7183
 42.4096  7772.19  86.8989
 42.4516  7709.56  86.633
 42.4936  7689.95  86.5901
 42.5356  7720.77  86.9014
 42.5776  7795.68  87.2513
 42.6196  7812.99  87.4134
 42.6616  7626.14  86.524
 42.7036  7783.52  86.8025
 42.7456  7806.88  87.2886
 42.7876  7599.69  86.2216
 42.8296  7712.3  86.689
 42.8716  7633.58  86.4026
 42.9136  7621.6  86.09
 42.9556  7706.97  86.7457
 42.9976  7671.74  86.5074
 43.0396  7712.35  86.4673
 43.0816  7649.32  86.4872
 43.1236  7647.79  86.5405
 43.1656  7708.21  86.7103
 43.2076  7602.28  86.2084
 43.2496  7622.4  86.1476
 43.2916  7558.81  86.1473
 43.3336  7567.34  86.0355
 43.3756  7635.07  86.1752
 43.4176  7439.65  85.1454
 43.4596  7690.29  86.4239
 43.5016  7454.41  85.4862
 43.5436  7585.44  86.1346
 43.5856  7588.06  86.1771
 43.6276  7582.84  86.046
 43.6696  7554.16  86.0197
 43.7116  7626.25  86.048
 43.7536  7553.26  86.1223
 43.7956  7382.62  86.3041
 43.8376  7579.03  85.996
 43.8796  7590.45  86.1409
 43.9216  7463.82  85.3346
 43.9636  7539.09  85.8726
 44.0056  7538  86.1015
 44.0476  7603.4  86.1034
 44.0896  7542.61  86.0998
 44.1316  7454.14  85.2669
 44.1736  7446.9  85.2063
 44.2156  7575.05  85.7875
 44.2576  7374.83  84.9694
 44.2996  7564.38  86.0254
 44.3416  7576.56  85.8503
 44.3836  7278.78  84.4707
 44.4256  7273.87  84.0904
 44.4676  7290.55  84.3445
 44.5096  7377.57  84.9874
 44.5516  7306.49  84.544
 44.5936  7224.15  84.0202
 44.6356  7489.41  85.2872
 44.6776  7308.19  84.56
 44.7196  7358.37  85.156
 44.7616  7388.75  86.6469
 44.8036  7325.22  84.9202
 44.8456  7310.55  84.8357
 44.8876  7271.45  84.4608
 44.9296  7426.22  84.8173
 44.9716  7376.82  84.9561
 45.0136  7292.35  84.406
 45.0556  7287.41  84.4577
 45.0976  7197.96  83.9859
 45.1396  7169.33  83.5952
 45.1816  7206.12  83.7396
 45.2236  7323.96  84.3214
 45.2656  7243.02  84.3518
 45.3076  7139.41  83.5392
 45.3496  7224.47  84.3285
 45.3916  7145.61  84.1292
 45.4336  7265.75  84.6815
 45.4756  7199.83  84.1549
 45.5176  7326.31  84.5107
 45.5596  7347.42  84.753
 45.6016  7116.2  83.8155
 45.6436  7263.07  83.8617
 45.6856  7106.08  83.5944
 45.7276  7172.83  85.2901
 45.7696  7310.48  85.7715
 45.8116  7254.54  84.8916
 45.8536  7132.7  84.0645
 45.8956  7269.5  84.2278
 45.9376  7187.19  83.2254
 45.9796  7331.51  84.7485
 46.0216  7314.56  84.9757
 46.0636  7216.8  83.5633
 46.1056  7298.39  84.0238
 46.1476  7165.97  83.8411
 46.1896  7192.45  84.1427
 46.2316  7201.13  84.0591
 46.2736  7132.22  83.8712
 46.3156  7250.02  84.3051
 46.3576  7237.59  84.4347
 46.3996  7082.24  83.6801
 46.4416  7290.05  84.4467
 46.4836  7109.22  83.7734
 46.5256  7381.67  85.2997
 46.5676  7085.77  83.6854
 46.6096  7258.63  84.6313
 46.6516  7119.85  82.8809
 46.6936  7218.82  83.9431
 46.7356  7193.8  83.9003
 46.7776  7020.57  83.7059
 46.8196  7127.26  84.0859
 46.8616  6942.72  82.7937
 46.9036  7014.12  82.8859
 46.9456  6996.7  82.4317
 46.9876  7001.77  82.5356
 47.0296  7033.55  83.3922
 47.0716  7002.27  83.0432
 47.1136  6992.92  82.6714
 47.1556  7079.7  83.0524
 47.1976  7062.45  83.1105
 47.2396  7002.13  83.069
 47.2816  7063.04  83.1327
 47.3236  7020.26  83.2422
 47.3656  6963.01  82.8312
 47.4076  7098.19  83.3691
 47.4496  6924.57  82.5108
 47.4916  6929.47  82.7232
 47.5336  6941.65  82.6184
 47.5756  6966.41  82.8751
 47.6176  6903.04  82.3999
 47.6596  6973.65  82.5392
 47.7016  7120.55  83.2172
 47.7436  6964.44  82.6294
 47.7856  7053.99  83.1928
 47.8276  7012.12  82.9916
 47.8696  6951.71  82.7198
 47.9116  6975.02  82.5727
 47.9536  6849.97  81.7748
 47.9956  6877.12  82.6295
 48.0376  6796.41  81.9232
 48.0796  6943.68  82.9344
 48.1216  6971.7  82.9234
 48.1636  7095.19  83.2316
 48.2056  7028  83.0976
 48.2476  7007.75  83.2775
 48.2896  7032.17  83.341
 48.3316  6855.95  82.2234
 48.3736  6832.99  82.1103
 48.4156  6881.52  82.2557
 48.4576  6906.98  82.6998
 48.4996  6977.47  82.5818
 48.5416  6976.8  82.9036
 48.5836  6880.03  82.0068
 48.6256  6865.42  82.1259
 48.6676  6893.98  82.7992
 48.7096  6900.6  82.1203
 48.7516  6859.47  82.0191
 48.7936  6719.34  81.2374
 48.8356  6869.26  82.1901
 48.8776  6893.5  82.8156
 48.9196  6921.38  82.4482
 48.9616  6799.44  82.0954
 49.0036  6767.14  82.2307
 49.0456  6746.7  82.0845
 49.0876  6786.62  81.9695
 49.1296  6692.31  81.4688
 49.1716  6649.25  81.074
 49.2136  6771.9  81.742
 49.2556  6844.45  82.2132
 49.2976  6803.26  82.041
 49.3396  6701.24  81.476
 49.3816  6881.39  82.002
 49.4236  6841.02  82.1802
 49.4656  6675.33  81.1903
 49.5076  6789.76  81.6399
 49.5496  6718.23  81.2687
 49.5916  6782.24  81.5691
 49.6336  6718.46  81.3871
 49.6756  6823.3  82.2532
 49.7176  6767.77  81.8571
 49.7596  6693.78  81.1822
 49.8016  6829.94  81.9241
 49.8436  6569.81  80.6366
 49.8856  6720.84  81.5598
 49.9276  6656.54  81.2656
 49.9696  6678.5  81.3909
 50.0116  6626.48  81.1965
 50.0536  6624.59  81.1344
 50.0956  6657.84  81.4103
 50.1376  6691.35  81.3184
 50.1796  6630.63  81.2103
 50.2216  6727.25  81.7964
 50.2636  6663.75  81.0335
 50.3056  6567.28  80.6139
 50.3476  6592.05  80.7846
 50.3896  6669.54  81.2346
 50.4316  6637.47  80.8695
 50.4736  6620.92  80.9912
 50.5156  6602.1  80.8621
 50.5576  6628.88  80.7948
 50.5996  6569  80.7022
 50.6416  6620.87  80.9513
 50.6836  6631.62  81.0765
 50.7256  6663.46  81.1914
 50.7676  6728.32  81.8597
 50.8096  6534.03  80.2634
 50.8516  6542.49  80.719
 50.8936  6546.9  80.5314
 50.9356  6635.49  81.1799
 50.9776  6548.05  80.7889
 51.0196  6436.33  80.2249
 51.0616  6445.2  79.6234
 51.1036  6606.1  80.9582
 51.1456  6525.85  80.3811
 51.1876  6567.67  79.9942
 51.2296  6493.8  80.1656
 51.2716  6453.21  79.6231
 51.3136  6534.39  80.5707
 51.3556  6536.83  80.2183
 51.3976  6456.58  79.8715
 51.4396  6442.73  80.0845
 51.4816  6511.88  80.3596
 51.5236  6496.92  80.3629
 51.5656  6343.85  79.0256
 51.6076  6465.27  79.8556
 51.6496  6519.8  80.3824
 51.6916  6444.37  80.2628
 51.7336  6481.88  80.5868
 51.7756  6394.57  79.7435
 51.8176  6421.89  80.0218
 51.8596  6445.03  80.1755
 51.9016  6564.6  80.5358
 51.9436  6412.99  81.0047
 51.9856  6349.82  81.0435
 52.0276  6467.04  80.3309
 52.0696  6449.51  80.2857
 52.1116  6401.49  80.1011
 52.1536  6498.95  80.5487
 52.1956  6464.05  79.8453
 52.2376  6631.54  81.0512
 52.2796  6464.17  79.8298
 52.3216  6292.72  79.4409
 52.3636  6323.72  79.2277
 52.4056  6443.25  79.829
 52.4476  6374.94  79.7625
 52.4896  6246.97  79.0127
 52.5316  6347.19  79.678
 52.5736  6384.88  79.649
 52.6156  6345.61  79.7746
 52.6576  6472.72  80.0244
 52.6996  6175.8  79.1136
 52.7416  6331.53  79.9561
 52.7836  6228.18  79.1683
 52.8256  6407.17  79.5611
 52.8676  6159.22  78.5619
 52.9096  6345.71  79.8216
 52.9516  6363.6  80.2939
 52.9936  6236.58  79.8743
 53.0356  6250.13  78.9861
 53.0776  6256.78  79.3103
 53.1196  6090.23  78.3443
 53.1616  6134.21  78.6719
 53.2036  6266.89  79.4755
 53.2456  6162.85  78.909
 53.2876  6156.43  78.5836
 53.3296  6227.56  79.3561
 53.3716  6207.38  78.9817
 53.4136  6293.18  79.6646
 53.4556  6101.27  78.4766
 53.4976  6160.36  78.7067
 53.5396  6196.25  79.3186
 53.5816  6242.44  79.2554
 53.6236  6128.68  78.8605
 53.6656  6105.48  78.3492
 53.7076  6215.08  79.0151
 53.7496  6105.06  78.43
 53.7916  6131.11  78.7186
 53.8336  6125.56  78.5861
 53.8756  6107.42  79.0056
 53.9176  6159  78.6949
 53.9596  6183.84  79.607
 54.0016  6177.09  78.9059
 54.0436  6103.54  78.6473
 54.0856  6287.52  79.2465
 54.1276  6176.47  78.7438
 54.1696  6164.42  78.8394
 54.2116  6186.17  78.7384
 54.2536  6231.1  78.8431
 54.2956  6259.64  79.0678
 54.3376  6172.89  78.9929
 54.3796  6136.47  78.6611
 54.4216  6277.01  79.6068
 54.4636  6162.46  78.8345
 54.5056  6215.65  78.9976
 54.5476  6089.45  78.5191
 54.5896  6172.29  78.8789
 54.6316  6174.49  78.7588
 54.6736  6153.16  78.6491
 54.7156  6178.78  78.8759
 54.7576  6112.44  78.451
 54.7996  6130.12  78.7195
 54.8416  6175.15  79.0439
 54.8836  6085.48  78.5771
 54.9256  6031.37  77.98
 54.9676  6176.59  78.7722
 55.0096  6175.38  78.8341
 55.0516  6170.66  78.9674
 55.0936  6220.97  78.9897
 55.1356  6053.63  77.9599
 55.1776  6123.8  78.6739
 55.2196  6156.64  78.6689
 55.2616  6153.99  78.8644
 55.3036  6001.64  78.0397
 55.3456  6099.78  78.8165
 55.3876  6183.21  79.1043
 55.4296  6161.17  78.9373
 55.4716  6048.69  78.2482
 55.5136  6129.09  78.5264
 55.5556  6086.07  78.3227
 55.5976  6117.22  78.579
 55.6396  6167.76  78.7696
 55.6816  6042.06  77.918
 55.7236  6070.71  78.1488
 55.7656  6126.82  78.2684
 55.8076  6183.44  78.6119
 55.8496  6026.35  78.0309
 55.8916  6077.09  78.4154
 55.9336  6006.91  77.8128
 55.9756  6016.14  77.767
 56.0176  5975.5  77.655
 56.0596  5970.7  77.6042
 56.1016  6089.54  78.4164
 56.1436  6042  78.3393
 56.1856  6044.15  78.0927
 56.2276  6084.94  78.418
 56.2696  6033.7  78.0545
 56.3116  5972.63  78.0559
 56.3536  5987.81  77.8207
 56.3956  6003.65  77.9142
 56.4376  6089.54  78.5026
 56.4796  6022.01  77.872
 56.5216  6032.04  78.3047
 56.5636  6088.6  78.2649
 56.6056  6002.05  77.9354
 56.6476  5975.59  77.3997
 56.6896  6097.53  78.6284
 56.7316  6023.22  78.0604
 56.7736  6036.04  78.1389
 56.8156  6057.61  78.2731
 56.8576  6011.27  77.9137
 56.8996  6036.5  78.0204
 56.9416  6041.48  78.3533
 56.9836  5966.66  77.3858
 57.0256  6063.52  78.328
 57.0676  5944.21  77.6745
 57.1096  6004.43  77.8565
 57.1516  6125.63  78.6629
 57.1936  6057.75  78.0149
 57.2356  6087.71  78.5246
 57.2776  6064.38  78.3316
 57.3196  6061.57  78.6818
 57.3616  6029.58  77.972
 57.4036  6105.5  78.5187
 57.4456  5894.65  77.1219
 57.4876  6082.55  78.2024
 57.5296  5980  77.7746
 57.5716  5979.12  77.8507
 57.6136  6029.28  78.0056
 57.6556  6037.81  78.1998
 57.6976  5979.67  77.6424
 57.7396  5865.59  77.2645
 57.7816  5901.87  77.8501
 57.8236  5915.76  77.7483
 57.8656  6022.74  78.1066
 57.9076  6009.33  78.0494
 57.9496  5952.09  78.0179
 57.9916  5973.9  77.6795
 58.0336  5935.77  77.7021
 58.0756  5991.69  77.6694
 58.1176  6002.89  77.7785
 58.1596  5964.14  78.083
 58.2016  6106.44  78.2353
 58.2436  6032.29  78.1703
 58.2856  5992.38  77.8331
 58.3276  5958.89  77.9833
 58.3696  5976.66  77.8471
 58.4116  6044.84  78.1605
 58.4536  5995.74  77.7271
 58.4956  6003.86  77.9618
 58.5376  6013.13  77.5956
 58.5796  6005.07  77.9597
 58.6216  5951.78  77.4367
 58.6636  6008.67  78.0159
 58.7056  6130.23  78.658
 58.7476  5972.48  78.0807
 58.7896  5975.22  77.7462
 58.8316  5989.7  77.8354
 58.8736  6077.52  78.4129
 58.9156  6037.29  78.1953
 58.9576  6173.05  79.3835
 58.9996  6214.22  78.8862
 59.0416  6213.22  79.248
 59.0836  5958.82  77.5444
 59.1256  5986.15  78.4135
 59.1676  5989.95  78.7343
 59.2096  6053.8  78.4744
 59.2516  6071.35  78.1681
 59.2936  5981.18  77.9119
 59.3356  5928.75  77.4486
 59.3776  5975.03  77.9183
 59.4196  5978.44  77.8763
 59.4616  5900.45  77.2288
 59.5036  5934.69  77.4864
 59.5456  6032.26  77.8156
 59.5876  6229.71  79.2729
 59.6296  6083.15  78.4043
 59.6716  6105.74  78.6081
 59.7136  6091.76  78.5063
 59.7556  5980.95  77.9247
 59.7976  6004.67  77.822
 59.8396  6021.96  77.8284
 59.8816  5909.96  77.6402
 59.9236  5943.4  77.5066
 59.9656  6035.59  78.366
 60.0076  6043.89  77.777
 60.0496  6080.02  78.5138
 60.0916  6129.1  78.2448
 60.1336  5887.97  77.7834
 60.1756  6043.47  79.9885
 60.1996  0.0000000E+00  0.0000000E+00