File: docs/examples/opeando_xrd/IS17_D/Data/IS17_D/17_Db_f00120.xye
# /beamlines/bl04/projects/cycle2025-II/20250340211-lsimonelli/DATA/IS17_D/17_Db_f00120.xye : mythproc.py merge -s 0.006 -l 0.5 -f /beamlines/bl04/inhouse/ff/FlatField/ff_20Nov2024rod8mm60s_17keV.raw -b True -c true -o xye /beamlines/bl04/projects/cycle2025-II/20250340211-lsimonelli/DATA/IS17_D/17_Db_00120.dat
# IsMon = [6759354, 6756366, 6760498]  IsPos = [-1.4999, -2.4885, -3.4986]
# Wave = 0.4962  CalPath /beamlines/bl04/projects/cycle2025-II/20250340211-lsimonelli/DATA/Align/Si_Pos1_25keV_f00001.cal
# Date = 2025-09-25_03:08:17 Dt = 4.8000  Bin = 0.0060  <imon> = 6758739 +/- 1742 (Min/Max) 6756366 / 6760498
# icurr 250.5673  mocoIn 1.7082E-05  mocoOut 0.8021  i15 7.08088e+06  imon 6.75874e+06  i7 4.0000  iEMpd_timer 4.8000  iEMpd_1 3.4822E-08  iEMpd_2 8.0330E-08  iEMpd_3 1.6436E-08  iEMpd_4 4.9552E-08  iEMhp_timer 4.8000  iEMhp_1 4.8949E-06  iEMhp_2 -2.6049E-08  iEMhp_3 -2.6654E-08  iEMhp_4 -2.2049E-08
#      9776
 1.5856  44289.3  216.089
 1.6276  50895.4  227.67
 1.6696  57005.4  240.099
 1.7116  63728.1  254.358
 1.7536  72063.8  269.33
 1.7956  75762.7  276.846
 1.8376  72603.4  271.442
 1.8796  62745.6  250.496
 1.9216  52144  229.256
 1.9636  45007.5  212.118
 2.0056  41455.5  202.787
 2.0476  37983.4  196.237
 2.0896  36486.1  191.202
 2.1316  36143.3  189.387
 2.1736  34168.3  185.601
 2.2156  34711.3  185.569
 2.2576  33376.9  182.619
 2.2996  32104.4  179.761
 2.3416  32713.4  180.011
 2.3836  32008.2  178.169
 2.4256  30878.2  175.566
 2.4676  30465.7  174.142
 2.5096  30498  174.291
 2.5516  29141.9  174.306
 2.5936  29159.4  170.859
 2.6356  28452.8  169.491
 2.6776  28396.2  168.199
 2.7196  28123.8  167.89
 2.7616  27883.1  166.95
 2.8036  27729.6  166.66
 2.8456  27552.9  166.785
 2.8876  27047.9  165.085
 2.9296  26542.9  163.692
 2.9716  26157.4  161.983
 3.0136  26116.3  161.925
 3.0556  26354.9  163.056
 3.0976  26216.8  161.496
 3.1396  25827.1  161.053
 3.1816  25495.9  159.956
 3.2236  25374.9  159.569
 3.2656  25204.8  158.065
 3.3076  24909.3  158.621
 3.3496  25175.2  158.622
 3.3916  25527.1  159.292
 3.4336  25747.3  160.572
 3.4756  26347.8  162.367
 3.5176  27017.8  164.187
 3.5596  26688.2  165.666
 3.6016  26764.2  163.482
 3.6436  25917.5  162.005
 3.6856  25591.1  159.249
 3.7276  24589  157.195
 3.7696  24307.9  156.484
 3.8116  23934.4  155.174
 3.8536  24113  155.674
 3.8956  24027  155.217
 3.9376  23658.8  154.317
 3.9796  23931  154.663
 4.0216  23828.9  153.367
 4.0636  23871.3  154.984
 4.1056  23837.7  154.532
 4.1476  24173.9  155.921
 4.1896  24224.1  155.944
 4.2316  24373.9  156.243
 4.2736  24533.4  156.553
 4.3156  24787.4  157.592
 4.3576  25854.5  160.857
 4.3996  25797.7  160.757
 4.4416  26314.1  162.138
 4.4836  26718.2  163.545
 4.5256  27196.6  165.608
 4.5676  27097.7  165.564
 4.6096  27833.8  166.43
 4.6516  28049.4  166.775
 4.6936  28082.8  167.708
 4.7356  28264.5  168.079
 4.7776  28093.5  167.395
 4.8196  28136.1  168.168
 4.8616  27449.3  165.732
 4.9036  27326.6  164.958
 4.9456  27157.1  165.108
 4.9876  26485.7  162.949
 5.0296  26843.1  163.881
 5.0716  26622.3  163.826
 5.1136  26853.3  164.397
 5.1556  26992.6  164.278
 5.1976  27684.9  166.361
 5.2396  27549.3  165.646
 5.2816  27642.2  166.394
 5.3236  27669.8  166.177
 5.3656  27106.4  165.413
 5.4076  26913.2  164.961
 5.4496  26856.3  164.284
 5.4916  27100.6  164.773
 5.5336  27036.5  164.592
 5.5756  27170.5  165.012
 5.6176  27110.6  164.27
 5.6596  27343.5  165.966
 5.7016  27676.7  166.226
 5.7436  27583.2  166.226
 5.7856  27435.7  165.849
 5.8276  27678.7  166.297
 5.8696  27957.9  167.305
 5.9116  27669.9  167.011
 5.9536  28256.5  168.544
 5.9956  28340.5  168.179
 6.0376  28411.3  169.017
 6.0796  28485.7  169.066
 6.1216  28518.5  169.362
 6.1636  28776  169.173
 6.2056  28693.5  169.62
 6.2476  28910  170.12
 6.2896  29210.2  170.681
 6.3316  29399.1  171.404
 6.3736  29358.3  171.18
 6.4156  29579  171.697
 6.4576  29490.9  171.067
 6.4996  29470.2  171.49
 6.5416  29603.9  172.005
 6.5836  29664  172.423
 6.6256  29712.5  172.122
 6.6676  30433.4  173.754
 6.7096  30407.4  174.545
 6.7516  30588.4  174.724
 6.7936  31144.7  175.441
 6.8356  30885.6  175.06
 6.8776  31042.1  176.32
 6.9196  31468.4  177.931
 6.9616  31698.9  177.984
 7.0036  31937.2  178.326
 7.0456  31957.3  177.686
 7.0876  32074.6  179.715
 7.1296  31816.5  178.119
 7.1716  32134.1  178.534
 7.2136  31758.4  177.271
 7.2556  32127.1  178.453
 7.2976  32129.6  178.968
 7.3396  31870.2  178.465
 7.3816  31944  178.883
 7.4236  32106.3  178.631
 7.4656  32440.3  178.991
 7.5076  32777.3  180.095
 7.5496  32415.5  179.637
 7.5916  32675.6  180.401
 7.6336  32947.1  181.035
 7.6756  32976.6  180.965
 7.7176  33582.7  182.949
 7.7596  33298.9  183.4
 7.8016  33869.2  187.218
 7.8436  33642.4  183.242
 7.8856  33907.2  183.567
 7.9276  34241  184.86
 7.9696  34822.2  186.737
 8.0116  35518.7  187.5
 8.0536  35694.1  187.849
 8.0956  35838.9  189.423
 8.1376  36222.4  189.899
 8.1796  36229.1  190.461
 8.2216  36976.7  191.148
 8.2636  37242.6  192.086
 8.3056  36980.1  192.166
 8.3476  37673.5  193.292
 8.3896  37391  193.085
 8.4316  37746.2  193.729
 8.4736  37914.4  193.628
 8.5156  37118.1  191.859
 8.5576  36989.3  192.5
 8.5996  37371.3  192.358
 8.6416  36821.9  192.204
 8.6836  36648.2  191.566
 8.7256  37272.7  192.655
 8.7676  37044.2  194.968
 8.8096  37701.3  193.948
 8.8516  37445.8  192.865
 8.8936  36950.6  191.531
 8.9356  37306.8  192.788
 8.9776  37262.6  192.748
 9.0196  37311.8  192.549
 9.0616  37137.3  191.594
 9.1036  36708.6  191.665
 9.1456  36274.3  189.849
 9.1876  36588.4  190.624
 9.2296  36042.4  188.625
 9.2716  35842.5  188.142
 9.3136  36308.1  189.36
 9.3556  36236.5  189.145
 9.3976  35163.9  186.84
 9.4396  35447.8  187.497
 9.4816  35124.1  186.498
 9.5236  34914  185.833
 9.5656  34786.5  185.857
 9.6076  33949.5  184.134
 9.6496  34237.5  184.79
 9.6916  34135.6  184.48
 9.7336  34333.4  184.783
 9.7756  34019.8  185.341
 9.8176  33668.7  183.798
 9.8596  33663.5  182.206
 9.9016  33366.1  181.401
 9.9436  33031.3  180.398
 9.9856  32804.3  180.051
 10.0276  32507.4  180.321
 10.0696  32751.4  180.015
 10.1116  31531.4  176.894
 10.1536  31765.6  177.701
 10.1956  31099.1  175.446
 10.2376  31116.4  174.997
 10.2796  30664.3  173.842
 10.3216  30523.5  173.728
 10.3636  30521.2  173.743
 10.4056  29741.9  171.928
 10.4476  29758.9  171.578
 10.4896  30010.6  171.746
 10.5316  29017.2  169.599
 10.5736  29425.6  171.212
 10.6156  29241.2  170.42
 10.6576  28973.5  168.195
 10.6996  28574.8  167.743
 10.7416  28320.2  167.209
 10.7836  28029.6  167.016
 10.8256  27695.7  166.445
 10.8676  27666.3  165.902
 10.9096  27464.9  165.316
 10.9516  27323.2  163.838
 10.9936  27323.5  164.04
 11.0356  27228.5  164.371
 11.0776  26979.3  162.956
 11.1196  26696.8  162.863
 11.1616  26116.4  160.763
 11.2036  26500.3  161.779
 11.2456  26327.4  161.972
 11.2876  26607.9  162.545
 11.3296  26193  161.188
 11.3716  26496.8  161.795
 11.4136  26453.4  162.553
 11.4556  26640.8  162.791
 11.4976  27185.1  163.424
 11.5396  27627.8  164.934
 11.5816  27399.1  164.691
 11.6236  26943.3  163.776
 11.6656  26669.3  161.85
 11.7076  25996  160.639
 11.7496  25536.5  163.253
 11.7916  25497.4  158.349
 11.8336  24845.8  157.23
 11.8756  24958.8  157.102
 11.9176  24828.8  156.608
 11.9596  24965.5  156.968
 12.0016  24706.9  156.923
 12.0436  24931.5  157.075
 12.0856  24367.1  155.798
 12.1276  24376.8  155.779
 12.1696  24297.6  154.639
 12.2116  24387.4  154.927
 12.2536  24229.7  155.239
 12.2956  24094.7  154.154
 12.3376  24367.4  155.222
 12.3796  24209.3  155.21
 12.4216  24103  154.061
 12.4636  23817.3  154.079
 12.5056  24020.6  153.999
 12.5476  24273.7  154.318
 12.5896  23946.5  153.92
 12.6316  24087.1  154.521
 12.6736  24070.5  154.809
 12.7156  24175.8  155.138
 12.7576  23784.8  154.132
 12.7996  24126.8  153.871
 12.8416  24068  154.743
 12.8836  24235  155.094
 12.9256  24729  155.705
 12.9676  24481.7  155.332
 13.0096  24717.7  157.2
 13.0516  24745  156.305
 13.0936  24964.5  157.414
 13.1356  25177.6  157.034
 13.1776  24646.2  156.394
 13.2196  24804.5  156.533
 13.2616  24643.6  156.343
 13.3036  24744  156.62
 13.3456  24368.4  155.568
 13.3876  24988.8  157.014
 13.4296  24516.1  155.69
 13.4716  24771.9  156.127
 13.5136  24876.8  156.566
 13.5556  24514.7  156.087
 13.5976  24723.2  156.909
 13.6396  24845  156.648
 13.6816  24776.9  156.91
 13.7236  25127.3  157.603
 13.7656  26600  162.593
 13.8076  27343.9  163.497
 13.8496  26924.9  162.932
 13.8916  24983.8  158.087
 13.9336  24226.9  154.942
 13.9756  24492.5  155.164
 14.0176  23824.7  153.711
 14.0596  24138.9  154.641
 14.1016  24005.1  154.646
 14.1436  24089.1  154.039
 14.1856  23390  152.078
 14.2276  23300.7  152.277
 14.2696  23205.4  151.815
 14.3116  22942.8  150.862
 14.3536  22670.4  150.126
 14.3956  22706.4  149.971
 14.4376  22787.1  150.021
 14.4796  22829.9  150.162
 14.5216  22397.8  149.528
 14.5636  22256.6  148.618
 14.6056  22597.8  149.306
 14.6476  22326.3  147.654
 14.6896  22018.7  147.174
 14.7316  21594  146.791
 14.7736  21326.3  145.028
 14.8156  21312.6  144.996
 14.8576  21102.1  144.135
 14.8996  20780.8  144.219
 14.9416  20429.1  143.012
 14.9836  20484.8  143.194
 15.0256  19877.5  139.977
 15.0676  19900.1  140.37
 15.1096  19879.9  140.038
 15.1516  19451.2  139.08
 15.1936  19428.6  138.422
 15.2356  19071.9  137.422
 15.2776  18958  136.604
 15.3196  18618.2  136.358
 15.3616  18548.5  135.858
 15.4036  18620.3  135.989
 15.4456  18844.9  136.224
 15.4876  18435.4  134.65
 15.5296  18503.6  135.192
 15.5716  18136.3  133.44
 15.6136  17962  133.131
 15.6556  18022.4  132.593
 15.6976  18009.3  132.623
 15.7396  17801.3  132.446
 15.7816  17674.6  131.499
 15.8236  17574.4  131.806
 15.8656  17691.8  132.048
 15.9076  17202.3  130.035
 15.9496  17998.9  135.832
 15.9916  17620.4  134.78
 16.0336  17929.3  132.809
 16.0756  17715  132.338
 16.1176  17578.5  131.904
 16.1596  17059.4  131.123
 16.2016  17125.3  130.127
 16.2436  16923.9  129.743
 16.2856  17019  129.625
 16.3276  16747.6  129.022
 16.3696  17055.3  130.025
 16.4116  16651.9  128.93
 16.4536  16943.1  129.847
 16.4956  16939.7  129.571
 16.5376  16555  128.28
 16.5796  16504.2  127.445
 16.6216  16636.3  128.216
 16.6636  16345  127.284
 16.7056  16659.9  128.368
 16.7476  16507.1  127.447
 16.7896  16781.2  129.116
 16.8316  16546.2  128.179
 16.8736  16819.3  129.489
 16.9156  16639.4  129.125
 16.9576  16508.7  129.431
 16.9996  16424.3  129.571
 17.0416  16513.6  128.307
 17.0836  16653.2  128.605
 17.1256  16556.3  128.231
 17.1676  16340.5  127.357
 17.2096  16350.3  127.285
 17.2516  16185  126.429
 17.2936  16090  126.417
 17.3356  15887.3  125.601
 17.3776  15921.1  125.929
 17.4196  15656.9  124.582
 17.4616  15864.5  125.311
 17.5036  15265.7  123.288
 17.5456  15389.9  124.413
 17.5876  15428  123.611
 17.6296  15429.2  123.452
 17.6716  15248.1  123.304
 17.7136  15208.5  123.274
 17.7556  15290.1  123.899
 17.7976  14929.7  122.039
 17.8396  15273  123.058
 17.8816  14760.1  121.542
 17.9236  14987.6  122.265
 17.9656  14834.7  122.316
 18.0076  14870.5  121.884
 18.0496  14749.4  120.524
 18.0916  14760.7  121.113
 18.1336  14682  120.896
 18.1756  14901  121.343
 18.2176  14707.7  120.765
 18.2596  14503.6  119.657
 18.3016  14758  120.957
 18.3436  14723.2  121.059
 18.3856  14619.2  120.528
 18.4276  14562.4  119.978
 18.4696  14444.5  119.573
 18.5116  14548.7  120.28
 18.5536  14438.3  120.186
 18.5956  14217.9  118.823
 18.6376  14165.3  119.008
 18.6796  14216.8  118.542
 18.7216  14355.1  119.683
 18.7636  14455.9  120.034
 18.8056  14129.8  118.596
 18.8476  14038.9  118.541
 18.8896  14093.2  118.403
 18.9316  14300.1  119.094
 18.9736  14139.2  118.286
 19.0156  14087.5  118.465
 19.0576  14318.5  118.276
 19.0996  14097.5  118.089
 19.1416  14233.2  119.045
 19.1836  14057.9  117.92
 19.2256  13977.1  117.799
 19.2676  13996.5  117.967
 19.3096  13980.8  118.15
 19.3516  14135.3  118.755
 19.3936  13936  117.875
 19.4356  14225.3  118.911
 19.4776  13969.7  117.931
 19.5196  14088.4  118.281
 19.5616  13945.7  117.942
 19.6036  13980.9  117.446
 19.6456  13997.4  117.767
 19.6876  14024.7  117.515
 19.7296  14205.1  118.735
 19.7716  14016.6  117.978
 19.8136  14294.3  119.482
 19.8556  14334.9  119.135
 19.8976  14189  118.581
 19.9396  14423.9  119.147
 19.9816  14618  120.201
 20.0236  14902.5  121.554
 20.0656  15111.1  122.404
 20.1076  14933.8  122.173
 20.1496  14730  121.328
 20.1916  14562.7  120.145
 20.2336  14145.5  118.343
 20.2756  13870  117.616
 20.3176  13776.6  116.969
 20.3596  13728.2  116.753
 20.4016  13676.5  116.327
 20.4436  13479.3  116.051
 20.4856  13732.7  116.918
 20.5276  13486.3  116.333
 20.5696  13652  116.478
 20.6116  13265.7  115.101
 20.6536  13286.6  114.767
 20.6956  13381  115.248
 20.7376  13197.6  114.662
 20.7796  13293.1  114.77
 20.8216  13476.8  115.273
 20.8636  13393.1  115.293
 20.9056  13223.6  114.494
 20.9476  13252.4  114.463
 20.9896  13340.9  114.711
 21.0316  13183.6  113.936
 21.0736  13221.5  114.623
 21.1156  12976.6  113.716
 21.1576  13288  115.112
 21.1996  12991.2  113.801
 21.2416  13181.8  114.452
 21.2836  13153.7  114.313
 21.3256  12970.4  113.586
 21.3676  13150.7  113.898
 21.4096  13022.4  113.674
 21.4516  12886.2  112.948
 21.4936  12793.9  112.806
 21.5356  12891.2  113.184
 21.5776  13008.5  113.533
 21.6196  12861.9  112.927
 21.6616  12711.9  112.348
 21.7036  12938.4  113.106
 21.7456  12931.3  113.163
 21.7876  12804.2  112.369
 21.8296  12650.7  111.537
 21.8716  12835.8  112.581
 21.9136  13030.3  113.621
 21.9556  12935  112.89
 21.9976  12740.2  112.069
 22.0396  12736.2  112.302
 22.0816  12526.2  111.892
 22.1236  12757.9  112.387
 22.1656  12596.6  111.868
 22.2076  12645.6  111.492
 22.2496  12396.6  110.421
 22.2916  12550.5  110.989
 22.3336  12557.7  111.721
 22.3756  12432.4  110.903
 22.4176  12144  109.467
 22.4596  12172.8  110.173
 22.5016  12342.1  110.445
 22.5436  12541.1  111.205
 22.5856  12706.1  112.186
 22.6276  12804.3  112.747
 22.6696  12498.5  111.753
 22.7116  12414.8  110.899
 22.7536  12540.5  111.43
 22.7956  12518.4  110.672
 22.8376  12242.4  109.948
 22.8796  12309.1  110.055
 22.9216  12488.2  111.389
 22.9636  12348  109.928
 23.0056  12270.4  109.712
 23.0476  12494  111.278
 23.0896  12699.5  111.569
 23.1316  12449.9  110.901
 23.1736  12649.8  114.732
 23.2156  13105.4  114.029
 23.2576  13087.2  114.154
 23.2996  12647.1  111.997
 23.3416  12894.5  113.623
 23.3836  12803.1  112.418
 23.4256  12970.4  113.295
 23.4676  12735.9  111.96
 23.5096  12703.3  112.481
 23.5516  12766.7  112.05
 23.5936  12716.7  112.749
 23.6356  12838.3  112.947
 23.6776  12672.6  112.742
 23.7196  12618.4  111.763
 23.7616  12663  111.875
 23.8036  12890.8  112.935
 23.8456  12609.7  111.244
 23.8876  12563.2  111.394
 23.9296  12470.5  111.472
 23.9716  12430  110.495
 24.0136  12449.2  111.49
 24.0556  12352.1  110.765
 24.0976  12354.8  110.598
 24.1396  12170.3  112.404
 24.1816  12221.2  111.373
 24.2236  12370.1  111.349
 24.2656  12247.7  110.261
 24.3076  12127.4  109.997
 24.3496  12171.8  110.08
 24.3916  12124.6  109.916
 24.4336  12161.9  110.273
 24.4756  12056.7  109.692
 24.5176  11967.8  108.914
 24.5596  11936.8  108.889
 24.6016  11816.7  108.639
 24.6436  11959.2  108.796
 24.6856  11800  107.813
 24.7276  11636.1  107.392
 24.7696  11699.8  107.795
 24.8116  11654.1  107.772
 24.8536  11650.9  107.746
 24.8956  11674.4  107.584
 24.9376  11658.2  107.444
 24.9796  11594.1  107.505
 25.0216  11482.7  107.102
 25.0636  11491.7  106.803
 25.1056  11263.9  106.167
 25.1476  11380  108.604
 25.1896  11320.5  106.844
 25.2316  11249.6  105.666
 25.2736  11309.1  105.717
 25.3156  11196.9  105.252
 25.3576  11146.6  105.453
 25.3996  11241.3  105.883
 25.4416  11298.1  106.128
 25.4836  11089.4  105.663
 25.5256  11111.9  105.128
 25.5676  11082.3  104.728
 25.6096  10872.6  104.3
 25.6516  11129.7  105.033
 25.6936  11165.8  105.513
 25.7356  10956.8  104.651
 25.7776  11125.8  105.047
 25.8196  10904.5  104.247
 25.8616  10973.4  104.504
 25.9036  11077.5  104.45
 25.9456  10850.1  103.98
 25.9876  10968.2  104.591
 26.0296  11095.2  104.805
 26.0716  10954.8  104.475
 26.1136  11047.6  104.849
 26.1556  11007.9  103.952
 26.1976  10878.9  104.359
 26.2396  10943.4  104.072
 26.2816  10907.1  104.262
 26.3236  10879.2  104.2
 26.3656  11096.8  105.046
 26.4076  10990.5  104.738
 26.4496  11120.1  104.951
 26.4916  11222.7  105.329
 26.5336  11405.7  106.519
 26.5756  11544.3  107.048
 26.6176  11055.7  104.783
 26.6596  10947.6  104.582
 26.7016  10629.7  102.858
 26.7436  10951.2  104.489
 26.7856  10641.1  102.984
 26.8276  10623.3  102.861
 26.8696  10780.8  103.488
 26.9116  10729.3  103.172
 26.9536  10583.8  102.53
 26.9956  10507.3  102.195
 27.0376  10590.4  102.817
 27.0796  10568.6  102.47
 27.1216  10631.4  102.802
 27.1636  10398.3  101.833
 27.2056  10377  101.618
 27.2476  10507.4  102.233
 27.2896  10521.6  102.361
 27.3316  10322.9  101.178
 27.3736  10328.6  101.482
 27.4156  10459.5  101.949
 27.4576  10326.2  101.515
 27.4996  10465.5  101.81
 27.5416  10308.4  101.353
 27.5836  10349.7  101.391
 27.6256  10493  102.275
 27.6676  10387.4  101.752
 27.7096  10302.2  101.211
 27.7516  10300.6  101.355
 27.7936  10564  102.783
 27.8356  10483.5  102.002
 27.8776  10461.3  101.953
 27.9196  10244  100.757
 27.9616  10214.7  100.804
 28.0036  10160  100.496
 28.0456  10126.2  100.469
 28.0876  10047.7  100.168
 28.1296  10082.1  100.17
 28.1716  10195.6  100.748
 28.2136  10156.3  100.523
 28.2556  10085.7  100.284
 28.2976  9942.8  99.5644
 28.3396  9917.27  99.2333
 28.3816  10176.8  100.499
 28.4236  9937.3  99.4656
 28.4656  9849.67  99.0638
 28.5076  9981.58  99.36
 28.5496  9992.43  99.6699
 28.5916  10026.3  99.648
 28.6336  9935.32  99.5399
 28.6756  9958.04  98.8478
 28.7176  9939.67  99.3191
 28.7596  9855.56  98.7902
 28.8016  9837.06  98.8195
 28.8436  9650.45  98.0256
 28.8856  9871.3  99.001
 28.9276  9901.53  99.3997
 28.9696  9779.23  98.4414
 29.0116  9725.85  98.3454
 29.0536  9657  98.2104
 29.0956  9785.65  98.5696
 29.1376  9612.98  97.6685
 29.1796  9779.02  98.5537
 29.2216  9811.33  98.5543
 29.2636  9891.57  98.9494
 29.3056  9725.84  97.9798
 29.3476  9743.25  98.5954
 29.3896  9734.01  98.663
 29.4316  9674.86  97.6999
 29.4736  9535.74  97.0506
 29.5156  9602.45  97.3172
 29.5576  9429.12  97.172
 29.5996  9523.01  96.9132
 29.6416  9553.18  97.1887
 29.6836  9492.76  96.8066
 29.7256  9554.23  97.6828
 29.7676  9400.61  96.5551
 29.8096  9401.38  96.5065
 29.8516  9281.8  96.2165
 29.8936  9550.75  97.6953
 29.9356  9504.99  97.2173
 29.9776  9415.66  96.9072
 30.0196  9391.15  96.1805
 30.0616  9438.42  96.7928
 30.1036  9489.75  96.8839
 30.1456  9304.3  96.1762
 30.1876  9390.28  96.5869
 30.2296  9296.07  96.0414
 30.2716  9402.69  96.2329
 30.3136  9378.07  96.6947
 30.3556  9717.12  98.6982
 30.3976  9406.97  98.5814
 30.4396  9784.49  97.8758
 30.4816  9606.55  96.5877
 30.5236  9641.82  96.7567
 30.5656  9528.48  96.8572
 30.6076  9651.83  96.89
 30.6496  9712.39  97.6021
 30.6916  9407.84  96.1382
 30.7336  9516.44  96.8411
 30.7756  9525.24  97.1972
 30.8176  9687.82  97.7088
 30.8596  9559.24  96.8252
 30.9016  9493.41  96.8563
 30.9436  9528.3  96.7663
 30.9856  9622.01  97.3634
 31.0276  9604.81  96.9043
 31.0696  9506.29  96.8415
 31.1116  9292.21  95.8317
 31.1536  9375.25  96.141
 31.1956  9314.25  95.9253
 31.2376  9108.43  94.8787
 31.2796  9415.34  95.9998
 31.3216  9506.08  96.3771
 31.3636  9536.25  97.2561
 31.4056  9392.06  97.8333
 31.4476  9405.07  95.8019
 31.4896  9298.02  95.7619
 31.5316  9318.37  95.3081
 31.5736  9469.42  95.8676
 31.6156  9356.51  95.2987
 31.6576  9547.03  96.3451
 31.6996  9541.2  95.9939
 31.7416  9299.64  95.8427
 31.7836  9517.05  95.9468
 31.8256  9316.52  95.2791
 31.8676  9402.34  95.6465
 31.9096  9293.21  95.4474
 31.9516  9080.48  94.5136
 31.9936  9170.8  94.809
 32.0356  9281.27  95.429
 32.0776  9209.65  94.949
 32.1196  9359.08  95.8213
 32.1616  9412.25  95.5352
 32.2036  9180.73  94.8634
 32.2456  9164.16  95.1524
 32.2876  9228.56  94.8234
 32.3296  9257.73  95.0984
 32.3716  9025.42  94.0143
 32.4136  9074.03  94.4668
 32.4556  9152.19  94.3048
 32.4976  9080.52  93.7929
 32.5396  9090.91  93.9024
 32.5816  9104.43  94.0083
 32.6236  9126.53  94.2888
 32.6656  9106.18  94.7281
 32.7076  8963.41  93.6371
 32.7496  9014.98  93.5735
 32.7916  9093.37  93.9474
 32.8336  9042.46  93.781
 32.8756  9186.34  94.3217
 32.9176  8974.75  93.6319
 32.9596  9049.25  94.0824
 33.0016  8931.51  93.2436
 33.0436  8986.6  93.7065
 33.0856  8976.99  93.7552
 33.1276  8823.01  92.676
 33.1696  8980.78  93.3317
 33.2116  9024.59  93.8003
 33.2536  9099.76  94.1787
 33.2956  8929.38  93.3829
 33.3376  9110.93  94.0174
 33.3796  9014.43  93.7753
 33.4216  8938.64  92.9684
 33.4636  8983.66  93.3624
 33.5056  8872.41  92.8676
 33.5476  8967.71  93.4954
 33.5896  9017.21  93.5316
 33.6316  8860.54  93.0443
 33.6736  8899.7  93.5039
 33.7156  8830.72  93.1719
 33.7576  8935.8  93.3619
 33.7996  8912.17  92.9983
 33.8416  8764.44  92.4121
 33.8836  8769.33  92.2132
 33.9256  9009.8  93.5229
 33.9676  8872.86  92.7079
 34.0096  8802.1  92.6416
 34.0516  8718.07  91.8432
 34.0936  8709.86  92.0733
 34.1356  8774.31  92.1525
 34.1776  8698.08  91.7411
 34.2196  8670.7  91.7843
 34.2616  8668.01  91.9772
 34.3036  8734.02  92.5093
 34.3456  8604.02  91.5699
 34.3876  8777.38  92.4642
 34.4296  8606.77  91.254
 34.4716  8775.19  92.2902
 34.5136  8660.48  91.8782
 34.5556  8521.83  91.3943
 34.5976  8790.81  92.638
 34.6396  8671.26  91.7142
 34.6816  8732.67  92.1477
 34.7236  8664.06  91.5489
 34.7656  8600.44  91.4357
 34.8076  8686.2  92.2201
 34.8496  8521.62  91.191
 34.8916  8666.97  91.83
 34.9336  8607.67  91.4982
 34.9756  8660.64  91.6982
 35.0176  8627.35  92.0487
 35.0596  8854.91  93.0776
 35.1016  8715.98  92.093
 35.1436  8896.56  92.7209
 35.1856  8680.58  91.7252
 35.2276  8614.14  91.5459
 35.2696  8657.52  91.9662
 35.3116  8487.55  91.1606
 35.3536  8458.93  90.709
 35.3956  8538.95  90.8529
 35.4376  8619.02  91.8433
 35.4796  8582.16  91.6832
 35.5216  8626.12  91.8169
 35.5636  8381.84  91.3155
 35.6056  8475.91  90.8444
 35.6476  8564.73  91.2167
 35.6896  8582.88  91.4925
 35.7316  8397.01  90.3901
 35.7736  8468.26  90.9678
 35.8156  8417.8  90.6925
 35.8576  8484.45  91.2967
 35.8996  8551.49  91.6219
 35.9416  8453.44  90.6134
 35.9836  8511.74  91.2626
 36.0256  8586.04  91.6795
 36.0676  8645.5  91.5006
 36.1096  8580.96  91.5513
 36.1516  8592.43  91.5038
 36.1936  8526.22  90.9869
 36.2356  8486.19  91.4269
 36.2776  8476.67  90.8521
 36.3196  8500.59  90.6493
 36.3616  8415.59  90.3191
 36.4036  8439.6  90.5235
 36.4456  8433.43  90.695
 36.4876  8362.61  90.2512
 36.5296  8339.55  90.1717
 36.5716  8360.29  91.0623
 36.6136  8266.32  89.3398
 36.6556  8237.39  89.3755
 36.6976  8209.71  89.7257
 36.7396  8251.51  89.7775
 36.7816  8005.21  88.7054
 36.8236  8074.62  89.0143
 36.8656  8040.38  88.8915
 36.9076  8066.72  89.0433
 36.9496  8059.34  89.0175
 36.9916  8069.09  88.551
 37.0336  8138.28  89.2399
 37.0756  8076.12  88.6958
 37.1176  8007.58  88.6749
 37.1596  8012.02  88.6135
 37.2016  8062.01  89.0741
 37.2436  8192.73  89.148
 37.2856  7962.16  88.1435
 37.3276  8181.6  88.7017
 37.3696  7988.36  88.5219
 37.4116  8014.57  88.5709
 37.4536  8001.84  88.3697
 37.4956  7950.62  88.1199
 37.5376  8303.52  91.6795
 37.5796  8152.37  90.7529
 37.6216  8189.49  89.2141
 37.6636  8199.47  89.1497
 37.7056  8109.43  88.8594
 37.7476  8290.69  89.3842
 37.7896  8077.72  88.7346
 37.8316  8119.68  89.1165
 37.8736  8032.71  88.1727
 37.9156  8192.21  89.0348
 37.9576  8113.52  88.6649
 37.9996  8024.93  87.7462
 38.0416  8200.77  89.5126
 38.0836  8222.22  89.5322
 38.1256  8211.89  89.4543
 38.1676  7967.76  88.233
 38.2096  8196  89.0998
 38.2516  8137.85  88.9122
 38.2936  8202.64  89.153
 38.3356  8040.64  88.1959
 38.3776  8045.65  88.4733
 38.4196  7972.13  87.925
 38.4616  8067.84  88.6991
 38.5036  8203.32  89.2791
 38.5456  8008.13  89.0515
 38.5876  8045.06  89.2784
 38.6296  8128.36  88.6903
 38.6716  8131.84  88.528
 38.7136  8001.17  87.7609
 38.7556  7972.19  88.1063
 38.7976  8058.19  88.4958
 38.8396  7955.95  88.404
 38.8816  7982.26  88.345
 38.9236  8011.36  88.297
 38.9656  7961.3  87.9316
 39.0076  7942.93  87.2365
 39.0496  8185.46  89.1199
 39.0916  8197.36  88.8272
 39.1336  8028.71  88.3146
 39.1756  8098.26  88.7602
 39.2176  7913.35  88.2864
 39.2596  8009.93  88.7401
 39.3016  7988.98  88.2025
 39.3436  7965.08  88.4858
 39.3856  8102.61  88.6889
 39.4276  8104.32  89.2058
 39.4696  8044.25  88.4929
 39.5116  8139.29  89.5316
 39.5536  8043.68  89.4239
 39.5956  7973.19  88.1411
 39.6376  7926  87.714
 39.6796  8020.6  88.1458
 39.7216  7980.14  88.0228
 39.7636  7968.48  88.5269
 39.8056  8005.1  88.5042
 39.8476  7865.57  87.9893
 39.8896  7977.71  88.2392
 39.9316  7819.8  87.6179
 39.9736  7992.87  88.1502
 40.0156  7928.44  87.6237
 40.0576  7866.73  87.6323
 40.0996  7965.22  87.3655
 40.1416  8027.69  88.5009
 40.1836  7999.72  88.2386
 40.2256  7969.77  88.1131
 40.2676  7942.31  88.0556
 40.3096  8034.02  88.5029
 40.3516  7982.38  88.4062
 40.3936  8133.11  88.7002
 40.4356  8018.94  88.2887
 40.4776  8044.19  88.8358
 40.5196  7987.78  88.6517
 40.5616  8125.64  89.045
 40.6036  7941.04  88.2887
 40.6456  7982  88.1212
 40.6876  8147.51  89.0205
 40.7296  7971.58  88.1927
 40.7716  8051.39  88.7598
 40.8136  7876.72  87.7384
 40.8556  8068.24  88.9213
 40.8976  8003.47  88.491
 40.9396  7993.23  88.7742
 40.9816  8030.12  88.2742
 41.0236  7999.99  87.8867
 41.0656  8169.19  89.3542
 41.1076  8089  88.6875
 41.1496  8093.02  88.6105
 41.1916  7990.16  88.371
 41.2336  8038.56  88.6305
 41.2756  7927.06  87.6231
 41.3176  7962.12  88.4234
 41.3596  8105.08  88.9508
 41.4016  7875.55  87.9344
 41.4436  8010.9  88.4722
 41.4856  7951.39  88.3177
 41.5276  7936.47  88.2515
 41.5696  8076.75  88.6395
 41.6116  7960.28  88.3955
 41.6536  7881.84  87.8156
 41.6956  8033.81  88.7245
 41.7376  7884.98  87.9299
 41.7796  7858.98  87.7127
 41.8216  8054.56  88.9851
 41.8636  7968.2  88.4492
 41.9056  7901.29  87.8673
 41.9476  8087.84  89.1376
 41.9896  8056.4  88.6208
 42.0316  8078.69  88.8373
 42.0736  8078.04  88.9328
 42.1156  7955.64  88.0918
 42.1576  7915.77  87.9806
 42.1996  8002.99  88.5928
 42.2416  8028.31  88.3206
 42.2836  7981.48  88.1747
 42.3256  7974.12  88.2453
 42.3676  8090.68  88.69
 42.4096  8015.71  88.2436
 42.4516  8100.86  88.7936
 42.4936  7917.45  87.8608
 42.5356  7801.35  87.351
 42.5776  7974.53  88.2547
 42.6196  7947.08  88.0742
 42.6616  7865.67  87.872
 42.7036  7878.95  87.3336
 42.7456  8033.46  88.5338
 42.7876  7806.45  87.3688
 42.8296  8000.03  88.3381
 42.8716  7766.82  87.1487
 42.9136  7789.12  87.0705
 42.9556  7904.84  87.8425
 42.9976  7915.03  87.8731
 43.0396  7930.43  87.6789
 43.0816  7819.91  87.453
 43.1236  7881.67  87.8476
 43.1656  7908.85  87.8141
 43.2076  7884.49  87.794
 43.2496  7831.37  87.3206
 43.2916  7803.36  87.524
 43.3336  7819.38  87.4423
 43.3756  7865.67  87.4565
 43.4176  7744.47  86.8708
 43.4596  7786.72  86.9562
 43.5016  7847.62  87.6924
 43.5436  7830.43  87.5122
 43.5856  7752.79  87.1069
 43.6276  7765.85  87.0623
 43.6696  7785.77  87.3186
 43.7116  7810.59  87.076
 43.7536  7916.99  88.1666
 43.7956  7770.33  88.5599
 43.8376  7662.24  86.4697
 43.8796  7664.85  86.5703
 43.9216  7774.08  87.1015
 43.9636  7594.71  86.1916
 44.0056  7572.35  86.3028
 44.0476  7540.43  85.7481
 44.0896  7688.12  86.9349
 44.1316  7558.08  85.8654
 44.1736  7617.5  86.1856
 44.2156  7602.52  85.9583
 44.2576  7736.47  87.0315
 44.2996  7609.61  86.2892
 44.3416  7690.17  86.4943
 44.3836  7638.98  86.5444
 44.4256  7497.47  85.3796
 44.4676  7510.06  85.6105
 44.5096  7618.83  86.3743
 44.5516  7554  85.9643
 44.5936  7581.85  86.0821
 44.6356  7522.65  85.483
 44.6776  7606.2  86.2805
 44.7196  7518.87  86.0474
 44.7616  7653.21  88.1857
 44.8036  7572.58  86.1351
 44.8456  7735.35  87.2603
 44.8876  7739.25  87.1256
 44.9296  7704.35  86.38
 44.9716  7724.85  86.9023
 45.0136  7799.04  87.2806
 45.0556  7773.81  87.1134
 45.0976  7559.41  86.0619
 45.1396  7714.46  86.6798
 45.1816  7677.24  86.2483
 45.2236  7673.32  86.303
 45.2656  7568.44  86.2087
 45.3076  7788.82  87.2198
 45.3496  7622.41  86.6106
 45.3916  7574.99  86.6095
 45.4336  7680.46  87.0529
 45.4756  7536.11  86.0625
 45.5176  7731.9  86.8078
 45.5596  7628.21  86.3445
 45.6016  7563.93  86.4029
 45.6436  7597.87  85.7695
 45.6856  7555.29  86.1829
 45.7276  7547.46  87.9967
 45.7696  7581.5  87.3478
 45.8116  7693.5  87.4236
 45.8536  7431.95  85.8162
 45.8956  7649.06  86.4016
 45.9376  7571.7  85.4221
 45.9796  7613.41  86.3601
 46.0216  7740.5  87.4116
 46.0636  7727.58  86.464
 46.1056  7758.76  86.6356
 46.1476  7701.45  86.9192
 46.1896  7610.75  86.551
 46.2316  7627.27  86.4996
 46.2736  7504.82  86.1923
 46.3156  7689.7  86.8215
 46.3576  7582.05  86.4146
 46.3996  7598.13  86.6678
 46.4416  7609.42  86.3043
 46.4836  7518.52  86.1529
 46.5256  7593.83  86.5137
 46.5676  7600.49  86.6731
 46.6096  7604.03  86.6182
 46.6516  7544.29  85.3167
 46.6936  7688.85  86.6359
 46.7356  7757.62  87.1242
 46.7776  7500.36  86.5209
 46.8196  7510.03  86.1621
 46.8616  7327.19  85.0518
 46.9036  7414.69  85.2196
 46.9456  7416.76  84.8686
 46.9876  7574.12  85.8477
 47.0296  7446.5  85.81
 47.0716  7435.83  85.5777
 47.1136  7526.11  85.7639
 47.1556  7474.51  85.3389
 47.1976  7574.3  85.9825
 47.2396  7505.94  86.0052
 47.2816  7461.9  85.4528
 47.3236  7402.36  85.4791
 47.3656  7536.8  86.1881
 47.4076  7385.94  85.1131
 47.4496  7577.29  86.3083
 47.4916  7442.52  85.7275
 47.5336  7461.8  85.654
 47.5756  7499.47  85.9459
 47.6176  7313.2  84.8123
 47.6596  7422.96  85.1642
 47.7016  7650.46  86.263
 47.7436  7520.9  85.8742
 47.7856  7507.78  85.8169
 47.8276  7324.89  84.818
 47.8696  7427.5  85.4958
 47.9116  7511.09  85.691
 47.9536  7486.36  85.4887
 47.9956  7472.97  86.1349
 48.0376  7425.64  85.635
 48.0796  7615.53  86.8331
 48.1216  7464.96  85.808
 48.1636  7580.26  86.022
 48.2056  7515.05  85.9273
 48.2476  7508.71  86.2034
 48.2896  7502.94  86.0749
 48.3316  7444.39  85.6828
 48.3736  7590.41  86.5407
 48.4156  7436.14  85.5085
 48.4576  7437.93  85.8191
 48.4996  7559.36  85.9607
 48.5416  7526.01  86.0996
 48.5836  7414.57  85.1357
 48.6256  7536.64  86.0421
 48.6676  7456.88  86.1084
 48.7096  7465.78  85.407
 48.7516  7382.25  85.0921
 48.7936  7390.78  85.2015
 48.8356  7431.36  85.4862
 48.8776  7365.84  85.6034
 48.9196  7476.81  85.6825
 48.9616  7372.96  85.4822
 49.0036  7375.17  85.8391
 49.0456  7326.79  85.5451
 49.0876  7373.6  85.4436
 49.1296  7355.24  85.4042
 49.1716  7293.52  84.9109
 49.2136  7389.95  85.4011
 49.2556  7499.81  86.0643
 49.2976  7361.83  85.3327
 49.3396  7418.18  85.7151
 49.3816  7587.44  86.0987
 49.4236  7375.99  85.3171
 49.4656  7335.76  85.1142
 49.5076  7449.6  85.5153
 49.5496  7416.74  85.2663
 49.5916  7457.74  85.541
 49.6336  7371.49  85.2577
 49.6756  7394.59  85.6213
 49.7176  7330.24  85.192
 49.7596  7406.43  85.5707
 49.8016  7487.21  85.7652
 49.8436  7253.79  84.724
 49.8856  7395.28  85.5595
 49.9276  7339.71  85.3417
 49.9696  7328.15  85.2475
 50.0116  7269.07  85.0422
 50.0536  7353.29  85.4715
 50.0956  7288.77  85.1793
 50.1376  7309.13  84.9632
 50.1796  7248.89  84.9138
 50.2216  7337.84  85.4184
 50.2636  7261.61  84.5866
 50.3056  7298  84.9853
 50.3476  7300.35  85.0141
 50.3896  7342.23  85.2263
 50.4316  7369.11  85.2156
 50.4736  7215.6  84.5482
 50.5156  7306.94  85.0601
 50.5576  7483.65  85.8489
 50.5996  7247.12  84.7664
 50.6416  7229.16  84.5859
 50.6836  7344.12  85.3172
 50.7256  7404.21  85.5801
 50.7676  7498.68  86.4167
 50.8096  7258.19  84.5696
 50.8516  7172.96  84.5192
 50.8936  7199.73  84.4502
 50.9356  7260.21  84.9142
 50.9776  7263.38  85.0913
 51.0196  7021.36  83.7872
 51.0616  7113.57  83.661
 51.1036  7232.86  84.7204
 51.1456  7148.31  84.1382
 51.1876  7161.51  83.5282
 51.2296  7179.26  84.2901
 51.2716  7019.04  83.0465
 51.3136  7066.31  83.7962
 51.3556  7086.95  83.5242
 51.3976  7105.53  83.793
 51.4396  7040.81  83.7306
 51.4816  6991.1  83.2864
 51.5236  7124.77  84.1704
 51.5656  7012.33  83.0882
 51.6076  7116.79  83.7949
 51.6496  7139.25  84.1143
 51.6916  7097.5  84.237
 51.7336  6903.7  83.1696
 51.7756  6997.36  83.4237
 51.8176  7047.86  83.8244
 51.8596  6943.19  83.2294
 51.9016  7096.47  83.7415
 51.9436  7126.25  85.4379
 51.9856  7151.99  86.0149
 52.0276  7195.11  84.7134
 52.0696  7280.35  85.2847
 52.1116  7106.77  84.39
 52.1536  7187.78  84.7471
 52.1956  7135.04  83.8849
 52.2376  7231.74  84.626
 52.2796  7096.32  83.6503
 52.3216  6919.87  83.2971
 52.3636  7069.79  83.7567
 52.4056  7108.27  83.8419
 52.4476  7091.76  84.1157
 52.4896  7008.9  83.6684
 52.5316  7109.14  84.3275
 52.5736  6963.37  83.1616
 52.6156  7115.71  84.477
 52.6576  7013.36  83.2869
 52.6996  6883.03  83.5142
 52.7416  6970.84  83.8934
 52.7836  7057.4  84.3022
 52.8256  7079.92  83.6297
 52.8676  6936.74  83.3682
 52.9096  7069.77  84.2291
 52.9516  6967.43  84.0258
 52.9936  6999.15  84.6058
 53.0356  7011.53  83.6338
 53.0776  7058.15  84.2364
 53.1196  7051.56  84.2995
 53.1616  7032.08  84.2288
 53.2036  6981.89  83.8932
 53.2456  6938.64  83.7404
 53.2876  7029.81  83.9605
 53.3296  7011.3  84.1973
 53.3716  7145.25  84.7355
 53.4136  7042.3  84.2805
 53.4556  6957.44  83.7992
 53.4976  6820.76  82.8049
 53.5396  6928.46  83.8742
 53.5816  7042.98  84.1829
 53.6236  6912.46  83.7581
 53.6656  7059.52  84.219
 53.7076  7010.99  83.8996
 53.7496  7064.16  84.3519
 53.7916  6983.13  84.0128
 53.8336  7024.37  84.1369
 53.8756  6838.85  83.5784
 53.9176  6904.75  83.3256
 53.9596  6743.66  83.1064
 54.0016  6745.49  82.4435
 54.0436  6581.14  81.653
 54.0856  6838.18  82.6451
 54.1276  6778.84  82.4802
 54.1696  6723.6  82.3193
 54.2116  6851.85  82.8417
 54.2536  6802.98  82.3664
 54.2956  6811.11  82.4425
 54.3376  6682.58  82.1624
 54.3796  6621.79  81.6728
 54.4216  6743.32  82.4999
 54.4636  6679.48  82.0664
 54.5056  6657.56  81.7282
 54.5476  6568.69  81.5243
 54.5896  6685.73  82.09
 54.6316  6742.6  82.2784
 54.6736  6664.42  81.834
 54.7156  6690.57  82.0621
 54.7576  6649.13  81.7871
 54.7996  6726.65  82.423
 54.8416  6658.55  82.0549
 54.8836  6627.94  81.9531
 54.9256  6626.8  81.7161
 54.9676  6591.73  81.3564
 55.0096  6547.34  81.135
 55.0516  6526.83  81.1837
 55.0936  6614.19  81.4446
 55.1356  6511.91  80.8392
 55.1776  6694.26  82.2154
 55.2196  6613.38  81.4989
 55.2616  6733.61  82.4602
 55.3036  6524.48  81.3496
 55.3456  6455.88  81.0519
 55.3876  6557.49  81.424
 55.4296  6477.09  80.9211
 55.4716  6596.72  81.6857
 55.5136  6526.91  81.0194
 55.5556  6588.34  81.456
 55.5976  6562.72  81.382
 55.6396  6654.86  81.8882
 55.6816  6482.8  80.6804
 55.7236  6555.91  81.2891
 55.7656  6510.84  80.6494
 55.8076  6526.82  80.7459
 55.8496  6460.07  80.6545
 55.8916  6509.44  81.131
 55.9336  6595.54  81.5285
 55.9756  6410.97  80.2482
 56.0176  6407.03  80.375
 56.0596  6469.1  80.7576
 56.1016  6321.02  79.8839
 56.1436  6404.23  80.63
 56.1856  6354.59  80.0589
 56.2276  6530.83  81.2173
 56.2696  6341.3  80.0136
 56.3116  6539.51  81.6234
 56.3536  6383.23  80.313
 56.3956  6433.16  80.6031
 56.4376  6407.76  80.4858
 56.4796  6258.24  79.3642
 56.5216  6369.04  80.4377
 56.5636  6381.31  80.0874
 56.6056  6507.98  81.1069
 56.6476  6446.88  80.3517
 56.6896  6582.33  81.6496
 56.7316  6305.37  79.8312
 56.7736  6338.35  80.0504
 56.8156  6417.35  80.5637
 56.8576  6293.86  79.7256
 56.8996  6405.04  80.3274
 56.9416  6219.51  79.3095
 56.9836  6407.24  80.1673
 57.0256  6271.88  79.631
 57.0676  6483.42  81.0886
 57.1096  6394.3  80.3108
 57.1516  6217.55  79.2163
 57.1936  6335.51  79.7487
 57.2356  6235.18  79.4475
 57.2776  6320.73  79.9498
 57.3196  6443.32  81.0782
 57.3616  6274.05  79.502
 57.4036  6331.44  79.917
 57.4456  6424.07  80.4896
 57.4876  6391.64  80.1379
 57.5296  6249.29  79.4742
 57.5716  6298.52  79.893
 57.6136  6176.81  78.9563
 57.6556  6273.54  79.7022
 57.6976  6276.26  79.5387
 57.7396  6219.91  79.5389
 57.7816  6191.77  79.7256
 57.8236  6210.15  79.6398
 57.8656  6258.62  79.6133
 57.9076  6215.72  79.3575
 57.9496  6197.95  79.6025
 57.9916  6278.22  79.5816
 58.0336  6129.55  78.9548
 58.0756  6399.05  80.2853
 58.1176  6288.42  79.5901
 58.1596  6218.44  79.7457
 58.2016  6088.76  78.1474
 58.2436  6043.66  78.2519
 58.2856  5958.42  77.6143
 58.3276  6019.52  78.3838
 58.3696  6038.48  78.2613
 58.4116  5977.5  77.7306
 58.4536  6074.76  78.2468
 58.4956  5923.43  77.4438
 58.5376  6065.49  77.9387
 58.5796  5971.24  77.741
 58.6216  6078.83  78.2631
 58.6636  6055.16  78.3215
 58.7056  6013.1  77.9084
 58.7476  5904.34  77.6405
 58.7896  5960  77.6533
 58.8316  5930.32  77.4553
 58.8736  6154.35  78.9159
 58.9156  6055.36  78.3244
 58.9576  6012.75  78.2561
 58.9996  6083.02  78.071
 59.0416  6065.78  78.3174
 59.0836  6068.78  78.2561
 59.1256  5993.03  78.1646
 59.1676  6011.92  78.9028
 59.2096  5946.97  77.7744
 59.2516  6081.57  78.2292
 59.2936  6072.08  78.4971
 59.3356  5872.73  77.0773
 59.3776  6050.08  78.4015
 59.4196  5976.91  77.8616
 59.4616  5960.09  77.6136
 59.5036  5931.43  77.462
 59.5456  5948.91  77.2715
 59.5876  5987.2  77.7101
 59.6296  5823.27  76.7068
 59.6716  5918.35  77.3879
 59.7136  5971.5  77.7229
 59.7556  5885.73  77.2974
 59.7976  5910.81  77.2068
 59.8396  5896.05  77.0059
 59.8816  5846.7  77.2198
 59.9236  5936.77  77.4589
 59.9656  5951.36  77.8129
 60.0076  5887.39  76.7589
 60.0496  5925.3  77.5007
 60.0916  5932.24  76.9735
 60.1336  5889.23  77.7872
 60.1756  5829.38  78.5544
 60.1996  0.0000000E+00  0.0000000E+00