File: docs/examples/opeando_xrd/IS17_D/Data/IS17_D/17_Db_f00102.xye
# /beamlines/bl04/projects/cycle2025-II/20250340211-lsimonelli/DATA/IS17_D/17_Db_f00102.xye : mythproc.py merge -s 0.006 -l 0.5 -f /beamlines/bl04/inhouse/ff/FlatField/ff_20Nov2024rod8mm60s_17keV.raw -b True -c true -o xye /beamlines/bl04/projects/cycle2025-II/20250340211-lsimonelli/DATA/IS17_D/17_Db_00102.dat
# IsMon = [6758153, 6760584, 6761393]  IsPos = [-1.4999, -2.4884, -3.4989]
# Wave = 0.4962  CalPath /beamlines/bl04/projects/cycle2025-II/20250340211-lsimonelli/DATA/Align/Si_Pos1_25keV_f00001.cal
# Date = 2025-09-24_22:07:11 Dt = 4.8000  Bin = 0.0060  <imon> = 6760043 +/- 1377 (Min/Max) 6758153 / 6761393
# icurr 250.8030  mocoIn 1.7100E-05  mocoOut 0.8018  i15 7.084e+06  imon 6.76004e+06  i7 4.6667  iEMpd_timer 4.8000  iEMpd_1 3.2633E-08  iEMpd_2 7.8178E-08  iEMpd_3 1.6181E-08  iEMpd_4 4.8067E-08  iEMhp_timer 4.8000  iEMhp_1 4.8985E-06  iEMhp_2 -2.4482E-08  iEMhp_3 -2.3375E-08  iEMhp_4 -2.1354E-08
#      9776
 1.5856  44794.3  217.358
 1.6276  51099.8  228.169
 1.6696  57736.6  241.679
 1.7116  64708.3  256.355
 1.7536  72372.7  269.957
 1.7956  76555.7  278.343
 1.8376  73570.5  273.294
 1.8796  63331  251.698
 1.9216  52430.3  229.927
 1.9636  45115.1  212.411
 2.0056  41107.9  201.972
 2.0476  38668.4  198.035
 2.0896  37094.5  192.826
 2.1316  36096.2  189.299
 2.1736  34606.6  186.822
 2.2156  35285.8  187.133
 2.2576  33904.1  184.091
 2.2996  32540.6  181.012
 2.3416  33169.5  181.292
 2.3836  32333.7  179.106
 2.4256  31165.2  176.413
 2.4676  30651.8  174.706
 2.5096  30776.4  175.118
 2.5516  29600.9  175.653
 2.5936  29517.6  171.908
 2.6356  28833  170.617
 2.6776  28958.1  169.855
 2.7196  28623.5  169.374
 2.7616  28373.7  168.415
 2.8036  28200.9  168.068
 2.8456  28180.4  168.67
 2.8876  27114.4  165.296
 2.9296  26986.8  165.055
 2.9716  26780.2  163.893
 3.0136  26494.9  163.09
 3.0556  26490.4  163.471
 3.0976  26461.2  162.256
 3.1396  25830.2  161.045
 3.1816  25721.5  160.657
 3.2236  25652.4  160.44
 3.2656  25081.9  157.671
 3.3076  25013.5  158.944
 3.3496  25338.8  158.875
 3.3916  25483.2  159.15
 3.4336  26046.7  161.504
 3.4756  26204.1  161.932
 3.5176  26903.6  163.83
 3.5596  26699.1  165.711
 3.6016  26838  163.706
 3.6436  25927.4  162.025
 3.6856  25673.2  159.503
 3.7276  24379.8  156.525
 3.7696  24236.2  156.253
 3.8116  24042.2  155.523
 3.8536  24042.2  155.455
 3.8956  24046.2  155.276
 3.9376  23849.7  154.914
 3.9796  23681.2  153.85
 4.0216  23803  153.271
 4.0636  23830.1  154.845
 4.1056  23688.4  154.034
 4.1476  24045.6  155.513
 4.1896  24182.6  155.804
 4.2316  24292.8  155.986
 4.2736  24660.9  156.962
 4.3156  24602.5  157.005
 4.3576  25695.2  160.357
 4.3996  25732.6  160.751
 4.4416  26305.5  162.11
 4.4836  26609.6  163.208
 4.5256  27354.7  166.096
 4.5676  27203.8  165.892
 4.6096  27742.6  166.162
 4.6516  28089  166.892
 4.6936  27919.2  167.221
 4.7356  28263.5  168.075
 4.7776  28150.5  167.562
 4.8196  27966.4  167.676
 4.8616  27461.7  165.634
 4.9036  27328  164.967
 4.9456  27076.7  164.866
 4.9876  26512  163.033
 5.0296  26659.1  163.326
 5.0716  26474.1  163.509
 5.1136  26841.7  164.361
 5.1556  26863.7  163.884
 5.1976  27477.2  165.739
 5.2396  27352.4  165.043
 5.2816  27527.6  166.058
 5.3236  27417  165.409
 5.3656  27144.4  165.53
 5.4076  26837.4  164.734
 5.4496  26855.2  164.277
 5.4916  26951.6  164.323
 5.5336  26822  164.015
 5.5756  26834.5  163.987
 5.6176  27114.1  164.281
 5.6596  27247.1  165.678
 5.7016  27296.8  165.083
 5.7436  27403.9  165.303
 5.7856  27402.6  165.748
 5.8276  27362.1  165.334
 5.8696  27873.2  167.05
 5.9116  27701.4  167.14
 5.9536  28031.8  167.879
 5.9956  28037.7  167.276
 6.0376  28297  168.67
 6.0796  28459.9  168.993
 6.1216  28389.9  168.98
 6.1636  28597.3  168.644
 6.2056  28420.7  168.804
 6.2476  28644.7  169.341
 6.2896  28975.2  169.994
 6.3316  28999.7  170.244
 6.3736  28919.2  169.897
 6.4156  29198  170.597
 6.4576  29175.3  170.149
 6.4996  29256.2  170.866
 6.5416  29579.7  171.935
 6.5836  29528  171.88
 6.6256  29614.5  171.837
 6.6676  30054.2  172.666
 6.7096  30186.9  173.923
 6.7516  30323  173.97
 6.7936  30452.2  173.734
 6.8356  30604.2  174.265
 6.8776  30622.6  175.121
 6.9196  30927.4  176.392
 6.9616  31138.4  176.433
 7.0036  31588.4  177.359
 7.0456  31984  177.759
 7.0876  31458.6  177.981
 7.1296  31534.5  177.324
 7.1716  31707.1  177.352
 7.2136  31343.6  176.095
 7.2556  31538.7  176.819
 7.2976  31528.1  177.277
 7.3396  31144.8  176.416
 7.3816  31232.3  176.879
 7.4236  31663.2  177.39
 7.4656  31877.4  177.459
 7.5076  32121.7  178.283
 7.5496  31942.6  178.323
 7.5916  31948.6  178.381
 7.6336  32707.4  180.46
 7.6756  32397.1  179.361
 7.7176  33059.5  181.517
 7.7596  32795.6  182.013
 7.8016  33623.3  186.541
 7.8436  32726.7  180.861
 7.8856  32988.2  181.034
 7.9276  33927.5  184
 7.9696  33703  183.696
 8.0116  35008.6  185.775
 8.0536  34955.9  185.884
 8.0956  34770.2  186.555
 8.1376  35395.6  187.702
 8.1796  35522.3  188.568
 8.2216  36258.7  188.99
 8.2636  36441.1  189.99
 8.3056  36085.6  189.815
 8.3476  36910.2  191.304
 8.3896  36898.2  191.36
 8.4316  36719.4  191.058
 8.4736  36845.4  190.862
 8.5156  36486.7  190.201
 8.5576  36118.5  190.192
 8.5996  36095  189.026
 8.6416  36171.1  190.471
 8.6836  35760.1  189.218
 8.7256  36484.7  190.581
 8.7676  36206.1  192.753
 8.8096  36600.1  191.113
 8.8516  36651.9  190.822
 8.8936  35821.9  188.605
 8.9356  36359.8  190.35
 8.9776  36347.5  190.392
 9.0196  36491.6  190.451
 9.0616  35576.4  187.596
 9.1036  35536.4  188.596
 9.1456  35059  186.649
 9.1876  35466.7  187.684
 9.2296  35203.7  186.434
 9.2716  34917.5  185.705
 9.3136  35068.3  186.117
 9.3556  35354.8  186.849
 9.3976  34202.1  184.294
 9.4396  34100.2  183.918
 9.4816  34106.6  183.804
 9.5236  34083  183.625
 9.5656  33598.9  182.675
 9.6076  33013.7  181.59
 9.6496  33162.3  181.874
 9.6916  32783.5  180.795
 9.7336  33096.4  181.459
 9.7756  32711.8  181.634
 9.8176  32715.8  181.164
 9.8596  32695  179.564
 9.9016  32314.1  178.503
 9.9436  32022.1  177.621
 9.9856  31421.1  176.211
 10.0276  31037.3  176.185
 10.0696  31657.2  176.985
 10.1116  30805.7  174.849
 10.1536  30472.7  174.051
 10.1956  30029.5  172.403
 10.2376  30153.1  172.276
 10.2796  29810.4  171.39
 10.3216  29530.4  170.872
 10.3636  29419.2  170.571
 10.4056  28819.4  169.22
 10.4476  29081.4  169.6
 10.4896  28716.1  167.993
 10.5316  28366.9  167.688
 10.5736  28268.7  167.807
 10.6156  28369.6  167.866
 10.6576  28312.9  166.273
 10.6996  27661  165.039
 10.7416  27461.2  164.649
 10.7836  26969.2  163.821
 10.8256  26662.5  163.311
 10.8676  26974  163.798
 10.9096  26552  162.551
 10.9516  26283.6  160.687
 10.9936  26399.9  161.252
 11.0356  26261.6  161.429
 11.0776  26007.4  159.985
 11.1196  25504.5  159.184
 11.1616  25199.1  157.905
 11.2036  25487.3  158.645
 11.2456  25340.6  158.895
 11.2876  25650.1  159.601
 11.3296  25007  157.492
 11.3716  25451.6  158.58
 11.4136  25355  159.147
 11.4556  25344  158.775
 11.4976  25637.4  158.703
 11.5396  25822.7  159.448
 11.5816  26497.9  161.952
 11.6236  26579.9  162.439
 11.6656  26471.5  161.255
 11.7076  25392.7  158.755
 11.7496  24777.2  159.999
 11.7916  24931.2  156.579
 11.8336  24510.8  156.127
 11.8756  24184.4  154.645
 11.9176  24380.3  154.945
 11.9596  24393.9  155.163
 12.0016  23958.9  154.535
 12.0436  24338.9  155.205
 12.0856  24018.3  154.674
 12.1276  23469.7  152.738
 12.1696  23781.3  152.98
 12.2116  23613.9  152.445
 12.2536  23465.4  152.762
 12.2956  23365.5  151.675
 12.3376  23633.2  152.878
 12.3796  23590.8  153.211
 12.4216  23430.6  151.895
 12.4636  23351.1  152.565
 12.5056  23317.6  151.796
 12.5476  23578  152.085
 12.5896  23439.1  152.277
 12.6316  23517.3  152.69
 12.6736  23252.7  152.309
 12.7156  23529.9  153.051
 12.7576  23340.4  152.68
 12.7996  23504.7  151.878
 12.8416  23138  151.719
 12.8836  23380.6  152.351
 12.9256  23841.8  152.891
 12.9676  23744.7  152.967
 13.0096  23995.4  154.888
 13.0516  24097  154.254
 13.0936  24296.9  155.302
 13.1356  24322.2  154.339
 13.1776  24065.5  154.54
 13.2196  24362.5  155.125
 13.2616  24033.4  154.389
 13.3036  24060.2  154.441
 13.3456  24116.2  155.152
 13.3876  24430.4  155.25
 13.4296  24143.1  154.504
 13.4716  24285.3  154.585
 13.5136  24198.4  154.429
 13.5556  24092.8  154.444
 13.5976  24240.2  155.369
 13.6396  24201.5  154.6
 13.6816  24242.7  155.208
 13.7236  24656.4  156.118
 13.7656  26028.6  160.848
 13.8076  26703.1  161.549
 13.8496  26363.9  161.211
 13.8916  24536.9  156.636
 13.9336  23813.2  153.608
 13.9756  23969.9  153.492
 14.0176  23351.7  152.078
 14.0596  23720.4  153.296
 14.1016  23491.7  152.985
 14.1436  23569.1  152.369
 14.1856  23002.1  150.815
 14.2276  22754.6  150.433
 14.2696  22925.5  150.897
 14.3116  22331.9  148.838
 14.3536  22073.3  148.135
 14.3956  22133.8  148.064
 14.4376  22414.9  148.791
 14.4796  22256  148.262
 14.5216  21851.6  147.689
 14.5636  21842.5  147.229
 14.6056  22093.1  147.628
 14.6476  21885.4  146.187
 14.6896  21278.9  144.684
 14.7316  21159.1  145.303
 14.7736  21021.9  143.978
 14.8156  20710.5  142.929
 14.8576  20728.3  142.849
 14.8996  20402.4  142.913
 14.9416  19979.5  141.437
 14.9836  20061.2  141.706
 15.0256  19550.1  138.81
 15.0676  19421.8  138.57
 15.1096  19261.9  137.832
 15.1516  19042.5  137.594
 15.1936  18961.3  136.736
 15.2356  18721.2  136.141
 15.2776  18736  136.199
 15.3196  18178.2  134.725
 15.3616  18439.6  135.449
 15.4036  18088.5  134.022
 15.4456  18436  134.957
 15.4876  18098.7  133.403
 15.5296  18039.5  133.468
 15.5716  17824.9  132.28
 15.6136  17730  132.251
 15.6556  17790.7  132.089
 15.6976  17623.8  131.398
 15.7396  17454.7  131.141
 15.7816  17357.2  130.303
 15.8236  17066.5  129.826
 15.8656  17169  130.07
 15.9076  17063.2  129.493
 15.9496  17759.3  134.927
 15.9916  17450.2  134.149
 16.0336  17400.3  130.852
 16.0756  17316.3  130.851
 16.1176  17278.7  130.785
 16.1596  16806.7  130.154
 16.2016  16891.3  129.245
 16.2436  16722.8  128.974
 16.2856  16646.6  128.189
 16.3276  16406.6  127.711
 16.3696  16667.8  128.552
 16.4116  16463.8  128.19
 16.4536  16494.6  128.136
 16.4956  16496.2  127.871
 16.5376  16320.7  127.383
 16.5796  16150.1  126.082
 16.6216  16200.9  126.547
 16.6636  16052.3  126.147
 16.7056  16229.9  126.713
 16.7476  16325.3  126.61
 16.7896  16042.4  126.251
 16.8316  16188.6  126.806
 16.8736  16304.2  127.509
 16.9156  16170.1  127.305
 16.9576  15940.7  127.184
 16.9996  16068  128.149
 17.0416  16194  127.054
 17.0836  16236.5  126.986
 17.1256  16017.5  126.129
 17.1676  16075  126.303
 17.2096  16066.9  126.176
 17.2516  15773.2  124.818
 17.2936  15896.9  125.654
 17.3356  15751.5  125.066
 17.3776  15449.1  124.039
 17.4196  15358.1  123.376
 17.4616  15412  123.502
 17.5036  15081.2  122.532
 17.5456  14875.7  122.314
 17.5876  14979.3  121.808
 17.6296  15180.6  122.454
 17.6716  14836.5  121.626
 17.7136  15023.6  122.523
 17.7556  14664.4  121.336
 17.7976  14791.1  121.602
 17.8396  14605.3  120.336
 17.8816  14598.5  120.866
 17.9236  14430.8  119.963
 17.9656  14297.9  119.922
 18.0076  14438.1  120.099
 18.0496  14392.8  119.056
 18.0916  14321.8  119.225
 18.1336  14184.4  118.83
 18.1756  14332.6  119.007
 18.2176  14115.1  118.3
 18.2596  13987  117.5
 18.3016  14376.7  119.386
 18.3436  14289.2  119.03
 18.3856  14110.5  118.601
 18.4276  14106  118.084
 18.4696  14021.7  117.812
 18.5116  14022  118.081
 18.5536  14058.2  118.591
 18.5956  13840.1  117.24
 18.6376  13818  117.538
 18.6796  13833.9  116.932
 18.7216  13943.3  117.886
 18.7636  13881.5  117.622
 18.8056  13817.3  117.278
 18.8476  13628.9  117.084
 18.8896  13760.5  116.997
 18.9316  13785.4  117.087
 18.9736  13633.4  116.141
 19.0156  13518  116.061
 19.0576  13920.4  116.636
 19.0996  13725  116.513
 19.1416  13737.1  116.96
 19.1836  13591.2  115.937
 19.2256  13421  115.524
 19.2676  13648.9  116.484
 19.3096  13602.8  116.536
 19.3516  13499.9  116.056
 19.3936  13569.9  116.255
 19.4356  13777.3  117.02
 19.4776  13634.3  116.502
 19.5196  13683.1  116.565
 19.5616  13439.1  115.78
 19.6036  13436.4  115.27
 19.6456  13641.8  116.258
 19.6876  13644.8  115.911
 19.7296  13804.1  117.053
 19.7716  13506.8  115.952
 19.8136  13750.5  117.188
 19.8556  13848  117.093
 19.8976  13705.8  116.538
 19.9396  13792  116.504
 19.9816  13812.5  116.838
 20.0236  14077.8  118.144
 20.0656  14245  118.846
 20.1076  14516.1  120.461
 20.1496  14459.3  120.217
 20.1916  14653.7  120.531
 20.2336  14429.3  119.524
 20.2756  14055.6  118.405
 20.3176  13733.1  116.783
 20.3596  13650  116.416
 20.4016  13528.1  115.691
 20.4436  13432.9  115.749
 20.4856  13362.4  115.339
 20.5276  13325.5  115.639
 20.5696  13442.4  115.584
 20.6116  13110.8  114.431
 20.6536  13254.4  114.538
 20.6956  13039.5  113.768
 20.7376  12946.4  113.566
 20.7796  12979.5  113.405
 20.8216  13061.9  113.483
 20.8636  13099.8  114.023
 20.9056  13031.6  113.663
 20.9476  12945.4  113.14
 20.9896  12955.7  113.043
 21.0316  12914.5  112.753
 21.0736  13005.2  113.681
 21.1156  12803.8  112.947
 21.1576  12824.2  113.079
 21.1996  12801.9  112.975
 21.2416  12907.1  113.261
 21.2836  12706.4  112.348
 21.3256  12734.3  112.589
 21.3676  12750  112.158
 21.4096  12726.5  112.368
 21.4516  12660.7  111.958
 21.4936  12446.6  111.259
 21.5356  12670  112.205
 21.5776  12692.3  112.144
 21.6196  12458.2  111.143
 21.6616  12474.4  111.293
 21.7036  12665.4  111.908
 21.7456  12558.4  111.511
 21.7876  12573.1  111.343
 21.8296  12446  110.635
 21.8716  12519.8  111.176
 21.9136  12711.1  112.227
 21.9556  12653.8  111.646
 21.9976  12430.7  110.695
 22.0396  12506.4  111.281
 22.0816  12334.2  111.034
 22.1236  12597.4  111.681
 22.1656  12511.4  111.792
 22.2076  12319.7  110.036
 22.2496  12313.2  110.038
 22.2916  12081.7  108.888
 22.3336  12113.1  109.735
 22.3756  12103  109.415
 22.4176  12214  109.771
 22.4596  12016.9  109.457
 22.5016  11980.3  108.807
 22.5436  12310.8  110.287
 22.5856  12195.9  109.899
 22.6276  12383.8  110.875
 22.6696  12201.2  110.409
 22.7116  12276.2  110.258
 22.7536  12116.7  109.52
 22.7956  12095.4  108.768
 22.8376  11984.9  108.78
 22.8796  12134.4  109.261
 22.9216  12242.2  110.285
 22.9636  12130.2  108.94
 23.0056  12044.3  108.688
 23.0476  12227.4  110.068
 23.0896  12233.6  109.493
 23.1316  12043.8  109.067
 23.1736  12390.5  113.552
 23.2156  12547.8  111.66
 23.2576  12652.2  112.259
 23.2996  12595.8  111.78
 23.3416  12608.9  112.368
 23.3836  12520.3  111.205
 23.4256  12659.6  111.947
 23.4676  12385.2  110.414
 23.5096  12541.7  111.767
 23.5516  12285.8  109.933
 23.5936  12504.4  111.813
 23.6356  12711.3  112.4
 23.6776  12263  110.604
 23.7196  12280.8  110.265
 23.7616  12456.4  110.966
 23.8036  12670.6  111.98
 23.8456  12696  111.491
 23.8876  12366.5  110.536
 23.9296  12215.6  110.344
 23.9716  12210.6  109.53
 24.0136  12213.2  110.439
 24.0556  12254.2  110.336
 24.0976  11954.5  108.8
 24.1396  12056.3  111.883
 24.1816  12150.8  110.724
 24.2236  12045.5  109.87
 24.2656  11978.8  109.039
 24.3076  11718.3  108.124
 24.3496  11958.3  109.099
 24.3916  12009.5  109.39
 24.4336  11824.7  108.743
 24.4756  12039.9  109.615
 24.5176  11685.6  107.611
 24.5596  11552  107.125
 24.6016  11646.3  107.852
 24.6436  11774.7  107.959
 24.6856  11651.8  107.137
 24.7276  11333.4  105.981
 24.7696  11694.5  107.76
 24.8116  11290.8  106.062
 24.8536  11413.8  106.646
 24.8956  11297.8  105.841
 24.9376  11263.9  105.595
 24.9796  11146.1  105.408
 25.0216  11148.5  105.541
 25.0636  11317.7  105.989
 25.1056  11051  105.429
 25.1476  11164.7  107.575
 25.1896  11100.4  105.796
 25.2316  11055.3  104.859
 25.2736  10963.1  104.073
 25.3156  11076.9  104.685
 25.3576  10893.6  104.25
 25.3996  10917.3  104.353
 25.4416  10866.6  104.081
 25.4836  10726.6  103.92
 25.5256  10966.1  104.441
 25.5676  10851.8  103.628
 25.6096  10814.1  104.01
 25.6516  10966.2  104.252
 25.6936  10859.6  104.049
 25.7356  10867.6  104.23
 25.7776  10798.8  103.497
 25.8196  10625.6  102.903
 25.8616  10689.4  103.141
 25.9036  10800.5  103.134
 25.9456  10702.4  103.257
 25.9876  10613.1  102.895
 26.0296  10774.5  103.191
 26.0716  10791.2  103.696
 26.1136  10830.3  103.814
 26.1556  10762.7  102.877
 26.1976  10602.4  103.025
 26.2396  10674.6  102.537
 26.2816  10717.7  103.349
 26.3236  10638.6  103.121
 26.3656  10739.2  103.341
 26.4076  10621.1  102.955
 26.4496  10895  103.875
 26.4916  10963.4  104.084
 26.5336  11165.4  105.476
 26.5756  11468.1  106.698
 26.6176  10843.2  103.766
 26.6596  10635.5  103.065
 26.7016  10469.9  102.029
 26.7436  10729.2  103.429
 26.7856  10424.9  101.934
 26.8276  10497.8  102.252
 26.8696  10490.5  102.087
 26.9116  10378.2  101.483
 26.9536  10416.6  101.72
 26.9956  10231.1  100.836
 27.0376  10431.1  102.04
 27.0796  10304.4  101.146
 27.1216  10401.7  101.682
 27.1636  10152.2  100.63
 27.2056  10199.4  100.74
 27.2476  10217.7  100.809
 27.2896  10173  100.723
 27.3316  10165.4  100.411
 27.3736  10022.9  99.9552
 27.4156  10126.9  100.316
 27.4576  10150.9  100.665
 27.4996  10165.3  100.339
 27.5416  10094.3  100.299
 27.5836  9983.75  99.5838
 27.6256  10184.6  100.763
 27.6676  10133.6  100.486
 27.7096  10044.7  99.9367
 27.7516  10043.2  99.9856
 27.7936  10360.7  101.8
 27.8356  10166.3  100.439
 27.8776  10257.5  100.959
 27.9196  9911.6  99.1043
 27.9616  10059.5  100.041
 28.0036  9934.94  99.3758
 28.0456  9929.25  99.4858
 28.0876  9864.3  99.2414
 28.1296  9846.88  98.9961
 28.1716  10025.7  99.9155
 28.2136  9853.29  99.0119
 28.2556  9861.91  99.169
 28.2976  9768.44  98.6916
 28.3396  9733.51  98.2741
 28.3816  9894.2  99.0898
 28.4236  9754.06  98.5333
 28.4656  9720.87  98.4164
 28.5076  9743.15  98.1571
 28.5496  9790.33  98.6628
 28.5916  9733.65  98.1874
 28.6336  9745.49  98.5918
 28.6756  9758.28  97.8561
 28.7176  9705.93  98.1443
 28.7596  9655.2  97.7809
 28.8016  9604.4  97.5616
 28.8436  9531.54  97.4261
 28.8856  9582.58  97.5412
 28.9276  9572.66  97.7347
 28.9696  9661.43  97.8389
 29.0116  9513.81  97.2725
 29.0536  9464.23  97.2276
 29.0956  9571.38  97.4768
 29.1376  9461.23  96.8902
 29.1796  9505.45  97.1677
 29.2216  9428.38  96.6098
 29.2636  9612.71  97.6238
 29.3056  9530.28  96.984
 29.3476  9434.81  97.0232
 29.3896  9606.94  98.0204
 29.4316  9448.42  96.5421
 29.4736  9327.01  95.9803
 29.5156  9359.13  96.0719
 29.5576  9222.32  96.0873
 29.5996  9185.11  95.1706
 29.6416  9273.04  95.738
 29.6836  9283.84  95.7264
 29.7256  9221.35  95.9573
 29.7676  9250.06  95.7734
 29.8096  9279.5  95.87
 29.8516  9139.93  95.4731
 29.8936  9256.85  96.1712
 29.9356  9335.03  96.3353
 29.9776  9121.1  95.3745
 30.0196  9265.58  95.5248
 30.0616  9148.58  95.2855
 30.1036  9190.29  95.3304
 30.1456  9198.77  95.6043
 30.1876  9146.46  95.3069
 30.2296  9136.36  95.208
 30.2716  9233.83  95.3565
 30.3136  9100.98  95.5089
 30.3556  9368.57  96.912
 30.3976  9284.91  97.9631
 30.4396  9503.65  96.474
 30.4816  9444.24  95.7752
 30.5236  9419.45  95.6396
 30.5656  9386.78  96.14
 30.6076  9375.55  95.4998
 30.6496  9314.1  95.5855
 30.6916  9155.77  94.8624
 30.7336  9354.9  96.0234
 30.7756  9231.56  95.47
 30.8176  9294.79  95.722
 30.8596  9339.64  95.7038
 30.9016  9385.34  96.2992
 30.9436  9395.46  96.095
 30.9856  9523.9  96.89
 31.0276  9217.26  94.9392
 31.0696  9155.3  95.1636
 31.1116  9305.26  95.9213
 31.1536  9220.32  95.3518
 31.1956  9083.97  94.7276
 31.2376  9057.23  94.619
 31.2796  9247.87  95.1459
 31.3216  9148.81  94.5559
 31.3636  9229.43  95.6855
 31.4056  9114.99  96.3673
 31.4476  9206.84  94.7897
 31.4896  9252.76  95.5282
 31.5316  9142.23  94.3611
 31.5736  9334.41  95.1807
 31.6156  9080.92  93.8843
 31.6576  9335.95  95.2668
 31.6996  9289.63  94.6893
 31.7416  9057.44  94.5847
 31.7836  9139.87  94.0265
 31.8256  9218.62  94.6996
 31.8676  9245.24  94.8248
 31.9096  9038.22  94.1097
 31.9516  9016.7  94.175
 31.9936  8974.25  93.772
 32.0356  9199.46  94.9898
 32.0776  9178.76  94.7924
 32.1196  8952.45  93.716
 32.1616  9090.78  93.8852
 32.2036  9139.51  94.654
 32.2456  8985.9  94.2223
 32.2876  9121.6  94.4337
 32.3296  9009.78  93.815
 32.3716  8876.6  93.2301
 32.4136  8772.34  92.8662
 32.4556  8970.45  93.3115
 32.4976  8877.95  92.7339
 32.5396  8894.89  92.8942
 32.5816  8941.15  93.2616
 32.6236  8863.72  92.913
 32.6656  8848.87  93.3748
 32.7076  8897.87  93.2881
 32.7496  8765.76  92.2715
 32.7916  8865.61  92.7592
 32.8336  8738.11  92.1785
 32.8756  8942.02  92.9702
 32.9176  8689.92  92.1312
 32.9596  8678.84  92.1424
 33.0016  8760.42  92.358
 33.0436  8917.53  93.0771
 33.0856  8731.16  92.4643
 33.1276  8679.67  91.9212
 33.1696  8746.8  92.1115
 33.2116  8693.14  92.058
 33.2536  8898.54  93.1245
 33.2956  8722.41  92.2906
 33.3376  8732.41  92.0791
 33.3796  8798.26  92.6497
 33.4216  8642.13  91.4066
 33.4636  8734.16  92.058
 33.5056  8641.09  91.8063
 33.5476  8762.02  92.4229
 33.5896  8813.1  92.479
 33.6316  8826.41  92.8692
 33.6736  8571.71  91.7606
 33.7156  8523.77  91.2688
 33.7576  8778.35  92.538
 33.7996  8719.55  91.9851
 33.8416  8468.8  90.8376
 33.8836  8581.17  91.3476
 33.9256  8737.03  92.1007
 33.9676  8685.3  91.7175
 34.0096  8573  91.4431
 34.0516  8579.33  91.1092
 34.0936  8497.11  90.8497
 34.1356  8623.44  91.3586
 34.1776  8530.99  90.8579
 34.2196  8550.38  91.149
 34.2616  8327.94  90.0895
 34.3036  8531.59  91.4354
 34.3456  8591.43  91.5022
 34.3876  8576.09  91.3997
 34.4296  8522.41  90.8052
 34.4716  8487.27  90.7148
 34.5136  8551.12  91.2989
 34.5556  8435.56  90.9307
 34.5976  8517.59  91.1872
 34.6396  8566.92  91.1654
 34.6816  8582.21  91.3497
 34.7236  8439.98  90.366
 34.7656  8524.72  91.0315
 34.8076  8459.47  91.0107
 34.8496  8337.18  90.2002
 34.8916  8376.82  90.2703
 34.9336  8442.4  90.608
 34.9756  8501.21  90.8517
 35.0176  8472.35  91.2223
 35.0596  8577.17  91.6078
 35.1016  8533.74  91.1304
 35.1436  8735.75  91.8931
 35.1856  8445.13  90.4703
 35.2276  8386.9  90.3234
 35.2696  8503.43  91.1444
 35.3116  8491.01  91.1731
 35.3536  8429.93  90.5602
 35.3956  8387  90.0359
 35.4376  8481.09  91.113
 35.4796  8418.44  90.8125
 35.5216  8373.78  90.5302
 35.5636  8076.54  89.6344
 35.6056  8355.58  90.2052
 35.6476  8489.56  90.8263
 35.6896  8358.08  90.2073
 35.7316  8171.13  89.1647
 35.7736  8351.72  90.3252
 35.8156  8368.27  90.4241
 35.8576  8312.96  90.3628
 35.8996  8399.74  90.8096
 35.9416  8341.58  90.014
 35.9836  8353.07  90.3946
 36.0256  8496.23  91.1924
 36.0676  8450.68  90.706
 36.1096  8279.42  89.9279
 36.1516  8406.07  90.4963
 36.1936  8424.29  90.4363
 36.2356  8238.3  90.082
 36.2776  8173.38  89.2136
 36.3196  8340.81  89.7961
 36.3616  8338.73  89.8464
 36.4036  8268.21  89.5979
 36.4456  8264.59  89.7861
 36.4876  8118.4  88.9279
 36.5296  8205.83  89.4409
 36.5716  8232.93  90.1337
 36.6136  7989.77  87.8223
 36.6556  8116.19  88.71
 36.6976  8033.64  88.7461
 36.7396  7970.66  88.1357
 36.7816  7860.07  87.8879
 36.8236  8008.48  88.6398
 36.8656  8080.48  89.1082
 36.9076  7904.78  88.0116
 36.9496  7881.43  87.8695
 36.9916  7985.78  88.0755
 37.0336  7975.24  88.3381
 37.0756  8051.66  88.5469
 37.1176  7851.55  87.7073
 37.1596  7881.08  87.8802
 37.2016  7855.58  87.9591
 37.2436  7914.37  87.6063
 37.2856  7950.6  88.0634
 37.3276  7886.03  87.244
 37.3696  7892.14  87.9776
 37.4116  7856.59  87.6877
 37.4536  7825.18  87.383
 37.4956  7669.1  86.7513
 37.5376  8081.6  90.4385
 37.5796  7858.71  89.1063
 37.6216  7869.72  87.4635
 37.6636  8094.8  88.5894
 37.7056  8068.33  88.6459
 37.7476  8104.74  88.3841
 37.7896  7908.89  87.81
 37.8316  7929.15  88.0863
 37.8736  7935.3  87.6363
 37.9156  7855.7  87.1956
 37.9576  8116.84  88.5473
 37.9996  7776.24  86.386
 38.0416  7906.9  87.9036
 38.0836  7967.99  88.152
 38.1256  7994.99  88.2746
 38.1676  7787.9  87.2401
 38.2096  8018.79  88.1499
 38.2516  7975.59  88.1171
 38.2936  7960.26  87.8305
 38.3356  7897.39  87.415
 38.3776  7801.81  87.132
 38.4196  7853.83  87.2801
 38.4616  7871.84  87.6215
 38.5036  7914.69  87.707
 38.5456  7811.7  87.9579
 38.5876  7824.31  88.031
 38.6296  7836.25  87.098
 38.6716  7835.68  86.8988
 38.7136  7897.44  87.1854
 38.7556  7831.87  87.3212
 38.7976  7919.09  87.7318
 38.8396  7971.39  88.4784
 38.8816  7761.85  87.1121
 38.9236  7873.75  87.5391
 38.9656  7710.37  86.5382
 39.0076  7815.65  86.5137
 39.0496  7980.49  88.001
 39.0916  7837.23  86.8538
 39.1336  7824.23  87.1776
 39.1756  7764.63  86.9061
 39.2176  7831.49  87.8131
 39.2596  7947.57  88.3863
 39.3016  7842.38  87.3928
 39.3436  7731  87.1723
 39.3856  7869.25  87.4059
 39.4276  8075.29  89.0494
 39.4696  7793.34  87.1057
 39.5116  7961.02  88.5561
 39.5536  7867.99  88.4524
 39.5956  7860  87.5056
 39.6376  7695.73  86.5923
 39.6796  7760.82  86.7018
 39.7216  7756.5  86.7789
 39.7636  7912.75  88.2071
 39.8056  7822.14  87.4938
 39.8476  7736.62  87.2658
 39.8896  7792.55  87.219
 39.9316  7683.47  86.8346
 39.9736  7929.64  87.8007
 40.0156  7740.79  86.5832
 40.0576  7761.9  87.0483
 40.0996  7853.72  86.747
 40.1416  7853.69  87.5429
 40.1836  7774.92  86.9919
 40.2256  7794.13  87.1237
 40.2676  7764.37  87.0727
 40.3096  7875.94  87.6291
 40.3516  7795.54  87.2882
 40.3936  7941.71  87.6547
 40.4356  7865.86  87.4394
 40.4776  7955.97  88.3459
 40.5196  7789.48  87.5367
 40.5616  8024.74  88.4901
 40.6036  7677.47  86.8127
 40.6456  7920.91  87.7766
 40.6876  7887.1  87.5862
 40.7296  7818.56  87.3374
 40.7716  7903.08  87.9305
 40.8136  7829.87  87.4698
 40.8556  7980.88  88.4478
 40.8976  7882.47  87.8123
 40.9396  7889.64  88.1994
 40.9816  7984.34  88.0188
 41.0236  7886.23  87.2606
 41.0656  7845.53  87.573
 41.1076  7877.8  87.5173
 41.1496  7903.63  87.5758
 41.1916  7836.81  87.5153
 41.2336  7867.07  87.6867
 41.2756  7808.98  86.9636
 41.3176  7841.2  87.7532
 41.3596  7819.16  87.3708
 41.4016  7767.93  87.3339
 41.4436  7826.77  87.455
 41.4856  7814.49  87.5515
 41.5276  7782.89  87.3862
 41.5696  7837.15  87.3224
 41.6116  7868.68  87.8938
 41.6536  7849.76  87.6345
 41.6956  7916.98  88.0823
 41.7376  7712.76  86.9557
 41.7796  7669.74  86.5897
 41.8216  7862.26  87.9152
 41.8636  7765.84  87.3202
 41.9056  7759.17  87.0702
 41.9476  7776.83  87.4061
 41.9896  7897.64  87.751
 42.0316  7811.89  87.3574
 42.0736  7844.98  87.6433
 42.1156  7738.34  86.8797
 42.1576  7795.15  87.3019
 42.1996  7863.78  87.8122
 42.2416  7852.33  87.2554
 42.2836  7694.51  86.5836
 42.3256  7720.28  86.8275
 42.3676  7968.45  88.0203
 42.4096  7820.93  87.174
 42.4516  7786.79  87.1169
 42.4936  7679.28  86.5245
 42.5356  7617.57  86.3173
 42.5776  7915.66  87.9269
 42.6196  7850.14  87.615
 42.6616  7618.58  86.486
 42.7036  7855.21  87.1988
 42.7456  7808.56  87.2997
 42.7876  7733.28  86.9468
 42.8296  7762.09  86.9668
 42.8716  7681.7  86.6738
 42.9136  7709.62  86.6251
 42.9556  7726.57  86.8454
 42.9976  7706.96  86.6949
 43.0396  7679.31  86.2826
 43.0816  7652.93  86.5146
 43.1236  7584.06  86.1719
 43.1656  7597.86  86.0756
 43.2076  7665.24  86.5702
 43.2496  7706.8  86.625
 43.2916  7649.32  86.6591
 43.3336  7811.62  87.3999
 43.3756  7765.28  86.9068
 43.4176  7570.68  85.8826
 43.4596  7651.85  86.2055
 43.5016  7613.44  86.3855
 43.5436  7610.98  86.2781
 43.5856  7613.46  86.3206
 43.6276  7722.69  86.8307
 43.6696  7571.84  86.1701
 43.7116  7668.81  86.2801
 43.7536  7708.4  87.0035
 43.7956  7453.55  86.7454
 43.8376  7466.48  85.3587
 43.8796  7396.45  85.0327
 43.9216  7516.06  85.6294
 43.9636  7542.91  85.8985
 44.0056  7576.92  86.3202
 44.0476  7502.53  85.6472
 44.0896  7475.29  85.7134
 44.1316  7412.27  84.882
 44.1736  7475.39  85.3688
 44.2156  7473.75  85.2112
 44.2576  7394.3  85.0791
 44.2996  7446.77  85.3555
 44.3416  7429.91  85.0177
 44.3836  7355.56  84.9204
 44.4256  7397.85  84.8067
 44.4676  7253.79  84.131
 44.5096  7368.84  84.9381
 44.5516  7316.5  84.5942
 44.5936  7367.76  84.8497
 44.6356  7424.21  84.9116
 44.6776  7537.25  85.8763
 44.7196  7391.98  85.3472
 44.7616  7474.56  87.1477
 44.8036  7429.51  85.3141
 44.8456  7579.33  86.3863
 44.8876  7556.57  86.1999
 44.9296  7537.41  85.44
 44.9716  7582.1  86.1182
 45.0136  7564.61  85.956
 45.0556  7610.08  86.1954
 45.0976  7526.88  85.8736
 45.1396  7505.94  85.5069
 45.1816  7446.76  85.1184
 45.2236  7603.94  85.9208
 45.2656  7396  85.2285
 45.3076  7417.73  85.1221
 45.3496  7409.06  85.3981
 45.3916  7432.19  85.7929
 45.4336  7504.09  86.0617
 45.4756  7421.41  85.4207
 45.5176  7523.41  85.6386
 45.5596  7538.8  85.8473
 45.6016  7456.1  85.795
 45.6436  7465.29  85.018
 45.6856  7454.72  85.6107
 45.7276  7299.14  86.0157
 45.7696  7394.59  86.2625
 45.8116  7459.69  86.0715
 45.8536  7346.95  85.3226
 45.8956  7398.06  84.9658
 45.9376  7418.89  84.5569
 45.9796  7494.06  85.6648
 46.0216  7548.99  86.3261
 46.0636  7519.36  85.2846
 46.1056  7364.7  84.4062
 46.1476  7377.17  85.0662
 46.1896  7558.71  86.2452
 46.2316  7395.84  85.1749
 46.2736  7359.79  85.3549
 46.3156  7378.06  85.0466
 46.3576  7520.15  86.0669
 46.3996  7456.73  85.8648
 46.4416  7389.95  85.048
 46.4836  7314.72  84.9753
 46.5256  7398.72  85.3988
 46.5676  7372.17  85.3601
 46.6096  7347.44  85.1354
 46.6516  7525.03  85.2046
 46.6936  7471.51  85.3988
 46.7356  7428.64  85.2488
 46.7776  7263.23  85.2027
 46.8196  7347.77  85.2289
 46.8616  7145.13  83.9906
 46.9036  7138.85  83.6147
 46.9456  7231.64  83.7978
 46.9876  7417.38  84.9519
 47.0296  7338.02  85.1015
 47.0716  7270.77  84.6219
 47.1136  7360.33  84.8211
 47.1556  7258.91  84.0957
 47.1976  7451.59  85.2867
 47.2396  7211.29  84.2993
 47.2816  7207.41  83.977
 47.3236  7280.49  84.76
 47.3656  7293.61  84.7777
 47.4076  7246.31  84.3055
 47.4496  7221.62  84.2603
 47.4916  7245.79  84.587
 47.5336  7294.13  84.6861
 47.5756  7397.08  85.3961
 47.6176  7246.72  84.4184
 47.6596  7251.95  84.1716
 47.7016  7384.56  84.7501
 47.7436  7332.95  84.7909
 47.7856  7365.52  85.0097
 47.8276  7296.03  84.6613
 47.8696  7288.3  84.6985
 47.9116  7311.4  84.5459
 47.9536  7355.26  84.7298
 47.9956  7212.82  84.6235
 48.0376  7236.33  84.5342
 48.0796  7371.36  85.4514
 48.1216  7304.05  84.8747
 48.1636  7433.48  85.1942
 48.2056  7250.85  84.4019
 48.2476  7328.72  85.1535
 48.2896  7345.31  85.1679
 48.3316  7331.19  85.0312
 48.3736  7349.11  85.1625
 48.4156  7400.64  85.4191
 48.4576  7258.45  84.7768
 48.4996  7409.22  85.0991
 48.5416  7431.27  85.5615
 48.5836  7342.29  84.7157
 48.6256  7361.7  85.0368
 48.6676  7287.32  85.1227
 48.7096  7287.6  84.3722
 48.7516  7335.3  84.8174
 48.7936  7278.45  84.6469
 48.8356  7304.93  84.7566
 48.8776  7233.55  84.9089
 48.9196  7436.63  85.4571
 48.9616  7170.75  84.2972
 49.0036  7245.44  85.0933
 49.0456  7145.61  84.4723
 49.0876  7259.26  84.6634
 49.1296  7145.02  84.1755
 49.1716  7117.55  84.1041
 49.2136  7276.31  84.7171
 49.2556  7321.07  85.0326
 49.2976  7243.64  84.6398
 49.3396  7167.27  84.2556
 49.3816  7289.48  84.5393
 49.4236  7347.87  85.1625
 49.4656  7127.89  83.8978
 49.5076  7298.41  84.6388
 49.5496  7319.98  84.8315
 49.5916  7256.4  84.3781
 49.6336  7232.59  84.4479
 49.6756  7285.28  84.982
 49.7176  7223.18  84.5627
 49.7596  7203.87  84.2193
 49.8016  7286.78  84.6246
 49.8436  7177.68  84.2873
 49.8856  7189.71  84.3481
 49.9276  7120.35  84.0506
 49.9696  7155.44  84.2347
 50.0116  7236.93  84.8546
 50.0536  7130.9  84.1785
 50.0956  7162.18  84.4219
 50.1376  7146.17  84.0356
 50.1796  7092.14  83.9904
 50.2216  7166  84.4142
 50.2636  7210.94  84.2907
 50.3056  7068.86  83.6349
 50.3476  7152.72  84.1561
 50.3896  7163.06  84.1861
 50.4316  7274.02  84.6663
 50.4736  7106.3  83.9045
 50.5156  7151.14  84.1593
 50.5576  7130.09  83.7942
 50.5996  7087.56  83.8247
 50.6416  7087.1  83.7476
 50.6836  7157.24  84.2186
 50.7256  7263.8  84.7648
 50.7676  7238.58  84.955
 50.8096  7149.88  83.9568
 50.8516  7125.65  84.2332
 50.8936  6974.19  83.1169
 50.9356  7276.42  84.9993
 50.9776  7146.49  84.404
 51.0196  6898.77  83.0529
 51.0616  7037.69  83.1967
 51.1036  7095.63  83.9062
 51.1456  7007.63  83.2941
 51.1876  7144.66  83.4328
 51.2296  7037.03  83.4405
 51.2716  6826.41  81.8922
 51.3136  6892.23  82.75
 51.3556  6905.12  82.4434
 51.3976  6899  82.5625
 51.4396  6701.96  81.6801
 51.4816  6884.57  82.6413
 51.5236  6891.89  82.7721
 51.5656  6833.77  82.017
 51.6076  6951.94  82.8074
 51.6496  6872.55  82.5263
 51.6916  6925  83.1999
 51.7336  6910  83.205
 51.7756  6917.1  82.9371
 51.8176  6804.67  82.3738
 51.8596  6946  83.2377
 51.9016  7058.59  83.5064
 51.9436  6971.19  84.4904
 51.9856  6932.26  84.6829
 52.0276  6978.2  83.4373
 52.0696  6983.88  83.5427
 52.1116  6876.34  83.0082
 52.1536  7015.92  83.7329
 52.1956  6927.8  82.6579
 52.2376  7119.08  83.9663
 52.2796  6918.34  82.6032
 52.3216  6956.86  83.5231
 52.3636  6911.52  82.8177
 52.4056  6887.87  82.5403
 52.4476  6852.18  82.685
 52.4896  6773.85  82.2649
 52.5316  7013.89  83.7669
 52.5736  6814.84  82.282
 52.6156  7056.84  84.1389
 52.6576  6907.84  82.6616
 52.6996  6724.48  82.5538
 52.7416  6830.47  83.1226
 52.7836  6861.55  83.1346
 52.8256  7101.25  83.7648
 52.8676  6874.12  82.9948
 52.9096  6824.34  82.7723
 52.9516  6939.99  83.8556
 52.9936  6836.32  83.6129
 53.0356  6938.97  83.211
 53.0776  6890.92  83.2038
 53.1196  6841.56  83.0341
 53.1616  6834.65  83.0345
 53.2036  6872.28  83.2298
 53.2456  6913.11  83.585
 53.2876  6908.13  83.2299
 53.3296  6911.71  83.5943
 53.3716  7013.06  83.9515
 53.4136  6874.53  83.2679
 53.4556  6828.36  83.0189
 53.4976  6809.15  82.7448
 53.5396  6884.92  83.6012
 53.5816  6890.35  83.2614
 53.6236  6788.61  83.0039
 53.6656  6803.78  82.693
 53.7076  6955.24  83.561
 53.7496  6892.12  83.3159
 53.7916  6904.56  83.5397
 53.8336  6804.62  82.8048
 53.8756  6675.59  82.5815
 53.9176  6822.43  82.8095
 53.9596  6552.75  81.9304
 54.0016  6638.13  81.768
 54.0436  6436.88  80.7562
 54.0856  6742.18  82.0554
 54.1276  6701.26  82.0071
 54.1696  6551.73  81.2378
 54.2116  6737.39  82.1425
 54.2536  6615.14  81.2004
 54.2956  6614.86  81.2579
 54.3376  6547.71  81.3356
 54.3796  6544.92  81.2008
 54.4216  6474.43  80.6596
 54.4636  6579.47  81.4373
 54.5056  6595.32  81.3473
 54.5476  6564.26  81.5042
 54.5896  6617.82  81.6636
 54.6316  6643.94  81.6586
 54.6736  6587.83  81.4133
 54.7156  6492.11  80.8417
 54.7576  6511.13  80.9339
 54.7996  6485.48  80.9229
 54.8416  6515.3  81.1671
 54.8836  6490.72  81.1116
 54.9256  6518.47  81.0407
 54.9676  6434.89  80.3785
 55.0096  6523.84  80.9687
 55.0516  6391.86  80.3684
 55.0936  6456.04  80.454
 55.1356  6436.92  80.3659
 55.1776  6541.18  81.2545
 55.2196  6490.06  80.7213
 55.2616  6619.86  81.7763
 55.3036  6328.53  80.1135
 55.3456  6268.91  79.8704
 55.3876  6407.44  80.4835
 55.4296  6349.02  80.1059
 55.4716  6472.16  80.9127
 55.5136  6432.3  80.4218
 55.5556  6575.52  81.3637
 55.5976  6362.13  80.1133
 55.6396  6489.54  80.8583
 55.6816  6342.95  79.7972
 55.7236  6314.3  79.6832
 55.7656  6409.78  80.0084
 55.8076  6339.13  79.5786
 55.8496  6368.51  80.0695
 55.8916  6316.69  79.9397
 55.9336  6531.77  81.1316
 55.9756  6323.24  79.705
 56.0176  6258.77  79.4397
 56.0596  6374.15  80.1617
 56.1016  6238.03  79.3235
 56.1436  6321.35  80.0923
 56.1856  6231.7  79.2886
 56.2276  6445.08  80.6742
 56.2696  6294.51  79.7108
 56.3116  6383.69  80.6255
 56.3536  6287.54  79.7174
 56.3956  6322.8  79.9114
 56.4376  6235.77  79.4178
 56.4796  6239.35  79.2531
 56.5216  6312.81  80.0887
 56.5636  6183.72  78.8315
 56.6056  6431.48  80.6469
 56.6476  6257.27  79.143
 56.6896  6426.31  80.6639
 56.7316  6242.63  79.4601
 56.7736  6210.4  79.2166
 56.8156  6300.8  79.8179
 56.8576  6096.57  78.4604
 56.8996  6207.05  79.0573
 56.9416  6246.65  79.6297
 56.9836  6343.05  79.7744
 57.0256  6174.77  79.0157
 57.0676  6276.61  79.7767
 57.1096  6177.3  78.9278
 57.1516  6133.01  78.7089
 57.1936  6264.9  79.3121
 57.2356  6076.75  78.4285
 57.2776  6184.86  79.0863
 57.3196  6207.96  79.5835
 57.3616  6210.1  79.1027
 57.4036  6239.38  79.3231
 57.4456  6263.88  79.4864
 57.4876  6217.33  79.0376
 57.5296  6188.93  79.182
 57.5716  6116.43  78.7195
 57.6136  6035.11  78.0424
 57.6556  6147.53  78.8819
 57.6976  6149.09  78.7382
 57.7396  6025.17  78.2799
 57.7816  6105.41  79.176
 57.8236  6042.53  78.5982
 57.8656  6188.32  79.1557
 57.9076  6137.22  78.8549
 57.9496  6166.11  79.3892
 57.9916  6150.94  78.8084
 58.0336  6096.38  78.7435
 58.0756  6081.29  78.2809
 58.1176  6204.29  79.0561
 58.1596  6026.73  78.5071
 58.2016  5854.56  76.6053
 58.2436  6022.69  78.1089
 58.2856  5920.53  77.3627
 58.3276  5867.6  77.3774
 58.3696  5901.37  77.3568
 58.4116  5842.31  76.8394
 58.4536  5991.02  77.6962
 58.4956  5908.01  77.3358
 58.5376  6023.38  77.6602
 58.5796  5739.92  76.2228
 58.6216  5873.13  76.924
 58.6636  5872.4  77.1272
 58.7056  5860.33  76.9035
 58.7476  5857.79  77.3259
 58.7896  5825.13  76.7613
 58.8316  5836.28  76.8295
 58.8736  5883.02  77.1478
 58.9156  5913.61  77.3914
 58.9576  5872.25  77.4359
 58.9996  5888.39  76.8033
 59.0416  5961.16  77.6341
 59.0836  5943.14  77.4358
 59.1256  5707.16  76.5661
 59.1676  5854.64  77.8469
 59.2096  5880.5  77.3409
 59.2516  5982.61  77.5925
 59.2936  5866.58  77.1597
 59.3356  5780.21  76.47
 59.3776  5765.14  76.5354
 59.4196  5798.69  76.6952
 59.4616  5635.08  75.47
 59.5036  5705.57  75.9749
 59.5456  6016.99  77.7148
 59.5876  5949.9  77.47
 59.6296  5690.08  75.8268
 59.6716  5734.99  76.1819
 59.7136  5724.85  76.1031
 59.7556  5733.47  76.2934
 59.7976  5836.83  76.7245
 59.8396  5922.24  77.1792
 59.8816  5806.27  76.9544
 59.9236  5884.71  77.1208
 59.9656  5775.8  76.6577
 60.0076  5955.66  77.205
 60.0496  5684.36  75.4502
 60.0916  5888.57  76.6919
 60.1336  5672.64  76.3457
 60.1756  5784.41  78.2531
 60.1996  5764.35  80.3021