File: docs/examples/opeando_xrd/IS17_D/Data/IS17_D/17_Da_f00049.xye
# /beamlines/bl04/projects/cycle2025-II/20250340211-lsimonelli/DATA/IS17_D/17_Da_f00049.xye : mythproc.py merge -s 0.006 -l 0.5 -f /beamlines/bl04/inhouse/ff/FlatField/ff_20Nov2024rod8mm60s_17keV.raw -b True -c true -o xye /beamlines/bl04/projects/cycle2025-II/20250340211-lsimonelli/DATA/IS17_D/17_Da_00049.dat
# IsMon = [6754271, 6757231, 6754327]  IsPos = [-1.4999, -2.4885, -3.4986]
# Wave = 0.4962  CalPath /beamlines/bl04/projects/cycle2025-II/20250340211-lsimonelli/DATA/Align/Si_Pos1_25keV_f00001.cal
# Date = 2025-09-24_07:12:50 Dt = 4.8000  Bin = 0.0060  <imon> = 6755276 +/- 1382 (Min/Max) 6754271 / 6757231
# icurr 249.5008  mocoIn 1.7020E-05  mocoOut 0.7986  i15 7.07086e+06  imon 6.75528e+06  i7 7.0000  iEMpd_timer 4.8000  iEMpd_1 3.5793E-08  iEMpd_2 7.9724E-08  iEMpd_3 1.8282E-08  iEMpd_4 4.9094E-08  iEMhp_timer 4.8000  iEMhp_1 4.8750E-06  iEMhp_2 -2.5096E-08  iEMhp_3 -2.3669E-08  iEMhp_4 -2.0897E-08
#      9776
 1.5856  41177.3  208.384
 1.6276  48269  221.745
 1.6696  54672.3  235.163
 1.7116  63436  253.805
 1.7536  72363.2  269.922
 1.7956  77870.2  280.703
 1.8376  74076.3  274.214
 1.8796  62233.9  249.499
 1.9216  50120.6  224.791
 1.9636  42270.9  205.593
 2.0056  38576.1  195.641
 2.0476  35803.7  190.546
 2.0896  34758.2  186.642
 2.1316  33597.3  182.617
 2.1736  32124.2  179.985
 2.2156  32465.6  179.487
 2.2576  31648  177.844
 2.2996  30400.1  174.946
 2.3416  30708.7  174.428
 2.3836  30212.9  173.121
 2.4256  29085.3  170.413
 2.4676  28529  168.536
 2.5096  28482.2  168.453
 2.5516  27957.7  170.739
 2.5936  27932.2  167.22
 2.6356  27297.2  166.005
 2.6776  27365.3  165.081
 2.7196  27062.6  164.694
 2.7616  26874.8  163.897
 2.8036  26469.8  162.83
 2.8456  26469.4  163.453
 2.8876  25917.7  161.591
 2.9296  25680.6  161.003
 2.9716  25337.1  159.408
 3.0136  24988.6  158.374
 3.0556  24970.7  158.715
 3.0976  25035.8  157.851
 3.1396  24941.6  158.275
 3.1816  24526  156.882
 3.2236  24121.9  155.592
 3.2656  24272.6  155.096
 3.3076  24359.1  156.852
 3.3496  24454.1  156.333
 3.3916  24604.1  156.383
 3.4336  25202  158.857
 3.4756  25349.4  159.255
 3.5176  26137.5  161.501
 3.5596  26116.1  163.903
 3.6016  26441.7  162.497
 3.6436  25456.2  160.543
 3.6856  25038.7  157.511
 3.7276  23991.5  155.273
 3.7696  23881.9  155.122
 3.8116  23377.1  153.357
 3.8536  23658.6  154.214
 3.8956  23540.4  153.649
 3.9376  23269  153.054
 3.9796  23255.2  152.471
 4.0216  23354.2  151.82
 4.0636  23309.1  153.168
 4.1056  23372.4  153.006
 4.1476  23376.9  153.342
 4.1896  23650.9  154.098
 4.2316  23802.5  154.422
 4.2736  24171.1  155.394
 4.3156  24596.8  156.993
 4.3576  25246.2  158.972
 4.3996  25384.5  159.464
 4.4416  25811.5  160.585
 4.4836  26375.1  162.476
 4.5256  26629.9  163.881
 4.5676  26885.4  164.922
 4.6096  27197.5  164.528
 4.6516  27708.5  165.771
 4.6936  27889.1  167.134
 4.7356  27852  166.848
 4.7776  27914.1  166.863
 4.8196  27689.7  166.848
 4.8616  27105  164.687
 4.9036  26984.9  163.936
 4.9456  26898.2  164.325
 4.9876  26264.7  162.28
 5.0296  26474.3  162.744
 5.0716  26573  163.683
 5.1136  26592.8  163.595
 5.1556  26834.1  163.794
 5.1976  27260.4  165.089
 5.2396  27455  165.372
 5.2816  27257.5  165.233
 5.3236  27150.8  164.618
 5.3656  26866  164.676
 5.4076  26669.5  164.221
 5.4496  26903.9  164.427
 5.4916  26831.7  163.96
 5.5336  26824.5  163.947
 5.5756  26648  163.436
 5.6176  26838.7  163.454
 5.6596  27041.1  165.047
 5.7016  27102.6  164.497
 5.7436  27331.2  165.465
 5.7856  27253.5  165.293
 5.8276  27669.5  166.264
 5.8696  27808.8  166.857
 5.9116  27561.5  166.694
 5.9536  27754.5  167.052
 5.9956  28240.1  167.872
 6.0376  28147.8  168.233
 6.0796  28371.3  168.732
 6.1216  28468.9  169.223
 6.1636  28675.6  168.896
 6.2056  28844.8  170.061
 6.2476  28915.6  170.146
 6.2896  29313.1  170.989
 6.3316  29163.1  170.729
 6.3736  29351.2  171.166
 6.4156  29471.4  171.415
 6.4576  29655.7  171.553
 6.4996  29800.8  172.453
 6.5416  29621.5  172.073
 6.5836  29713.3  172.572
 6.6256  29953.2  172.828
 6.6676  30538.3  174.07
 6.7096  30167.5  173.867
 6.7516  30707.1  175.068
 6.7936  30930.4  174.871
 6.8356  31235.7  176.064
 6.8776  31373.1  177.26
 6.9196  31366.7  177.649
 6.9616  32005.3  178.855
 7.0036  32388.7  179.599
 7.0456  32365.4  178.824
 7.0876  32237.6  180.176
 7.1296  32302.4  179.486
 7.1716  32303  179.022
 7.2136  32010.9  177.99
 7.2556  32155.8  178.554
 7.2976  32379.1  179.675
 7.3396  32155.4  179.261
 7.3816  32196  179.598
 7.4236  32441.6  179.566
 7.4656  32618.1  179.54
 7.5076  32843  180.288
 7.5496  32570  180.083
 7.5916  32744  180.592
 7.6336  33132.6  181.556
 7.6756  33140  181.426
 7.7176  33428.2  182.519
 7.7596  33320.6  183.485
 7.8016  34013  187.591
 7.8436  34503.4  185.561
 7.8856  34716  185.737
 7.9276  35232.1  187.52
 7.9696  35484  188.5
 8.0116  36392.5  189.799
 8.0536  36223.1  189.233
 8.0956  36369.9  190.792
 8.1376  36742.4  191.244
 8.1796  37032.8  192.54
 8.2216  38022.2  193.824
 8.2636  37901.6  193.764
 8.3056  38037.1  194.901
 8.3476  38447.8  195.263
 8.3896  38385.1  195.64
 8.4316  38362.9  195.294
 8.4736  38574.3  195.289
 8.5156  38274  194.81
 8.5576  38019  195.138
 8.5996  37979.4  193.902
 8.6416  38018.4  195.27
 8.6836  37853.8  194.688
 8.7256  38201.1  195.006
 8.7676  37888.8  197.175
 8.8096  37525.8  193.51
 8.8516  36993.3  191.742
 8.8936  36889  191.359
 8.9356  36652.1  191.099
 8.9776  37341.4  192.989
 9.0196  36809.5  191.271
 9.0616  37284.5  191.977
 9.1036  36410.8  190.905
 9.1456  36413.4  190.261
 9.1876  36631  190.777
 9.2296  36872.9  190.806
 9.2716  35761.6  187.969
 9.3136  36440.6  189.722
 9.3556  36288.9  189.317
 9.3976  35008.9  186.474
 9.4396  35472.5  187.6
 9.4816  34772.4  185.595
 9.5236  35173.3  186.578
 9.5656  34813.6  185.948
 9.6076  34363.6  185.278
 9.6496  34310.4  185.053
 9.6916  34374.7  185.201
 9.7336  34423  185.104
 9.7756  34548.3  186.787
 9.8176  33507.4  183.352
 9.8596  33427.2  181.571
 9.9016  33006.6  180.421
 9.9436  32850.4  179.905
 9.9856  32369.9  178.814
 10.0276  32199.8  179.455
 10.0696  32335.5  178.866
 10.1116  31183.7  175.907
 10.1536  31612.7  177.286
 10.1956  30699.6  174.308
 10.2376  30661.1  173.704
 10.2796  30686.4  173.9
 10.3216  30244.8  172.911
 10.3636  30055.7  172.402
 10.4056  29602  171.49
 10.4476  29591.7  171.085
 10.4896  29710.9  170.887
 10.5316  29221.7  170.185
 10.5736  29004  169.955
 10.6156  28607  168.562
 10.6576  28728  167.479
 10.6996  28461.9  167.37
 10.7416  28084.1  166.488
 10.7836  28036.8  167.042
 10.8256  27773.4  166.688
 10.8676  27649.6  165.849
 10.9096  27517.3  165.501
 10.9516  27397.9  164.064
 10.9936  27442.9  164.404
 11.0356  27003.2  163.712
 11.0776  26933.6  162.813
 11.1196  26523.4  162.313
 11.1616  26359.6  161.498
 11.2036  26441.9  161.609
 11.2456  26206.4  161.584
 11.2876  26292.4  161.585
 11.3296  26011.2  160.619
 11.3716  26268.1  161.108
 11.4136  26149.3  161.63
 11.4556  26101.1  161.156
 11.4976  26455.7  161.212
 11.5396  26611.6  161.854
 11.5816  27350.6  164.557
 11.6236  27837.5  166.464
 11.6656  27248.3  163.611
 11.7076  26650.6  162.656
 11.7496  25946.5  164.479
 11.7916  25767  159.198
 11.8336  25409.8  159.009
 11.8756  25404.4  158.49
 11.9176  25471.6  158.608
 11.9596  24999.6  157.074
 12.0016  24834.9  157.349
 12.0436  24931.6  157.074
 12.0856  24668.4  156.773
 12.1276  24576.1  156.389
 12.1696  24771.3  156.139
 12.2116  24915.6  156.595
 12.2536  24605.4  156.453
 12.2956  24667.8  155.977
 12.3376  24214  154.749
 12.3796  24532.5  156.224
 12.4216  24567.4  155.548
 12.4636  24165.9  155.176
 12.5056  24341  155.016
 12.5476  24458.9  154.919
 12.5896  24536.6  155.803
 12.6316  24092.9  154.544
 12.6736  24342.1  155.685
 12.7156  24107.1  154.939
 12.7576  24316.4  155.853
 12.7996  24459.2  154.945
 12.8416  24170.5  155.085
 12.8836  24783  156.836
 12.9256  25068.7  156.766
 12.9676  24969.6  156.884
 13.0096  24659.7  157.015
 13.0516  24943.4  156.941
 13.0936  24886.6  157.17
 13.1356  25429.3  157.84
 13.1776  25096.4  157.798
 13.2196  25349.4  158.244
 13.2616  25222.5  158.169
 13.3036  25385.4  158.643
 13.3456  25199.9  158.225
 13.3876  25085.2  157.351
 13.4296  24971.3  157.143
 13.4716  25253.8  157.641
 13.5136  24826.8  156.455
 13.5556  24979.7  157.543
 13.5976  25140.6  158.206
 13.6396  25290.6  158.03
 13.6816  24905.3  157.325
 13.7236  25486.6  158.776
 13.7656  24859  157.36
 13.8076  24975.6  156.504
 13.8496  24764  156.443
 13.8916  24825.5  157.65
 13.9336  24727.5  156.552
 13.9756  24517.7  155.238
 14.0176  24485.3  155.82
 14.0596  24513.8  155.879
 14.1016  24219.2  155.331
 14.1436  23922.2  153.51
 14.1856  23761.5  153.293
 14.2276  23422  152.68
 14.2696  23875.3  153.982
 14.3116  23331.4  152.122
 14.3536  22920.8  150.954
 14.3956  22963.5  150.821
 14.4376  23280.7  151.641
 14.4796  23091  151.018
 14.5216  22786.8  150.818
 14.5636  22474.3  149.344
 14.6056  22846.8  150.154
 14.6476  22590.3  148.525
 14.6896  22182.1  147.722
 14.7316  21927.5  147.909
 14.7736  21851.2  146.789
 14.8156  21689.4  146.285
 14.8576  21501.1  145.497
 14.8996  21061.4  145.214
 14.9416  20767.1  144.194
 14.9836  20968.7  144.865
 15.0256  20655.6  142.681
 15.0676  20720.9  143.228
 15.1096  20616.3  142.601
 15.1516  20250.3  141.885
 15.1936  20167.7  141.025
 15.2356  19969.4  140.611
 15.2776  19671.8  139.142
 15.3196  19490.4  139.509
 15.3616  19401  138.948
 15.4036  19346.1  138.602
 15.4456  19632.1  139.044
 15.4876  19328.7  137.865
 15.5296  19140.1  137.473
 15.5716  18815.1  135.905
 15.6136  18846.8  136.352
 15.6556  18808.7  135.447
 15.6976  18738.5  135.27
 15.7396  18588  135.345
 15.7816  18339.1  133.933
 15.8236  18251  134.326
 15.8656  18168.2  133.806
 15.9076  17853.4  132.464
 15.9496  17890.5  135.412
 15.9916  17804.6  135.532
 16.0336  17472  131.154
 16.0756  17674.5  132.221
 16.1176  17449.1  131.449
 16.1596  17086.3  131.256
 16.2016  17465.8  131.436
 16.2436  17063.7  130.303
 16.2856  17026.3  129.701
 16.3276  16865.8  129.509
 16.3696  17057.7  130.061
 16.4116  16726.3  129.253
 16.4536  16886.7  129.649
 16.4956  16718.8  128.745
 16.5376  16561.9  128.328
 16.5796  16713.1  128.264
 16.6216  16711.2  128.563
 16.6636  16354.1  127.341
 16.7056  16534.1  127.902
 16.7476  16633.5  127.963
 16.7896  16595  128.416
 16.8316  16534.9  128.153
 16.8736  16451.5  128.086
 16.9156  16497.6  128.606
 16.9576  16456.8  129.24
 16.9996  16374.6  129.409
 17.0416  16562.9  128.484
 17.0836  16405.6  127.625
 17.1256  16396.8  127.606
 17.1676  16441.1  127.773
 17.2096  16162.1  126.559
 17.2516  16076.9  126.005
 17.2936  16173.1  126.708
 17.3356  15868  125.52
 17.3776  15847.7  125.622
 17.4196  15743.8  124.904
 17.4616  15835.5  125.185
 17.5036  15395.7  123.798
 17.5456  15301.2  124.064
 17.5876  15244.4  122.878
 17.6296  15296  122.908
 17.6716  15152.5  122.896
 17.7136  14927.1  122.127
 17.7556  15097.9  123.115
 17.7976  14938.7  122.061
 17.8396  14816.8  121.202
 17.8816  14820.8  121.759
 17.9236  14731.4  121.208
 17.9656  14766.1  122.058
 18.0076  14757.6  121.445
 18.0496  14690.1  120.296
 18.0916  14702.4  120.884
 18.1336  14703.3  120.989
 18.1756  14680  120.43
 18.2176  14555.7  120.135
 18.2596  14529.6  119.764
 18.3016  14665.3  120.581
 18.3436  14694.1  120.935
 18.3856  14415.1  119.687
 18.4276  14401.4  119.301
 18.4696  14356.5  119.217
 18.5116  14408.3  119.716
 18.5536  14591.7  120.834
 18.5956  14231.8  118.885
 18.6376  14171  119.033
 18.6796  14330.5  119.024
 18.7216  14347.5  119.662
 18.7636  14211.9  119.016
 18.8056  14065.6  118.338
 18.8476  14055  118.611
 18.8896  14126.8  118.554
 18.9316  14318.8  119.175
 18.9736  14186.6  118.487
 19.0156  14183.8  118.861
 19.0576  14193  117.785
 19.0996  14224.6  118.627
 19.1416  13834.8  117.38
 19.1836  14136.8  118.251
 19.2256  13937.5  117.619
 19.2676  13978.5  117.892
 19.3096  14227.7  119.191
 19.3516  13935.8  117.916
 19.3936  13999.9  118.151
 19.4356  14070.7  118.257
 19.4776  14133.7  118.62
 19.5196  14013.2  117.965
 19.5616  14022.1  118.256
 19.6036  14020.6  117.61
 19.6456  13875.4  117.254
 19.6876  14091.8  117.813
 19.7296  13912  117.515
 19.7716  13856  117.288
 19.8136  13972.4  118.139
 19.8556  14144.9  118.338
 19.8976  14145.5  118.412
 19.9396  14106.9  117.826
 19.9816  14436  119.44
 20.0236  14381.6  119.431
 20.0656  14681.6  120.666
 20.1076  14800  121.627
 20.1496  15055.5  122.677
 20.1916  15134.1  122.495
 20.2336  14918.9  121.55
 20.2756  14692.5  121.065
 20.3176  14351.6  119.394
 20.3596  14179.4  118.653
 20.4016  14042.9  117.883
 20.4436  13981.8  118.203
 20.4856  13699.9  116.784
 20.5276  13840.2  117.844
 20.5696  13822.7  117.225
 20.6116  13722.1  117.072
 20.6536  13583.9  116.037
 20.6956  13595.8  116.158
 20.7376  13624.7  116.515
 20.7796  13519.2  115.74
 20.8216  13739.1  116.394
 20.8636  13371.5  115.189
 20.9056  13429.2  115.39
 20.9476  13289.7  114.632
 20.9896  13542.9  115.584
 21.0316  13465.5  115.145
 21.0736  13209.4  114.57
 21.1156  13350.9  115.34
 21.1576  13448.4  115.809
 21.1996  13239.9  114.891
 21.2416  13202  114.557
 21.2836  13430.5  115.507
 21.3256  13171.4  114.473
 21.3676  13327.2  114.69
 21.4096  13104.7  114.038
 21.4516  12993  113.429
 21.4936  12983.5  113.631
 21.5356  13112.2  114.152
 21.5776  13223.2  114.458
 21.6196  12911.5  113.135
 21.6616  12915.8  113.246
 21.7036  13050.3  113.619
 21.7456  13083.5  113.835
 21.7876  12967.3  113.079
 21.8296  12937.6  112.804
 21.8716  12960.5  113.13
 21.9136  13107.4  113.978
 21.9556  12839.7  112.476
 21.9976  12703.8  111.902
 22.0396  12749.4  112.354
 22.0816  12751  112.903
 22.1236  12904.1  113.027
 22.1656  12953.5  113.424
 22.2076  12865.9  112.457
 22.2496  12879.8  112.54
 22.2916  12876.2  112.407
 22.3336  12803.4  112.8
 22.3756  12843.1  112.715
 22.4176  12811.6  112.43
 22.4596  12596  112.073
 22.5016  12953  113.132
 22.5436  12925.1  112.898
 22.5856  12972.5  113.347
 22.6276  12949.1  113.379
 22.6696  12931.9  113.667
 22.7116  12835.1  112.744
 22.7536  12661.3  111.958
 22.7956  12838.6  112.061
 22.8376  12858.3  112.683
 22.8796  12610.2  111.383
 22.9216  13063.5  113.933
 22.9636  12684.1  111.41
 23.0056  12765.4  111.902
 23.0476  12772.2  112.508
 23.0896  13163.6  113.581
 23.1316  12821.2  112.534
 23.1736  12871.3  115.733
 23.2156  13084.2  113.944
 23.2576  12844.5  113.099
 23.2996  12937.1  113.301
 23.3416  12807.4  113.248
 23.3836  13090.1  113.691
 23.4256  13026.1  113.555
 23.4676  12948.3  112.907
 23.5096  12884.1  113.31
 23.5516  12753.1  112.006
 23.5936  12697.5  112.677
 23.6356  12916.8  113.3
 23.6776  12661.5  112.73
 23.7196  12551.9  111.483
 23.7616  12861.8  112.77
 23.8036  12810.1  112.582
 23.8456  12797  112.093
 23.8876  12469.1  110.993
 23.9296  12516.3  111.703
 23.9716  12554.7  111.063
 24.0136  12718.8  112.695
 24.0556  12510.2  111.496
 24.0976  12285.6  110.304
 24.1396  12309.6  113.073
 24.1816  12515.9  112.738
 24.2236  12314.5  111.099
 24.2656  12262.9  110.335
 24.3076  12112.1  109.908
 24.3496  12210.3  110.237
 24.3916  12128.9  109.925
 24.4336  12096.5  109.985
 24.4756  11951.5  109.182
 24.5176  12008.9  109.102
 24.5596  11852.3  108.516
 24.6016  11858.8  108.834
 24.6436  11801.5  108.062
 24.6856  11904.3  108.289
 24.7276  11842.5  108.323
 24.7696  11824.5  108.357
 24.8116  11802.6  108.44
 24.8536  11580.1  107.41
 24.8956  11565.4  107.076
 24.9376  11598.7  107.17
 24.9796  11323.7  106.244
 25.0216  11341.8  106.443
 25.0636  11407.4  106.4
 25.1056  11409  106.833
 25.1476  11561.1  109.532
 25.1896  11410.8  107.267
 25.2316  11451.8  106.616
 25.2736  11370.6  106.008
 25.3156  11308.1  105.789
 25.3576  11367.2  106.488
 25.3996  11360  106.434
 25.4416  11283.2  106.06
 25.4836  11016.9  105.323
 25.5256  11167.7  105.403
 25.5676  11198.5  105.272
 25.6096  11023  105.021
 25.6516  11235  105.517
 25.6936  11122.7  105.308
 25.7356  11263.7  106.11
 25.7776  11168.1  105.264
 25.8196  11121.6  105.28
 25.8616  11101.4  105.11
 25.9036  11143.6  104.772
 25.9456  11102.1  105.171
 25.9876  11023.3  104.861
 26.0296  11198  105.286
 26.0716  11036.5  104.866
 26.1136  10886  104.091
 26.1556  11142.5  104.593
 26.1976  10811.1  104.034
 26.2396  11004.8  104.366
 26.2816  10979.2  104.607
 26.3236  11082.4  105.176
 26.3656  10991.6  104.55
 26.4076  11205.3  105.77
 26.4496  11559  106.924
 26.4916  11183.6  105.162
 26.5336  10977.3  104.51
 26.5756  11088.3  104.908
 26.6176  10993.3  104.499
 26.6596  10909.4  104.409
 26.7016  10932.8  104.319
 26.7436  10672.4  103.161
 26.7856  10737.7  103.453
 26.8276  10773.3  103.576
 26.8696  10798.5  103.578
 26.9116  10730.5  103.195
 26.9536  10599.9  102.61
 26.9956  10753.7  103.381
 27.0376  10757.9  103.624
 27.0796  10705  103.144
 27.1216  10627.3  102.797
 27.1636  10507.5  102.381
 27.2056  10592.3  102.676
 27.2476  10497.9  102.218
 27.2896  10490.6  102.218
 27.3316  10534.8  102.221
 27.3736  10439.9  102.021
 27.4156  10330.9  101.333
 27.4576  10395.1  101.882
 27.4996  10390.4  101.453
 27.5416  10461.1  102.117
 27.5836  10529.8  102.256
 27.6256  10705.7  103.285
 27.6676  10530.5  102.453
 27.7096  10291.7  101.149
 27.7516  10299.9  101.348
 27.7936  10185.3  100.951
 27.8356  10271.4  100.993
 27.8776  10338.5  101.371
 27.9196  10150  100.288
 27.9616  10396.2  101.692
 28.0036  10212.4  100.762
 28.0456  10283.7  101.245
 28.0876  10109.5  100.474
 28.1296  10157.1  100.553
 28.1716  10134.7  100.449
 28.2136  10193.7  100.708
 28.2556  10037.4  100.044
 28.2976  10151.1  100.597
 28.3396  10134.3  100.32
 28.3816  10114.5  100.201
 28.4236  10113.7  100.353
 28.4656  10058.1  100.109
 28.5076  10007.6  99.4986
 28.5496  10081.2  100.126
 28.5916  10173.7  100.388
 28.6336  9984.95  99.7966
 28.6756  10009.2  99.1165
 28.7176  9986.95  99.5556
 28.7596  9962.4  99.3313
 28.8016  10018.1  99.7254
 28.8436  9865.76  99.1194
 28.8856  9975.98  99.5264
 28.9276  9953.62  99.6608
 28.9696  9874.63  98.9163
 29.0116  9844.69  98.9445
 29.0536  9728.94  98.5777
 29.0956  9898.66  99.1476
 29.1376  9866.25  98.9459
 29.1796  9811.43  98.7159
 29.2216  9877.07  98.8859
 29.2636  9928.33  99.1399
 29.3056  9942.34  99.0791
 29.3476  9814.97  98.9669
 29.3896  9845.89  99.2151
 29.4316  9887.4  98.7626
 29.4736  9805.11  98.4186
 29.5156  9940.31  99.01
 29.5576  9772.98  98.914
 29.5996  9874.14  98.679
 29.6416  9707.46  97.9525
 29.6836  9802.41  98.3631
 29.7256  9673.61  98.285
 29.7676  9810.9  98.6416
 29.8096  9771.67  98.3816
 29.8516  9535.62  97.5201
 29.8936  9703.42  98.4678
 29.9356  9823.71  98.8276
 29.9776  9552.26  97.6031
 30.0196  9700.93  97.7394
 30.0616  9659.43  97.9136
 30.1036  9734.73  98.1139
 30.1456  9636.16  97.8776
 30.1876  9591.01  97.5998
 30.2296  9605.87  97.6234
 30.2716  9698.81  97.7321
 30.3136  9728.15  98.4862
 30.3556  9593.21  98.0724
 30.3976  9436.49  98.7815
 30.4396  9689.58  97.4226
 30.4816  9725.99  97.202
 30.5236  9569.89  96.4364
 30.5656  9434.77  96.4035
 30.6076  9533.76  96.3368
 30.6496  9605.72  97.0878
 30.6916  9573.9  97.0188
 30.7336  9439.5  96.4887
 30.7756  9532.53  97.2767
 30.8176  9408.11  96.3353
 30.8596  9586.91  97.0152
 30.9016  9306.98  95.9273
 30.9436  9556.95  96.957
 30.9856  9620.13  97.382
 31.0276  9403.05  95.8906
 31.0696  9491.6  96.7855
 31.1116  9364.91  96.2473
 31.1536  9564.92  97.1503
 31.1956  9326.63  96.0215
 31.2376  9285.85  95.8175
 31.2796  9384.37  95.8643
 31.3216  9500.98  96.4011
 31.3636  9457.98  96.8654
 31.4056  9452.95  98.1683
 31.4476  9417.49  95.8559
 31.4896  9241.01  95.4546
 31.5316  9365.07  95.5336
 31.5736  9513.63  96.0659
 31.6156  9397.71  95.491
 31.6576  9434.39  95.7819
 31.6996  9373.67  95.1484
 31.7416  9279.58  95.7289
 31.7836  9371.74  95.2146
 31.8256  9200.31  94.6867
 31.8676  9345.8  95.3504
 31.9096  9200.74  94.9568
 31.9516  9069.26  94.4379
 31.9936  9185.46  94.8689
 32.0356  9277.25  95.4078
 32.0776  9187.29  94.8326
 32.1196  9301.76  95.5041
 32.1616  9437.52  95.6537
 32.2036  9122.3  94.56
 32.2456  9268.93  95.6978
 32.2876  9222.8  94.7815
 32.3296  9034.96  93.945
 32.3716  9101.71  94.3992
 32.4136  9246.66  95.369
 32.4556  9234.93  94.7418
 32.4976  9167.93  94.2478
 32.5396  9160.85  94.2788
 32.5816  9187.47  94.4342
 32.6236  9115.65  94.2409
 32.6656  9276.1  95.6071
 32.7076  9102.26  94.3625
 32.7496  9085.93  93.9412
 32.7916  9142.05  94.1972
 32.8336  9079.63  93.9598
 32.8756  9158.57  94.1862
 32.9176  9112  94.3376
 32.9596  9047.02  94.0829
 33.0016  9122.59  94.2663
 33.0436  9101.74  94.337
 33.0856  9067.51  94.224
 33.1276  9061.71  93.9245
 33.1696  9012.26  93.5046
 33.2116  9038.7  93.8695
 33.2536  9071.52  94.048
 33.2956  9011.46  93.8134
 33.3376  8997.18  93.4473
 33.3796  9019.2  93.7973
 33.4216  9091.5  93.7778
 33.4636  9082.92  93.8802
 33.5056  8958.37  93.3089
 33.5476  8878.56  93.0485
 33.5896  9042.52  93.6442
 33.6316  8904.8  93.2781
 33.6736  8794.94  92.9425
 33.7156  8871.77  93.3882
 33.7576  8979.05  93.576
 33.7996  8961.81  93.2504
 33.8416  8776.09  92.4688
 33.8836  8901.91  92.9011
 33.9256  8948.97  93.2082
 33.9676  8855.13  92.6081
 34.0096  8790.02  92.5916
 34.0516  8840.92  92.4945
 34.0936  8742.18  92.2464
 34.1356  8953.34  93.0872
 34.1776  8853.14  92.5767
 34.2196  8809.79  92.5315
 34.2616  8736.61  92.3418
 34.3036  8747.64  92.589
 34.3456  8730.25  92.2505
 34.3876  8715.09  92.1366
 34.4296  8747.02  91.996
 34.4716  8820.04  92.5216
 34.5136  8741.39  92.3148
 34.5556  8723.66  92.4806
 34.5976  8710.2  92.21
 34.6396  8708.78  91.9085
 34.6816  8614.29  91.5244
 34.7236  8748.85  92.0215
 34.7656  8707.65  91.9991
 34.8076  8542.24  91.444
 34.8496  8676.99  92.0153
 34.8916  8692.02  91.9705
 34.9336  8651.26  91.7129
 34.9756  8731.33  92.0614
 35.0176  8691.68  92.3884
 35.0596  8539.08  91.3943
 35.1016  8710.1  92.0727
 35.1436  8904.24  92.7716
 35.1856  8607.87  91.3396
 35.2276  8714.64  92.0878
 35.2696  8599.57  91.667
 35.3116  8726.67  92.4356
 35.3536  8583.92  91.3846
 35.3956  8608.16  91.2245
 35.4376  8543.55  91.4367
 35.4796  8592.63  91.7608
 35.5216  8552.99  91.4278
 35.5636  8397.53  91.413
 35.6056  8654.6  91.8046
 35.6476  8572.03  91.2645
 35.6896  8664.34  91.9212
 35.7316  8455.42  90.6949
 35.7736  8486.62  91.0709
 35.8156  8493.16  91.1067
 35.8576  8493.7  91.3592
 35.8996  8576.48  91.7644
 35.9416  8888.05  92.8822
 35.9836  8427.66  90.8252
 36.0256  8532.18  91.4054
 36.0676  8627.26  91.4453
 36.1096  8475.42  90.9881
 36.1516  8425.58  90.6165
 36.1936  8521.69  90.9807
 36.2356  8398.1  90.9611
 36.2776  8466.35  90.8112
 36.3196  8428  90.2692
 36.3616  8416.95  90.3427
 36.4036  8394.27  90.2737
 36.4456  8505.07  91.0769
 36.4876  8403.19  90.4757
 36.5296  8387.12  90.429
 36.5716  8422.84  91.41
 36.6136  8533.61  90.7641
 36.6556  8555.48  91.0863
 36.6976  8530.45  91.4561
 36.7396  8401.13  90.582
 36.7816  8396.38  90.841
 36.8236  8345.07  90.4831
 36.8656  8296.88  90.2982
 36.9076  8303.33  90.3367
 36.9496  8247.45  90.0457
 36.9916  8551.71  91.1586
 37.0336  8476.29  91.076
 37.0756  8448.12  90.7123
 37.1176  8229.03  89.8942
 37.1596  8240.26  89.8653
 37.2016  8213.86  89.8939
 37.2436  8315.34  89.8075
 37.2856  8150.75  89.177
 37.3276  8396.15  89.849
 37.3696  8269.78  90.0608
 37.4116  8325.27  90.271
 37.4536  8199.48  89.4527
 37.4956  8288.44  89.9849
 37.5376  8311.49  91.6878
 37.5796  8258.1  91.3379
 37.6216  8058.28  88.5029
 37.6636  8129.39  88.7943
 37.7056  8212.43  89.4395
 37.7476  8117.68  88.4551
 37.7896  8102.49  88.8735
 37.8316  7956.26  88.2403
 37.8736  8220.48  89.2167
 37.9156  8215.89  89.1909
 37.9576  8125.72  88.7454
 37.9996  8070.03  88.007
 38.0416  8064.69  88.7859
 38.0836  8273.21  89.8265
 38.1256  8058.25  88.6163
 38.1676  7881.29  87.7703
 38.2096  8029.69  88.2165
 38.2516  8262.97  89.5879
 38.2936  8084.7  88.5218
 38.3356  8133.17  88.7123
 38.3776  8103.79  88.8172
 38.4196  8133.41  88.8326
 38.4616  8088.93  88.827
 38.5036  8139.23  88.9454
 38.5456  8010.54  89.0727
 38.5876  8156.71  89.9063
 38.6296  7977.64  87.8817
 38.6716  7932.54  87.4308
 38.7136  7817.31  86.738
 38.7556  7939.54  87.9194
 38.7976  8064.44  88.5456
 38.8396  7996  88.6248
 38.8816  7902.17  87.8801
 38.9236  7976.22  88.1046
 38.9656  8022.27  88.2717
 39.0076  7995.56  87.5267
 39.0496  8012.44  88.1664
 39.0916  8042.66  87.9711
 39.1336  7945.44  87.8557
 39.1756  7938.33  87.8858
 39.2176  7927.8  88.3534
 39.2596  7965.13  88.4856
 39.3016  8013.91  88.3326
 39.3436  7959.39  88.4527
 39.3856  8028.83  88.2831
 39.4276  8185.31  89.642
 39.4696  7930.55  87.8599
 39.5116  7992.27  88.7219
 39.5536  8148.35  90.0199
 39.5956  8111.65  88.9016
 39.6376  7981.57  88.0269
 39.6796  7989.67  87.9754
 39.7216  8107.56  88.7236
 39.7636  7984.14  88.6208
 39.8056  8016.55  88.5736
 39.8476  7917.52  88.2785
 39.8896  7945.53  88.0707
 39.9316  8049.57  88.8976
 39.9736  8055.22  88.493
 40.0156  8009.22  88.0587
 40.0576  8090.29  88.871
 40.0996  8116.73  88.1904
 40.1416  8131.55  89.0719
 40.1836  8071.43  88.637
 40.2256  8012.28  88.3532
 40.2676  7944.53  88.0866
 40.3096  8051.75  88.594
 40.3516  8161.72  89.3991
 40.3936  8064.97  88.343
 40.4356  8033.48  88.3608
 40.4776  8073.83  89.0003
 40.5196  7988.12  88.6559
 40.5616  8100.03  88.9125
 40.6036  8015.97  88.7071
 40.6456  8081.27  88.6728
 40.6876  8181.35  89.2054
 40.7296  8095.42  88.8726
 40.7716  8063.51  88.8195
 40.8136  7999.37  88.4146
 40.8556  8160.67  89.4406
 40.8976  8106.51  89.0625
 40.9396  8003.52  88.8478
 40.9816  8118.2  88.7594
 41.0236  8051.53  88.1758
 41.0656  8279.4  89.963
 41.1076  8145.45  89.0009
 41.1496  8089.89  88.6024
 41.1916  8074.14  88.8405
 41.2336  8051.98  88.7082
 41.2756  8050.64  88.3061
 41.3176  7975.01  88.5068
 41.3596  8105.03  88.9545
 41.4016  8156.9  89.5026
 41.4436  8124.92  89.1055
 41.4856  8119.19  89.2405
 41.5276  8048.04  88.8633
 41.5696  8030.34  88.3849
 41.6116  8012.48  88.7001
 41.6536  8135.49  89.2333
 41.6956  8045.27  88.7933
 41.7376  7969.52  88.4031
 41.7796  8037.76  88.7055
 41.8216  7958.53  88.4554
 41.8636  8023.27  88.7562
 41.9056  8012.22  88.4763
 41.9476  7966.88  88.4682
 41.9896  8134.56  89.0543
 42.0316  8054.73  88.7005
 42.0736  7911.59  88.0207
 42.1156  7770.09  87.0657
 42.1576  7955.81  88.1981
 42.1996  8010.76  88.647
 42.2416  8044.99  88.4161
 42.2836  7922  87.8522
 42.3256  7904.16  87.8655
 42.3676  8009.44  88.2541
 42.4096  7967.27  87.9847
 42.4516  7899.02  87.6957
 42.4936  7898.5  87.761
 42.5356  7939.48  88.1216
 42.5776  8004.46  88.4169
 42.6196  8077.43  88.7961
 42.6616  7981.44  88.5219
 42.7036  8036.89  88.2036
 42.7456  7973.92  88.2189
 42.7876  7881.41  87.8058
 42.8296  7965.17  88.1622
 42.8716  7793.2  87.3064
 42.9136  7862.47  87.479
 42.9556  8032.53  88.5568
 42.9976  7964.24  88.1337
 43.0396  7922.63  87.6405
 43.0816  7892.71  87.8566
 43.1236  7790.95  87.3461
 43.1656  7897.81  87.7712
 43.2076  7817.49  87.4283
 43.2496  7828.17  87.2985
 43.2916  7843.41  87.7548
 43.3336  7848.44  87.6167
 43.3756  7862.33  87.4471
 43.4176  7720.75  86.7409
 43.4596  7763.42  86.8335
 43.5016  7892.63  87.9658
 43.5436  7790.91  87.292
 43.5856  7813.95  87.4521
 43.6276  7788.8  87.2047
 43.6696  7723.89  86.982
 43.7116  7816.13  87.1128
 43.7536  7776.01  87.3716
 43.7956  7698.44  88.1412
 43.8376  7800.04  87.2405
 43.8796  7765.44  87.1313
 43.9216  7722.24  86.8019
 43.9636  7752.29  87.0864
 44.0056  7695.57  86.9977
 44.0476  7650.49  86.3747
 44.0896  7655.77  86.7459
 44.1316  7686.96  86.5729
 44.1736  7709.79  86.696
 44.2156  7704.72  86.5138
 44.2576  7801.75  87.3955
 44.2996  7698.68  86.7749
 44.3416  7655.06  86.3013
 44.3836  7494.69  85.7115
 44.4256  7560.64  85.7396
 44.4676  7667.4  86.499
 44.5096  7578  86.1362
 44.5516  7642.4  86.4621
 44.5936  7535.48  85.8132
 44.6356  7612.06  85.9842
 44.6776  7632.96  86.418
 44.7196  7484.36  85.8444
 44.7616  7573.57  87.7156
 44.8036  7521.64  85.8539
 44.8456  7559.96  86.278
 44.8876  7515.07  85.8707
 44.9296  7666.98  86.1864
 44.9716  7510.41  85.7168
 45.0136  7649.68  86.4553
 45.0556  7627.88  86.3028
 45.0976  7502.28  85.7563
 45.1396  7386.54  84.8492
 45.1816  7668.93  86.2145
 45.2236  7567.05  85.7151
 45.2656  7412.93  85.3297
 45.3076  7427.98  85.2104
 45.3496  7400.07  85.3538
 45.3916  7317.93  85.1407
 45.4336  7450.62  85.7545
 45.4756  7455.72  85.6434
 45.5176  7456.55  85.2605
 45.5596  7503.66  85.6539
 45.6016  7479.61  85.9346
 45.6436  7456.03  84.9762
 45.6856  7513.05  85.9618
 45.7276  7366.06  86.9424
 45.7696  7473.37  86.7215
 45.8116  7465.95  86.1077
 45.8536  7386.41  85.5463
 45.8956  7398.57  84.969
 45.9376  7464.22  84.8075
 45.9796  7482.92  85.6133
 46.0216  7544.44  86.2949
 46.0636  7679.6  86.198
 46.1056  7515.53  85.2575
 46.1476  7370.5  85.0232
 46.1896  7352.52  85.0699
 46.2316  7411.63  85.2816
 46.2736  7310.78  85.0614
 46.3156  7405.61  85.199
 46.3576  7388.61  85.3038
 46.3996  7312.9  85.0239
 46.4416  7444.84  85.3659
 46.4836  7270.47  84.7101
 46.5256  7471.31  85.8106
 46.5676  7433.79  85.7108
 46.6096  7438.53  85.6671
 46.6516  7340.17  84.1469
 46.6936  7282.29  84.3055
 46.7356  7467.8  85.4764
 46.7776  7265.55  85.1559
 46.8196  7280.54  84.8401
 46.8616  7219.95  84.4332
 46.9036  7191.07  83.9216
 46.9456  7199.42  83.6213
 46.9876  7417.99  84.9602
 47.0296  7266.65  84.7774
 47.0716  7200.31  84.2108
 47.1136  7191.82  83.8372
 47.1556  7204.23  83.7835
 47.1976  7298.19  84.4086
 47.2396  7145.5  83.9032
 47.2816  7209.37  83.9789
 47.3236  7092.27  83.6669
 47.3656  7196.44  84.2147
 47.4076  7166.14  83.8432
 47.4496  7091.48  83.4953
 47.4916  7151.03  84.0318
 47.5336  7256.02  84.4601
 47.5756  7199.43  84.2122
 47.6176  7243.44  84.4035
 47.6596  7110.93  83.3456
 47.7016  7271.67  84.0969
 47.7436  7234.16  84.2211
 47.7856  7362.93  84.9847
 47.8276  7165.94  83.8987
 47.8696  7154.73  83.9176
 47.9116  7347.37  84.748
 47.9536  7107.58  83.2994
 47.9956  7129.69  84.1332
 48.0376  7025.97  83.2927
 48.0796  7160.37  84.2145
 48.1216  7197.92  84.2549
 48.1636  7238.71  84.0697
 48.2056  7167.49  83.918
 48.2476  7222  84.5451
 48.2896  7101.85  83.7507
 48.3316  7050.95  83.3858
 48.3736  7081.48  83.5861
 48.4156  7092.28  83.5121
 48.4576  7061.18  83.6191
 48.4996  7130.72  83.4863
 48.5416  7090  83.5705
 48.5836  7039.93  82.9565
 48.6256  7123.9  83.6555
 48.6676  7080.63  83.9123
 48.7096  7095.75  83.275
 48.7516  7094.15  83.4108
 48.7936  6957.43  82.666
 48.8356  7098.1  83.5466
 48.8776  7078.09  83.9122
 48.9196  7240  84.315
 48.9616  7005.75  83.3193
 49.0036  7029.8  83.8091
 49.0456  6965.01  83.4018
 49.0876  6921.71  82.7802
 49.1296  6875.08  82.5741
 49.1716  6824.2  82.133
 49.2136  7028  83.2762
 49.2556  7067.99  83.5537
 49.2976  7030.88  83.4014
 49.3396  6935.42  82.8844
 49.3816  7047.61  82.9827
 49.4236  7046.57  83.4078
 49.4656  6928.26  82.7166
 49.5076  6985.1  82.8069
 49.5496  7027.92  82.9978
 49.5916  7051.57  83.174
 49.6336  6887.71  82.4019
 49.6756  6923.3  82.8594
 49.7176  6945.27  82.9231
 49.7596  6949.26  82.8937
 49.8016  6984.7  82.8498
 49.8436  6943.09  82.8866
 49.8856  6938.1  82.8756
 49.9276  6855.23  82.4692
 49.9696  6964.76  83.1126
 50.0116  6982.3  83.3542
 50.0536  6946.14  83.0722
 50.0956  6892.77  82.8299
 50.1376  6980.91  83.0611
 50.1796  6787.79  82.1679
 50.2216  6878.45  82.7093
 50.2636  6828.48  82.0323
 50.3056  6818.65  82.1408
 50.3476  6871.19  82.4836
 50.3896  6841.84  82.2736
 50.4316  7001.34  83.0628
 50.4736  6778.96  81.9499
 50.5156  6861.86  82.4417
 50.5576  6963.14  82.8053
 50.5996  6784.22  82.0117
 50.6416  6761.28  81.8051
 50.6836  6900.11  82.6983
 50.7256  6887.33  82.5483
 50.7676  6946.4  83.1779
 50.8096  6780.27  81.7615
 50.8516  6776.94  82.1564
 50.8936  6783.72  81.9829
 50.9356  6809.73  82.2403
 50.9776  6818.44  82.4437
 51.0196  6628.48  81.4155
 51.0616  6673.1  81.017
 51.1036  6864.83  82.5305
 51.1456  6778.55  81.92
 51.1876  6746.44  81.0771
 51.2296  6711.89  81.5008
 51.2716  6686.81  81.0565
 51.3136  6648.81  81.2764
 51.3556  6664.29  81.0023
 51.3976  6652.39  81.0772
 51.4396  6603.9  81.0801
 51.4816  6647.76  81.1955
 51.5236  6648.43  81.2839
 51.5656  6620.87  80.734
 51.6076  6754.14  81.6219
 51.6496  6639.88  81.1235
 51.6916  6668.24  81.6423
 51.7336  6636.74  81.5488
 51.7756  6658.58  81.3815
 51.8176  6693.33  81.6894
 51.8596  6681.11  81.6371
 51.9016  6809.21  82.0241
 51.9436  6593.41  82.1734
 51.9856  6506.98  82.0483
 52.0276  6678.69  81.6381
 52.0696  6593.28  81.1783
 52.1116  6579.28  81.2036
 52.1536  6566.99  81.0194
 52.1956  6731.17  81.4892
 52.2376  6822.72  82.2114
 52.2796  6707.26  81.3319
 52.3216  6538.65  80.987
 52.3636  6637.27  81.172
 52.4056  6613.97  80.888
 52.4476  6551.32  80.8685
 52.4896  6479.14  80.472
 52.5316  6472.42  80.4704
 52.5736  6565.67  80.7748
 52.6156  6553.03  81.0755
 52.6576  6675.38  81.2721
 52.6996  6364.11  80.2999
 52.7416  6542.09  81.282
 52.7836  6546.65  81.1912
 52.8256  6692.44  81.3106
 52.8676  6482.86  80.6026
 52.9096  6524.45  80.9389
 52.9516  6522.1  81.2974
 52.9936  6523.32  81.6876
 53.0356  6451.08  80.2402
 53.0776  6418.47  80.3199
 53.1196  6366.6  80.0974
 53.1616  6424.9  80.511
 53.2036  6303.26  79.6996
 53.2456  6334.31  79.9971
 53.2876  6234.06  79.0726
 53.3296  6389.54  80.3736
 53.3716  6432.37  80.3898
 53.4136  6385.43  80.2433
 53.4556  6419.68  80.4922
 53.4976  6318.26  79.7032
 53.5396  6368.39  80.4058
 53.5816  6327.92  79.7888
 53.6236  6371.66  80.4088
 53.6656  6389.46  80.1503
 53.7076  6368.22  79.9755
 53.7496  6308.97  79.7237
 53.7916  6452.49  80.7522
 53.8336  6313.95  79.7802
 53.8756  6330.14  80.4275
 53.9176  6365.46  79.9958
 53.9596  6406.72  81.0329
 54.0016  6351.03  80.0089
 54.0436  6294.07  79.8662
 54.0856  6450.45  80.2714
 54.1276  6432.56  80.3668
 54.1696  6400.07  80.3324
 54.2116  6426.51  80.2486
 54.2536  6328.14  79.4513
 54.2956  6342.58  79.5885
 54.3376  6327.8  79.9803
 54.3796  6334.77  79.9219
 54.4216  6403.73  80.3993
 54.4636  6379.34  80.2022
 54.5056  6393.89  80.1264
 54.5476  6247.19  79.5309
 54.5896  6423.64  80.4831
 54.6316  6394.14  80.1477
 54.6736  6371.98  80.0318
 54.7156  6351.37  79.9765
 54.7576  6214.47  79.1014
 54.7996  6377.03  80.2686
 54.8416  6383.66  80.3654
 54.8836  6315.67  80.0425
 54.9256  6378.46  80.1934
 54.9676  6422.71  80.3289
 55.0096  6348.08  79.922
 55.0516  6358.07  80.1592
 55.0936  6306.55  79.5267
 55.1356  6298.4  79.5178
 55.1776  6276.5  79.6482
 55.2196  6365.98  79.9947
 55.2616  6342.53  80.0636
 55.3036  6273.12  79.785
 55.3456  6327.93  80.279
 55.3876  6432.76  80.682
 55.4296  6304.97  79.854
 55.4716  6279.28  79.7233
 55.5136  6331.36  79.8082
 55.5556  6351.67  80.0111
 55.5976  6221.29  79.2418
 55.6396  6249.74  79.3716
 55.6816  6307.97  79.617
 55.7236  6305.32  79.7448
 55.7656  6322.67  79.5092
 55.8076  6304.32  79.3775
 55.8496  6276.85  79.5235
 55.8916  6256.7  79.5652
 55.9336  6194.46  79.0244
 55.9756  6249.67  79.2645
 56.0176  6250.6  79.4219
 56.0596  6262.76  79.4793
 56.1016  6277.67  79.6169
 56.1436  6184.6  79.2544
 56.1856  6337.56  79.9698
 56.2276  6288.67  79.7207
 56.2696  6214.98  79.217
 56.3116  6214.71  79.6209
 56.3536  6293.87  79.7843
 56.3956  6329.47  80.0006
 56.4376  6262.31  79.6067
 56.4796  6234.27  79.2274
 56.5216  6185.24  79.2956
 56.5636  6261.85  79.3694
 56.6056  6189.51  79.1406
 56.6476  6159.88  78.5839
 56.6896  6267.91  79.7176
 56.7316  6257.11  79.5528
 56.7736  6211.41  79.2662
 56.8156  6230.2  79.3808
 56.8576  6162.03  78.8877
 56.8996  6154.41  78.7777
 56.9416  6174.65  79.0715
 56.9836  6191.65  78.8293
 57.0256  6200.67  79.2049
 57.0676  6224  79.4722
 57.1096  6284.78  79.6559
 57.1516  6278.27  79.6433
 57.1936  6208.06  78.9763
 57.2356  6218.13  79.3582
 57.2776  6344.54  80.1222
 57.3196  6196.88  79.5526
 57.3616  6271.18  79.5182
 57.4036  6217.94  79.2414
 57.4456  6188.64  79.0216
 57.4876  6273.36  79.414
 57.5296  6121.54  78.6915
 57.5716  6180.3  79.1601
 57.6136  6216.46  79.1997
 57.6556  6263.92  79.6463
 57.6976  6248.35  79.3666
 57.7396  6045.22  78.4401
 57.7816  6068.65  78.9521
 57.8236  6112.87  79.0337
 57.8656  6219.24  79.3721
 57.9076  6185.87  79.1884
 57.9496  6140.74  79.2455
 57.9916  6190.75  79.029
 58.0336  6135.7  79.0029
 58.0756  6195.87  79.0143
 58.1176  6242.75  79.3165
 58.1596  6131.68  79.1807
 58.2016  6266.34  79.2719
 58.2436  6249.43  79.5677
 58.2856  6144.11  78.8163
 58.3276  6235.9  79.7768
 58.3696  6127.02  78.8237
 58.4116  6261.85  79.5493
 58.4536  6273.29  79.5037
 58.4956  6168.04  79.0221
 58.5376  6253.93  79.1352
 58.5796  6140.52  78.8408
 58.6216  6306.09  79.7123
 58.6636  6168.79  79.0516
 58.7056  6177.59  78.9624
 58.7476  6127.35  79.0889
 58.7896  6142  78.8253
 58.8316  6176.94  79.04
 58.8736  6238.58  79.4453
 58.9156  6166.75  79.0286
 58.9576  6321.35  80.2252
 58.9996  6289.94  79.3722
 59.0416  6389.45  80.3644
 59.0836  6294.54  79.6966
 59.1256  6120.02  78.9849
 59.1676  6169.97  79.9179
 59.2096  6152.84  79.125
 59.2516  6381.1  80.1486
 59.2936  6343.5  80.2484
 59.3356  6231.9  79.4152
 59.3776  6126.31  78.9098
 59.4196  6257.04  79.6824
 59.4616  6067.34  78.3245
 59.5036  6174.35  79.0454
 59.5456  6344.79  79.8172
 59.5876  6299.89  79.7295
 59.6296  6165.03  78.9414
 59.6716  6173.68  79.0554
 59.7136  6165.65  78.9921
 59.7556  6231.84  79.5536
 59.7976  6099.57  78.4457
 59.8396  6346.78  79.9112
 59.8816  6151.01  79.2197
 59.9236  6174.62  79.0111
 59.9656  6300.69  80.0799
 60.0076  6257.42  79.1502
 60.0496  6252.25  79.6297
 60.0916  6381.12  79.8486
 60.1336  6110.55  79.2513
 60.1756  6137.76  80.6215
 60.1996  0.0000000E+00  0.0000000E+00