File: docs/examples/opeando_xrd/IS17_D/Data/IS17_D/17_Da_f00072.xye
# /beamlines/bl04/projects/cycle2025-II/20250340211-lsimonelli/DATA/IS17_D/17_Da_f00072.xye : mythproc.py merge -s 0.006 -l 0.5 -f /beamlines/bl04/inhouse/ff/FlatField/ff_20Nov2024rod8mm60s_17keV.raw -b True -c true -o xye /beamlines/bl04/projects/cycle2025-II/20250340211-lsimonelli/DATA/IS17_D/17_Da_00072.dat
# IsMon = [6745327, 6746941, 6750459]  IsPos = [-1.4999, -2.4884, -3.4988]
# Wave = 0.4962  CalPath /beamlines/bl04/projects/cycle2025-II/20250340211-lsimonelli/DATA/Align/Si_Pos1_25keV_f00001.cal
# Date = 2025-09-24_13:36:05 Dt = 4.8000  Bin = 0.0060  <imon> = 6747576 +/- 2143 (Min/Max) 6745327 / 6750459
# icurr 248.8374  mocoIn 1.6970E-05  mocoOut 0.7965  i15 7.06433e+06  imon 6.74758e+06  i7 4.3333  iEMpd_timer 4.8000  iEMpd_1 3.2439E-08  iEMpd_2 7.8874E-08  iEMpd_3 1.6089E-08  iEMpd_4 4.7524E-08  iEMhp_timer 4.8000  iEMhp_1 4.8613E-06  iEMhp_2 -2.5376E-08  iEMhp_3 -2.5193E-08  iEMhp_4 -2.1249E-08
#      9776
 1.5856  39288.4  203.567
 1.6276  45672.3  215.717
 1.6696  52633  230.756
 1.7116  60947.2  248.8
 1.7536  70191.4  265.865
 1.7956  74892.8  275.311
 1.8376  70768.4  268.046
 1.8796  59867.6  244.723
 1.9216  47917.9  219.816
 1.9636  40162.7  200.42
 2.0056  36036.1  189.108
 2.0476  33374.4  183.985
 2.0896  32085.2  179.339
 2.1316  30932.5  175.241
 2.1736  29898.8  173.655
 2.2156  29782.6  171.926
 2.2576  29293.6  171.121
 2.2996  27733.6  167.113
 2.3416  28448.4  167.898
 2.3836  27671.9  165.696
 2.4256  26803  163.606
 2.4676  26748.6  163.208
 2.5096  26846.5  163.56
 2.5516  33038.9  185.629
 2.5936  138540  372.457
 2.6356  28855.5  170.702
 2.6776  25707.1  160.023
 2.7196  24834.4  157.787
 2.7616  24528  156.598
 2.8036  24291  156.007
 2.8456  24086.2  155.947
 2.8876  23685.6  154.52
 2.9296  23474  153.953
 2.9716  22979.4  151.831
 3.0136  22951.7  151.805
 3.0556  22933.5  152.125
 3.0976  22772.3  150.567
 3.1396  22742.6  151.163
 3.1816  22334.4  149.735
 3.2236  22341.9  149.756
 3.2656  22336.7  148.804
 3.3076  21980.1  149.017
 3.3496  22446.8  149.555
 3.3916  22870.1  150.793
 3.4336  23125.3  152.194
 3.4756  23645.7  153.828
 3.5176  24308.2  155.771
 3.5596  24425.3  158.501
 3.6016  24537.1  156.535
 3.6436  23810.3  155.278
 3.6856  23278.6  151.876
 3.7276  22436.5  150.163
 3.7696  22223.7  149.628
 3.8116  21922.7  148.511
 3.8536  21918  148.426
 3.8956  22031.5  148.642
 3.9376  22489.2  150.431
 3.9796  21786  147.58
 4.0216  21923.3  147.105
 4.0636  21670.6  147.689
 4.1056  21878  148.04
 4.1476  22057  148.959
 4.1896  22178.6  149.225
 4.2316  22269.8  149.36
 4.2736  22775.7  150.84
 4.3156  23167.7  152.353
 4.3576  23740.7  154.159
 4.3996  23990.1  155.222
 4.4416  24703.5  157.102
 4.4836  26057.2  161.502
 4.5256  25736.3  161.114
 4.5676  25330.2  160.081
 4.6096  25950.7  160.715
 4.6516  26603.1  162.432
 4.6936  26837.6  163.942
 4.7356  27595.6  166.077
 4.7776  26868.2  163.704
 4.8196  26385  162.872
 4.8616  25894.3  160.844
 4.9036  25673.4  159.906
 4.9456  26021.1  161.624
 4.9876  25200.8  158.959
 5.0296  25226.5  158.861
 5.0716  25160.9  159.408
 5.1136  25155.2  159.106
 5.1556  25680.7  160.235
 5.1976  34907  186.811
 5.2396  26448.8  162.312
 5.2816  26033.3  161.484
 5.3236  26096.6  161.391
 5.3656  25699.9  161.062
 5.4076  25374.1  160.187
 5.4496  25597.7  160.378
 5.4916  25474.5  159.758
 5.5336  25684.1  160.421
 5.5756  25442.5  159.701
 5.6176  25639.6  159.764
 5.6596  25790.6  161.19
 5.7016  26019.2  161.178
 5.7436  26203.6  162.017
 5.7856  25916.4  161.179
 5.8276  26421  162.467
 5.8696  26606.3  163.211
 5.9116  26349.3  163.009
 5.9536  26742.6  163.983
 5.9956  27085.8  164.41
 6.0376  27100.4  165.072
 6.0796  27214.3  165.252
 6.1216  27226.8  165.487
 6.1636  27607.8  165.724
 6.2056  27642.7  166.478
 6.2476  27646.2  166.368
 6.2896  28134.8  167.515
 6.3316  27756.1  166.564
 6.3736  27949.7  167.032
 6.4156  28095.3  167.368
 6.4576  28369.2  167.791
 6.4996  28359.7  168.23
 6.5416  28524.7  168.857
 6.5836  29057.2  170.651
 6.6256  28541.7  168.705
 6.6676  29252.2  170.365
 6.7096  29005.1  170.487
 6.7516  29346.6  171.142
 6.7936  30500.6  173.897
 6.8356  31073.9  175.607
 6.8776  30563  174.955
 6.9196  30199.3  174.31
 6.9616  30592.2  174.893
 7.0036  30910.8  175.455
 7.0456  30859.4  174.614
 7.0876  30738.9  175.936
 7.1296  30862.9  175.441
 7.1716  30827.5  174.88
 7.2136  30361.1  173.34
 7.2556  30765.5  174.652
 7.2976  30758.7  175.121
 7.3396  30872.5  175.658
 7.3816  30726.8  175.454
 7.4236  31037.1  175.635
 7.4656  31425.2  176.224
 7.5076  31580.2  176.787
 7.5496  31495.7  177.076
 7.5916  31511  177.155
 7.6336  32260.3  179.146
 7.6756  32033.3  178.37
 7.7176  32367.6  179.606
 7.7596  32332.2  180.742
 7.8016  37885.7  198.004
 7.8436  33262.9  182.188
 7.8856  33335.9  182.005
 7.9276  34227.9  184.807
 7.9696  34462.4  185.754
 8.0116  35151.3  186.149
 8.0536  35701.6  187.86
 8.0956  38652.5  196.688
 8.1376  36030.3  189.374
 8.1796  36116.7  190.144
 8.2216  37341.4  192.071
 8.2636  38534.1  195.365
 8.3056  37379.3  193.183
 8.3476  39679.9  198.359
 8.3896  38313.8  194.994
 8.4316  37668.6  193.509
 8.4736  37682.7  193.01
 8.5156  37106.3  191.802
 8.5576  37222.8  193.089
 8.5996  37083.3  191.593
 8.6416  37151.5  193.039
 8.6836  37015.9  192.501
 8.7256  37720  193.78
 8.7676  39870.2  202.22
 8.8096  39880  199.475
 8.8516  37033.6  191.827
 8.8936  39191.1  197.23
 8.9356  36620.6  190.99
 8.9776  36902.3  191.829
 9.0196  36113.9  189.447
 9.0616  36811.7  190.727
 9.1036  39201.6  198.066
 9.1456  36236.2  189.766
 9.1876  35883.8  188.802
 9.2296  35820.9  188.038
 9.2716  34937.2  185.771
 9.3136  35247.4  186.576
 9.3556  35604.8  187.499
 9.3976  33901.6  183.492
 9.4396  34312.9  184.486
 9.4816  33889.4  183.216
 9.5236  33917.4  183.199
 9.5656  33735.2  183.019
 9.6076  33547.2  183.023
 9.6496  33202.9  182.023
 9.6916  33552.4  182.943
 9.7336  33459.1  182.477
 9.7756  33597.4  184.104
 9.8176  32486.5  180.563
 9.8596  32605.7  179.354
 9.9016  32232.2  178.318
 9.9436  32004.9  177.601
 9.9856  32343.9  178.776
 10.0276  31105.9  176.405
 10.0696  31197.7  175.714
 10.1116  30907.4  175.155
 10.1536  30640.6  174.564
 10.1956  30289.2  173.165
 10.2376  29879.4  171.495
 10.2796  29978.1  171.905
 10.3216  29593.7  171.064
 10.3636  29393  170.515
 10.4056  32962.8  180.983
 10.4476  33135.7  181.07
 10.4896  37457.3  191.903
 10.5316  34347  184.536
 10.5736  29554.7  171.59
 10.6156  29232.9  170.417
 10.6576  34998.3  184.884
 10.6996  29251.4  169.689
 10.7416  28131.5  166.65
 10.7836  29423  171.129
 10.8256  27594.2  166.152
 10.8676  27692.7  165.98
 10.9096  27625.1  165.819
 10.9516  27005.3  162.884
 10.9936  28084.2  166.304
 11.0356  27598.7  165.508
 11.0776  28989.9  168.916
 11.1196  28734.3  168.949
 11.1616  26856.4  163.016
 11.2036  28111.1  166.63
 11.2456  29601.2  171.742
 11.2876  26492.6  162.2
 11.3296  26591.6  162.397
 11.3716  26960.4  163.206
 11.4136  26417.4  162.459
 11.4556  26894.6  163.573
 11.4976  28320  166.799
 11.5396  27893.3  165.704
 11.5816  25978.8  160.377
 11.6236  25524.1  159.184
 11.6656  25451.7  158.125
 11.7076  25050.6  157.703
 11.7496  25553.2  163.176
 11.7916  25833.8  159.404
 11.8336  24726.5  156.819
 11.8756  25155  157.716
 11.9176  24700.3  155.93
 11.9596  24335.5  154.97
 12.0016  24459.3  156.156
 12.0436  24121.4  154.498
 12.0856  23878.9  154.244
 12.1276  23984.4  154.493
 12.1696  24199.6  154.33
 12.2116  24552.2  155.441
 12.2536  26989.1  163.856
 12.2956  24784.1  156.342
 12.3376  24260.7  154.901
 12.3796  24195.6  155.149
 12.4216  24208.2  154.403
 12.4636  25339.2  158.902
 12.5056  23864.5  153.487
 12.5476  23931.4  153.238
 12.5896  23799.7  153.442
 12.6316  23507.7  152.661
 12.6736  23555.4  153.296
 12.7156  23929.5  154.37
 12.7576  23868  154.403
 12.7996  24152.7  153.972
 12.8416  24272.4  155.408
 12.8836  24976.9  157.469
 12.9256  24467.8  154.873
 12.9676  24550.7  155.56
 13.0096  24081.4  155.161
 13.0516  24268.2  154.8
 13.0936  24092.4  154.642
 13.1356  24387.7  154.573
 13.1776  24438.3  155.712
 13.2196  24237.3  154.739
 13.2616  24071.8  154.511
 13.3036  24147.6  154.733
 13.3456  24150.8  155.088
 13.3876  24509.9  155.539
 13.4296  24346  155.162
 13.4716  24550.3  155.426
 13.5136  24214.3  154.51
 13.5556  24530.1  156.121
 13.5976  24436.6  155.967
 13.6396  24883.2  156.755
 13.6816  24190.7  155.045
 13.7236  25022.4  157.335
 13.7656  24420.5  155.971
 13.8076  25423.4  157.892
 13.8496  24121.4  154.404
 13.8916  24251.3  155.812
 13.9336  23928.3  154.002
 13.9756  23901.1  153.272
 14.0176  23829.9  153.72
 14.0596  25038.1  157.537
 14.1016  23459.2  152.879
 14.1436  23304.2  151.518
 14.1856  23176  151.391
 14.2276  23303.4  152.287
 14.2696  23440.9  152.577
 14.3116  22857.4  150.561
 14.3536  22286.5  148.852
 14.3956  22371  148.87
 14.4376  22460.7  148.942
 14.4796  22250.5  148.24
 14.5216  21800.9  147.52
 14.5636  22539.4  149.563
 14.6056  22030.2  147.435
 14.6476  21846  146.057
 14.6896  21477  145.357
 14.7316  21019.1  144.8
 14.7736  20991  143.872
 14.8156  20898.6  143.587
 14.8576  20870.1  143.346
 14.8996  20858.7  144.513
 14.9416  20019  141.577
 14.9836  20330.1  142.611
 15.0256  20117.1  140.805
 15.0676  20036.5  140.837
 15.1096  19856  139.94
 15.1516  19582.5  139.529
 15.1936  19595.6  139.004
 15.2356  19572.8  139.2
 15.2776  19353  138.003
 15.3196  19212.3  138.505
 15.3616  18839.4  136.9
 15.4036  18616.4  135.953
 15.4456  19285.6  138.03
 15.4876  18865.6  136.199
 15.5296  18602.8  135.535
 15.5716  18330.5  134.139
 15.6136  18315.4  134.412
 15.6556  20969.8  143.009
 15.6976  18509.8  134.659
 15.7396  18247.8  134.084
 15.7816  18236  133.555
 15.8236  17701.3  132.27
 15.8656  17754  132.262
 15.9076  17664.8  131.758
 15.9496  18319.9  137.039
 15.9916  17312.7  133.646
 16.0336  17137.1  129.884
 16.0756  17395.3  131.161
 16.1176  17045.4  129.901
 16.1596  16723.2  129.841
 16.2016  16932.6  129.391
 16.2436  16647  128.685
 16.2856  16780.2  128.749
 16.3276  16245.7  127.091
 16.3696  16449.1  127.706
 16.4116  16258.6  127.42
 16.4536  16625.8  128.635
 16.4956  17243  130.741
 16.5376  16599.2  128.449
 16.5796  16367.7  126.921
 16.6216  16470.6  127.624
 16.6636  16387.2  127.444
 16.7056  16195.3  126.573
 16.7476  16377.2  126.812
 16.7896  16344.7  127.437
 16.8316  16188.8  126.791
 16.8736  16542.7  128.437
 16.9156  16302.8  127.827
 16.9576  15868.1  126.916
 16.9996  16107.8  128.351
 17.0416  15938.1  126.053
 17.0836  15778.5  125.176
 17.1256  15641.2  124.65
 17.1676  16212.9  126.901
 17.2096  16009.7  125.978
 17.2516  15855.5  125.15
 17.2936  15406.3  123.696
 17.3356  15038.3  122.211
 17.3776  15000.5  122.237
 17.4196  15403  123.563
 17.4616  15376.4  123.376
 17.5036  15892.2  125.792
 17.5456  14784.7  121.968
 17.5876  15028.4  122.022
 17.6296  14871.4  121.204
 17.6716  15029.9  122.417
 17.7136  15785.5  125.6
 17.7556  14944  122.496
 17.7976  15243.6  123.464
 17.8396  14839  121.313
 17.8816  14680.6  121.206
 17.9236  14377.5  119.76
 17.9656  14819.2  122.115
 18.0076  15449.7  124.251
 18.0496  16093  125.909
 18.0916  20589.6  143.052
 18.1336  18018  133.934
 18.1756  16047.9  125.904
 18.2176  16157.8  126.579
 18.2596  15004.7  121.709
 18.3016  15671.3  124.635
 18.3436  15969.8  125.826
 18.3856  15069.9  122.374
 18.4276  14940.2  121.512
 18.4696  14896.4  121.435
 18.5116  15089.8  122.513
 18.5536  14666.3  121.135
 18.5956  14783.8  121.17
 18.6376  14809  121.694
 18.6796  14408.7  119.348
 18.7216  14802  121.467
 18.7636  14308.7  119.417
 18.8056  14038.7  118.225
 18.8476  13942.5  118.433
 18.8896  13932.9  117.737
 18.9316  14271.3  119.139
 18.9736  13984.1  117.639
 19.0156  14417.8  119.86
 19.0576  14379.7  118.56
 19.0996  14356.3  119.17
 19.1416  14025  118.185
 19.1836  13951  117.475
 19.2256  13809.6  117.092
 19.2676  13973.3  117.87
 19.3096  13884.8  117.74
 19.3516  13794.3  117.317
 19.3936  13997.4  118.082
 19.4356  13916  117.603
 19.4776  14067.7  118.344
 19.5196  13837.1  117.226
 19.5616  13990.9  118.123
 19.6036  13785.7  116.751
 19.6456  14082.9  118.129
 19.6876  14463.8  119.352
 19.7296  13938.7  117.628
 19.7716  13874  117.517
 19.8136  14146.9  118.88
 19.8556  14506.1  119.843
 19.8976  14837.6  121.275
 19.9396  14511.9  119.508
 19.9816  14553.4  119.914
 20.0236  14691.3  120.708
 20.0656  13942.4  117.585
 20.1076  13554.3  116.4
 20.1496  13579  116.505
 20.1916  13696.4  116.534
 20.2336  13661.4  116.314
 20.2756  13347.4  115.392
 20.3176  13231.5  114.642
 20.3596  13436.2  115.497
 20.4016  13436.4  115.304
 20.4436  13480  116.044
 20.4856  13249  114.848
 20.5276  13160.9  114.91
 20.5696  13142.5  114.307
 20.6116  13227.2  114.942
 20.6536  13126.4  114.016
 20.6956  13195.4  114.437
 20.7376  13227.9  114.808
 20.7796  13164  114.219
 20.8216  13262  114.353
 20.8636  13356.3  115.13
 20.9056  14497.3  119.892
 20.9476  13244.2  114.439
 20.9896  14281.9  118.694
 21.0316  13351.8  114.656
 21.0736  13479.7  115.734
 21.1156  13785.9  117.199
 21.1576  13326.5  115.28
 21.1996  13010.8  113.889
 21.2416  12897.3  113.232
 21.2836  13120.3  114.161
 21.3256  12935.3  113.444
 21.3676  13222.3  114.238
 21.4096  13252.4  114.68
 21.4516  12899.6  113.024
 21.4936  12753  112.63
 21.5356  12974.8  113.546
 21.5776  12967.9  113.353
 21.6196  13030.7  113.664
 21.6616  13108.7  114.09
 21.7036  12691.9  112.041
 21.7456  12785.8  112.533
 21.7876  12586.3  111.403
 21.8296  12598.4  111.316
 21.8716  12685.2  111.933
 21.9136  12935.6  113.229
 21.9556  12974.7  113.069
 21.9976  12751  112.105
 22.0396  12717.2  112.209
 22.0816  12712  112.728
 22.1236  13116.3  113.948
 22.1656  12719.9  112.334
 22.2076  12778.3  112.068
 22.2496  12619.7  111.401
 22.2916  12802.3  112.075
 22.3336  12806.9  112.834
 22.3756  12695  112.057
 22.4176  12589.3  111.446
 22.4596  12346.9  110.947
 22.5016  12651.7  111.801
 22.5436  12800.9  112.338
 22.5856  12697.8  112.135
 22.6276  12537.3  111.567
 22.6696  12633.4  112.334
 22.7116  12424.4  110.927
 22.7536  12524.8  111.345
 22.7956  12637  111.182
 22.8376  12327.3  110.316
 22.8796  12640.1  111.513
 22.9216  12520.8  111.526
 22.9636  12517.3  110.669
 23.0056  12565.9  111.019
 23.0476  12702.1  112.183
 23.0896  13021.7  112.963
 23.1316  12918.1  112.952
 23.1736  12438.1  113.776
 23.2156  12420.6  111.081
 23.2576  12542.7  111.768
 23.2996  12398.9  110.9
 23.3416  12508.7  111.916
 23.3836  12519.1  111.189
 23.4256  12527.8  111.347
 23.4676  12441  110.665
 23.5096  12453.8  111.392
 23.5516  12347.3  110.202
 23.5936  12640.9  112.393
 23.6356  12764  112.624
 23.6776  12528.1  111.79
 23.7196  12316.8  110.415
 23.7616  12412.3  110.766
 23.8036  12429.2  110.894
 23.8456  12489.3  110.717
 23.8876  12306.8  110.273
 23.9296  12347.4  110.93
 23.9716  12190.9  109.415
 24.0136  12538.5  111.867
 24.0556  12179.5  110.004
 24.0976  12058.2  109.256
 24.1396  12092.5  112.053
 24.1816  12148  110.744
 24.2236  11999.4  109.684
 24.2656  11988.5  109.11
 24.3076  12042.4  109.6
 24.3496  12143.9  109.955
 24.3916  12153.9  110.054
 24.4336  11835.6  108.808
 24.4756  11604.1  107.616
 24.5176  11624.3  107.356
 24.5596  11676.1  107.721
 24.6016  11600.8  107.659
 24.6436  11787.6  108.013
 24.6856  11711  107.419
 24.7276  11763.5  107.97
 24.7696  11585.6  107.273
 24.8116  11746.2  108.196
 24.8536  11657.4  107.78
 24.8956  11570.7  107.116
 24.9376  11584.7  107.121
 24.9796  11436.7  106.789
 25.0216  11396.8  106.713
 25.0636  11540.3  107.032
 25.1056  11231.5  106.293
 25.1476  11335.9  108.442
 25.1896  11412.2  107.281
 25.2316  11382.2  106.399
 25.2736  11402.8  106.154
 25.3156  11178.1  105.175
 25.3576  11175.2  105.587
 25.3996  11219.1  105.773
 25.4416  11171.5  105.534
 25.4836  11032.4  105.395
 25.5256  11051.8  104.854
 25.5676  11227.7  105.416
 25.6096  10968.6  104.76
 25.6516  11204.6  105.378
 25.6936  10977  104.616
 25.7356  11063.6  105.161
 25.7776  11073.8  104.813
 25.8196  11027.7  104.828
 25.8616  11095.6  105.066
 25.9036  11185.9  104.969
 25.9456  11108.8  105.209
 25.9876  10920.9  104.377
 26.0296  11180.7  105.121
 26.0716  10980  104.599
 26.1136  11180.3  105.484
 26.1556  11320.2  105.508
 26.1976  10772.6  103.845
 26.2396  10982.8  104.005
 26.2816  10860.2  104.037
 26.3236  10971.8  104.731
 26.3656  10839.3  103.824
 26.4076  10895.9  104.296
 26.4496  11475.8  106.462
 26.4916  10912.9  103.878
 26.5336  10863  103.966
 26.5756  11051.9  104.723
 26.6176  10998.3  104.521
 26.6596  10757.6  103.682
 26.7016  10654.4  102.942
 26.7436  10571.2  102.672
 26.7856  10422.1  101.923
 26.8276  10546.6  102.489
 26.8696  10542.2  102.342
 26.9116  10574.4  102.438
 26.9536  10481.3  102.033
 26.9956  10484.7  102.08
 27.0376  10353.9  101.66
 27.0796  10571.5  102.447
 27.1216  10566.5  102.505
 27.1636  10323.7  101.478
 27.2056  10409.6  101.785
 27.2476  10407.6  101.779
 27.2896  10432.5  102.008
 27.3316  10330.6  101.22
 27.3736  10294.2  101.306
 27.4156  10225  100.816
 27.4576  10481.6  102.301
 27.4996  10389.3  101.449
 27.5416  10400.7  101.821
 27.5836  10326.3  101.273
 27.6256  10720.6  103.341
 27.6676  10526.3  102.431
 27.7096  10395  101.656
 27.7516  10881.8  104.165
 27.7936  10696.5  103.455
 27.8356  10610.4  102.65
 27.8776  10434.8  101.839
 27.9196  10380.3  101.42
 27.9616  10575.4  102.566
 28.0036  10338.7  101.386
 28.0456  10152.1  100.595
 28.0876  10176.8  100.805
 28.1296  10160  100.567
 28.1716  10080.4  100.184
 28.2136  10124.2  100.364
 28.2556  10065.4  100.191
 28.2976  10052.2  100.117
 28.3396  10230  100.735
 28.3816  10096.7  100.113
 28.4236  10342.8  101.482
 28.4656  9905.64  99.3512
 28.5076  9856.77  98.7444
 28.5496  9885.45  99.1481
 28.5916  9926.69  99.1573
 28.6336  9853.06  99.14
 28.6756  9900.94  98.5784
 28.7176  9833.16  98.7855
 28.7596  9800.16  98.5194
 28.8016  9847.56  98.7905
 28.8436  9801.27  98.8004
 28.8856  9906.22  99.1771
 28.9276  9843.99  99.1125
 28.9696  9610.21  97.5884
 29.0116  9832.92  98.8946
 29.0536  9691.96  98.3878
 29.0956  9759.62  98.4434
 29.1376  9801.98  98.6225
 29.1796  9677.62  98.0455
 29.2216  9645.69  97.7237
 29.2636  9646.04  97.8045
 29.3056  9588.11  97.2983
 29.3476  9753.94  98.6548
 29.3896  9766.71  98.8187
 29.4316  9904.27  98.842
 29.4736  9736.79  98.0621
 29.5156  9769.04  98.1436
 29.5576  9758.56  98.8445
 29.5996  9594.92  97.2692
 29.6416  9499.5  96.904
 29.6836  9747.74  98.0842
 29.7256  9606.4  97.9374
 29.7676  9723.62  98.1888
 29.8096  9551.15  97.2562
 29.8516  9431.17  96.9706
 29.8936  9607.84  97.9723
 29.9356  9534.83  97.3595
 29.9776  9524.84  97.4612
 30.0196  9694.96  97.7137
 30.0616  9586.99  97.5405
 30.1036  9568.58  97.2707
 30.1456  9505.12  97.1776
 30.1876  9490.14  97.0866
 30.2296  9547.18  97.3201
 30.2716  9608.26  97.269
 30.3136  9502.25  97.5861
 30.3556  9485.26  97.5197
 30.3976  9429.47  98.754
 30.4396  9534.76  96.6403
 30.4816  9507.09  96.09
 30.5236  9481.72  95.99
 30.5656  9574.41  97.1035
 30.6076  9572.39  96.5191
 30.6496  9603.32  97.0662
 30.6916  9440.4  96.3259
 30.7336  9393.56  96.2424
 30.7756  9452.51  96.6363
 30.8176  9307.16  95.8074
 30.8596  9339.16  95.7451
 30.9016  9432.09  96.5602
 30.9436  9360.54  95.9484
 30.9856  9478.22  96.6592
 31.0276  9211.8  94.9044
 31.0696  9384.63  96.3619
 31.1116  9415.75  96.4993
 31.1536  9434.51  96.4734
 31.1956  9366.84  96.2181
 31.2376  9213.41  95.4313
 31.2796  9203.44  94.9205
 31.3216  9290.98  95.3187
 31.3636  9263.59  95.8746
 31.4056  9365.29  97.7355
 31.4476  9159.13  94.5458
 31.4896  9232.26  95.4272
 31.5316  9548.26  96.4364
 31.5736  9967.82  98.3407
 31.6156  9750.13  97.2867
 31.6576  9517.81  96.2229
 31.6996  9594.28  96.2773
 31.7416  9313.74  95.9214
 31.7836  9416.05  95.4529
 31.8256  9226.13  94.7585
 31.8676  9079.4  93.9926
 31.9096  9107.57  94.4973
 31.9516  8981.21  93.9998
 31.9936  8953.33  93.6786
 32.0356  9202.88  95.043
 32.0776  9222.16  95.0241
 32.1196  9064  94.2945
 32.1616  9166.43  94.2877
 32.2036  9017.28  94.0237
 32.2456  9091.96  94.7937
 32.2876  9059.5  94.1226
 32.3296  9064.07  94.1084
 32.3716  9055.3  94.1582
 32.4136  9034.08  94.2561
 32.4556  9201.07  94.5043
 32.4976  9162.79  94.2091
 32.5396  9032.3  93.61
 32.5816  8906.84  93.0841
 32.6236  8983.95  93.554
 32.6656  9070.99  94.5443
 32.7076  8942.95  93.5333
 32.7496  8974.51  93.3671
 32.7916  9020.63  93.5621
 32.8336  9002.03  93.566
 32.8756  9024.58  93.4049
 32.9176  8979.7  93.6516
 32.9596  9028.58  93.9809
 33.0016  9082.69  94.0598
 33.0436  8977.55  93.6813
 33.0856  8880.66  93.2519
 33.1276  8926.89  93.2281
 33.1696  8943.87  93.1588
 33.2116  9037.54  93.8704
 33.2536  8934.15  93.3338
 33.2956  8918.23  93.3265
 33.3376  8850.26  92.7126
 33.3796  8954.47  93.4664
 33.4216  8912.28  92.843
 33.4636  8784.05  92.3176
 33.5056  8838.3  92.8425
 33.5476  8747.28  92.3581
 33.5896  8856.57  92.7141
 33.6316  8652.39  91.9416
 33.6736  8651.79  92.1845
 33.7156  8715.97  92.5688
 33.7576  8906.46  93.1941
 33.7996  8976.2  93.3185
 33.8416  8640.63  91.7481
 33.8836  8830.32  92.5263
 33.9256  8859.68  92.7459
 33.9676  8839.67  92.5299
 34.0096  8531.96  91.2261
 34.0516  8536.33  90.886
 34.0936  8642.37  91.7075
 34.1356  8823.14  92.4083
 34.1776  8681.6  91.667
 34.2196  8688.54  91.8931
 34.2616  8594.14  91.524
 34.3036  8575.23  91.6766
 34.3456  8602.11  91.5685
 34.3876  8598.02  91.5118
 34.4296  8636.06  91.4127
 34.4716  8782.32  92.3212
 34.5136  8660.83  91.8884
 34.5556  8549.61  91.5451
 34.5976  8610.72  91.6794
 34.6396  8708.24  91.9106
 34.6816  8550.12  91.1866
 34.7236  8536  90.892
 34.7656  8625.43  91.5598
 34.8076  8548.96  91.4732
 34.8496  8557.19  91.3782
 34.8916  8480.33  90.8451
 34.9336  8709.34  92.0207
 34.9756  8565.29  91.1722
 35.0176  8584.38  91.8059
 35.0596  8423.36  90.773
 35.1016  8476.89  90.8311
 35.1436  8700.61  91.7056
 35.1856  8434.55  90.4168
 35.2276  8531.22  91.1123
 35.2696  8499.92  91.1371
 35.3116  8575.1  91.6286
 35.3536  8395.08  90.3725
 35.3956  8522.97  90.7722
 35.4376  8380.31  90.5577
 35.4796  8511.18  91.3234
 35.5216  8441.77  90.9063
 35.5636  8253.2  90.6264
 35.6056  8467.88  90.8092
 35.6476  8393.65  90.3096
 35.6896  8542.24  91.196
 35.7316  8386.74  90.336
 35.7736  8381.01  90.4988
 35.8156  8303.19  90.0833
 35.8576  8405.31  90.8798
 35.8996  8488.48  91.2898
 35.9416  8741.08  92.0862
 35.9836  8292.57  90.0913
 36.0256  8463.08  91.0312
 36.0676  8365.64  90.2705
 36.1096  8344.71  90.2916
 36.1516  8330.65  90.1054
 36.1936  8414.77  90.4047
 36.2356  8305.07  90.4487
 36.2776  8354.18  90.1963
 36.3196  8396.06  90.0949
 36.3616  8367.57  90.0753
 36.4036  8287.97  89.7007
 36.4456  8351.64  90.2602
 36.4876  8281.5  89.8182
 36.5296  8289  89.8974
 36.5716  8326.01  90.8809
 36.6136  8681.75  91.5379
 36.6556  8606.66  91.3494
 36.6976  8318.46  90.3079
 36.7396  8343.8  90.1762
 36.7816  8174.71  89.6298
 36.8236  8376.85  90.6556
 36.8656  8204.27  89.7897
 36.9076  8213.89  89.7199
 36.9496  8209.25  89.6747
 36.9916  8223.16  89.3859
 37.0336  8399.28  90.6525
 37.0756  8332.36  90.0846
 37.1176  8166.15  89.4499
 37.1596  8273.03  90.0372
 37.2016  8253.49  90.1586
 37.2436  8317.45  89.8175
 37.2856  8181.79  89.3473
 37.3276  8281.03  89.2279
 37.3696  8190.43  89.6282
 37.4116  8209.09  89.6276
 37.4536  8135.03  89.0944
 37.4956  8037.66  88.6039
 37.5376  8152.67  90.7762
 37.5796  8163.21  90.8023
 37.6216  7882.76  87.5268
 37.6636  8040.98  88.3045
 37.7056  8113.42  88.8914
 37.7476  8145.61  88.6082
 37.7896  8173.9  89.2523
 37.8316  7778.69  87.2473
 37.8736  8119.75  88.6544
 37.9156  7971.46  87.8455
 37.9576  8073.02  88.2942
 37.9996  7946.17  87.3074
 38.0416  7877.79  87.745
 38.0836  8172.68  89.2722
 38.1256  8060.34  88.605
 38.1676  7922.18  87.9891
 38.2096  8169.06  88.9757
 38.2516  8256.17  89.6496
 38.2936  8060.38  88.3867
 38.3356  8153.63  88.7955
 38.3776  7945.28  87.9372
 38.4196  8110.84  88.697
 38.4616  7998.54  88.3173
 38.5036  8249.01  89.5317
 38.5456  7930.55  88.6292
 38.5876  7939.7  88.7108
 38.6296  7832.99  87.1015
 38.6716  7872.95  87.1154
 38.7136  7854.93  86.9613
 38.7556  7827.35  87.3101
 38.7976  7970.37  88.035
 38.8396  7941.81  88.3365
 38.8816  7900.21  87.8773
 38.9236  7946.85  87.9554
 38.9656  7873.68  87.4629
 39.0076  8019.57  87.6742
 39.0496  7808.53  87.0497
 39.0916  7994.54  87.7243
 39.1336  7875.89  87.4845
 39.1756  7882.55  87.5872
 39.2176  7851.96  87.9462
 39.2596  7950.65  88.4179
 39.3016  7832.14  87.3231
 39.3436  7850.88  87.8595
 39.3856  7940.48  87.8082
 39.4276  7917.15  88.1743
 39.4696  7812.56  87.2122
 39.5116  7789.67  87.5919
 39.5536  8082.54  89.6506
 39.5956  7974.5  88.15
 39.6376  8060.45  88.622
 39.6796  7830.19  87.0975
 39.7216  7951.91  87.8584
 39.7636  7931.09  88.3229
 39.8056  7926.41  88.0733
 39.8476  7843.91  87.8705
 39.8896  7818.73  87.3638
 39.9316  7882.39  87.9654
 39.9736  8032.1  88.3665
 40.0156  7928.16  87.5979
 40.0576  7918.94  87.9278
 40.0996  7978.29  87.4384
 40.1416  7983.85  88.257
 40.1836  7939.56  87.9003
 40.2256  7963.53  88.0853
 40.2676  7855.11  87.5881
 40.3096  8026.09  88.4596
 40.3516  8039.82  88.6446
 40.3936  8071.44  88.3787
 40.4356  8001.28  88.1915
 40.4776  7949.93  88.3178
 40.5196  8000.63  88.7252
 40.5616  7964.12  88.166
 40.6036  7846.54  87.7634
 40.6456  8068.67  88.6001
 40.6876  8080.88  88.6602
 40.7296  8025.14  88.4851
 40.7716  7997.23  88.4598
 40.8136  7880.92  87.7614
 40.8556  7957.77  88.3231
 40.8976  7973.36  88.3284
 40.9396  7908.5  88.3204
 40.9816  8008.6  88.1549
 41.0236  7988.06  87.8205
 41.0656  8053.67  88.7215
 41.1076  8120.69  88.8605
 41.1496  7983.8  88.0192
 41.1916  7947.88  88.1438
 41.2336  7910.61  87.9313
 41.2756  7883.54  87.3835
 41.3176  7917.08  88.1866
 41.3596  7992.89  88.3338
 41.4016  7912.48  88.1466
 41.4436  8005.23  88.4483
 41.4856  7984.94  88.4992
 41.5276  7915.79  88.1355
 41.5696  7913.47  87.7498
 41.6116  7917.47  88.1725
 41.6536  7892.68  87.8911
 41.6956  7904.62  88.0195
 41.7376  7978.82  88.4514
 41.7796  7930.53  88.0652
 41.8216  7987.78  88.6209
 41.8636  7985.09  88.5434
 41.9056  7877.1  87.7353
 41.9476  7911.03  88.1601
 41.9896  7952.35  88.05
 42.0316  7909.14  87.8948
 42.0736  7961  88.2967
 42.1156  7788.21  87.1706
 42.1576  7864.04  87.6865
 42.1996  7832.5  87.6592
 42.2416  7875.35  87.4788
 42.2836  7843.07  87.4138
 42.3256  7814.67  87.3696
 42.3676  7811.32  87.1592
 42.4096  7799.82  87.0511
 42.4516  7853.96  87.4467
 42.4936  7816.56  87.3049
 42.5356  7876.5  87.7637
 42.5776  7874.18  87.6956
 42.6196  7908.41  87.9441
 42.6616  7777.25  87.3777
 42.7036  7799.39  86.8915
 42.7456  7844.47  87.5024
 42.7876  7881.87  87.8106
 42.8296  7890.04  87.6818
 42.8716  7705.36  86.8087
 42.9136  7766.61  86.9453
 42.9556  7852.26  87.5542
 42.9976  7789.67  87.172
 43.0396  7793.92  86.9262
 43.0816  7758.93  87.1068
 43.1236  7734.04  87.0268
 43.1656  7821.08  87.3452
 43.2076  7685.11  86.684
 43.2496  7741.87  86.8177
 43.2916  7687.57  86.8782
 43.3336  7705.19  86.8156
 43.3756  7729.11  86.7001
 43.4176  7615.91  86.1507
 43.4596  7626.46  86.0645
 43.5016  7807.54  87.4905
 43.5436  7664.44  86.583
 43.5856  7712.53  86.8765
 43.6276  7655.2  86.4493
 43.6696  7628.28  86.5554
 43.7116  7630.04  86.068
 43.7536  7715.44  87.0353
 43.7956  7612.51  87.6487
 43.8376  7650.53  86.4003
 43.8796  7577.5  86.0666
 43.9216  7685.55  86.5932
 43.9636  7608.38  86.2589
 44.0056  7480.29  85.7628
 44.0476  7537.78  85.725
 44.0896  7579.72  86.3106
 44.1316  7724.12  86.6478
 44.1736  7604.14  86.0931
 44.2156  7672.31  86.341
 44.2576  7623.9  86.3884
 44.2996  7648.54  86.5046
 44.3416  7612.13  86.0506
 44.3836  7480.35  85.6248
 44.4256  7419  84.9236
 44.4676  7500.53  85.5481
 44.5096  7493.66  85.6527
 44.5516  7561.08  85.9983
 44.5936  7438.99  85.2581
 44.6356  7471.15  85.1796
 44.6776  7493.16  85.6272
 44.7196  7513.14  86.0422
 44.7616  7479.62  87.1814
 44.8036  7347.25  84.8397
 44.8456  7471.15  85.7638
 44.8876  7501.89  85.7796
 44.9296  7629.97  85.969
 44.9716  7377.41  84.9487
 45.0136  7516.64  85.6909
 45.0556  7449.41  85.2855
 45.0976  7284.65  84.4948
 45.1396  7342.82  84.5774
 45.1816  7344.67  84.5243
 45.2236  7476.42  85.1926
 45.2656  7334.57  84.8721
 45.3076  7285.9  84.3843
 45.3496  7300.51  84.7668
 45.3916  7339.1  85.2566
 45.4336  7391.91  85.4077
 45.4756  7304.93  84.763
 45.5176  7377.68  84.8053
 45.5596  7464.56  85.4183
 45.6016  7356.33  85.2156
 45.6436  7424.94  84.7936
 45.6856  7254.98  84.4653
 45.7276  7278.45  85.8992
 45.7696  7328.86  85.8766
 45.8116  7411.44  85.8035
 45.8536  7318.7  85.162
 45.8956  7352.34  84.7134
 45.9376  7349.08  84.1634
 45.9796  7325.02  84.7035
 46.0216  7286.19  84.8244
 46.0636  7275.57  83.9112
 46.1056  7285.53  83.9545
 46.1476  7304.29  84.6525
 46.1896  7414.47  85.4379
 46.2316  7234.4  84.2672
 46.2736  7212.38  84.5011
 46.3156  7282.79  84.5016
 46.3576  7238.29  84.4444
 46.3996  7315.55  85.046
 46.4416  7314.24  84.6251
 46.4836  7261.79  84.6728
 46.5256  7340.04  85.067
 46.5676  7240.85  84.6023
 46.6096  7230.52  84.4699
 46.6516  7351.31  84.226
 46.6936  7325.22  84.5605
 46.7356  7313.21  84.6059
 46.7776  7239.15  84.9987
 46.8196  7126.67  83.9385
 46.8616  7077.44  83.5907
 46.9036  7042.71  83.0574
 46.9456  7130.85  83.2092
 46.9876  7159.71  83.4694
 47.0296  7061.43  83.5664
 47.0716  7124.81  83.7686
 47.1136  7102.89  83.3215
 47.1556  7140.67  83.405
 47.1976  7132.1  83.4431
 47.2396  7165.37  84.0306
 47.2816  7102.48  83.364
 47.3236  7164.85  84.0949
 47.3656  7119.73  83.7648
 47.4076  7063.7  83.2354
 47.4496  6933.81  82.5639
 47.4916  7036.75  83.3585
 47.5336  7122.21  83.6839
 47.5756  7036.48  83.2925
 47.6176  7019.42  83.0832
 47.6596  7039.06  82.9293
 47.7016  7101.7  83.11
 47.7436  7214.85  84.1053
 47.7856  7179.66  83.9335
 47.8276  6985.53  82.8282
 47.8696  7074.17  83.4365
 47.9116  7074.01  83.1524
 47.9536  6978.13  82.5336
 47.9956  6939.19  82.9969
 48.0376  6926.96  82.7094
 48.0796  7053.13  83.5833
 48.1216  7130.68  83.8651
 48.1636  7200.67  83.8476
 48.2056  7095.84  83.4966
 48.2476  7123.94  83.9733
 48.2896  6990.59  83.0907
 48.3316  6999.3  83.0783
 48.3736  6912.77  82.5924
 48.4156  6950.09  82.6637
 48.4576  6998.07  83.2446
 48.4996  6953.61  82.447
 48.5416  7117.19  83.732
 48.5836  6915.86  82.2249
 48.6256  6957.76  82.6806
 48.6676  7004.84  83.4635
 48.7096  6986.44  82.6161
 48.7516  6998.46  82.8495
 48.7936  6923.81  82.4651
 48.8356  6954.04  82.6959
 48.8776  6939.56  83.1676
 48.9196  7090.34  83.4438
 48.9616  6888.14  82.6267
 49.0036  6895.31  83.0106
 49.0456  6814.65  82.5021
 49.0876  7032.02  83.3432
 49.1296  6879.49  82.6022
 49.1716  6825.46  82.1418
 49.2136  7005.98  83.1446
 49.2556  6938.71  82.7817
 49.2976  6912.76  82.6959
 49.3396  6785.66  81.9842
 49.3816  6976.96  82.5717
 49.4236  6844.71  82.1996
 49.4656  6778.51  81.8173
 49.5076  6911.06  82.3672
 49.5496  6848.76  82.0601
 49.5916  6882.12  82.1705
 49.6336  6804.02  81.907
 49.6756  6954.75  83.0462
 49.7176  6832.27  82.2453
 49.7596  6824.03  81.966
 49.8016  6895.24  82.3115
 49.8436  6736.46  81.6494
 49.8856  6749.89  81.7442
 49.9276  6687.36  81.4583
 49.9696  6808.98  82.1801
 50.0116  6786.24  82.1748
 50.0536  6782.34  82.0993
 50.0956  6702.64  81.6826
 50.1376  6715.66  81.47
 50.1796  6685.01  81.5434
 50.2216  6786.71  82.1522
 50.2636  6669.75  81.0655
 50.3056  6714.61  81.5171
 50.3476  6803.42  82.0695
 50.3896  6695.49  81.3904
 50.4316  6756.47  81.5953
 50.4736  6724.83  81.6144
 50.5156  6757.46  81.8086
 50.5576  6771.05  81.6574
 50.5996  6665.51  81.2931
 50.6416  6670.39  81.255
 50.6836  6759.56  81.8561
 50.7256  6837.82  82.2533
 50.7676  6687.56  81.6645
 50.8096  6704.55  81.3014
 50.8516  6602.77  81.0925
 50.8936  6677.46  81.3279
 50.9356  6729.43  81.7519
 50.9776  6728.33  81.8829
 51.0196  6545.61  80.8993
 51.0616  6605.81  80.6078
 51.1036  6608.02  80.9589
 51.1456  6659.08  81.2009
 51.1876  6618.71  80.3012
 51.2296  6509.25  80.2575
 51.2716  6582.75  80.4146
 51.3136  6539.05  80.5975
 51.3556  6667.78  81.0141
 51.3976  6541.99  80.3979
 51.4396  6440.9  80.0709
 51.4816  6549.45  80.5961
 51.5236  6514.76  80.4686
 51.5656  6475.44  79.835
 51.6076  6544.72  80.3468
 51.6496  6560.36  80.6264
 51.6916  6511.83  80.6803
 51.7336  6675.05  81.7707
 51.7756  6583.67  80.9167
 51.8176  6465.28  80.2881
 51.8596  6555.91  80.8608
 51.9016  6719.05  81.4756
 51.9436  6405.13  80.9709
 51.9856  6467.26  81.8004
 52.0276  6509.04  80.5874
 52.0696  6535.47  80.818
 52.1116  6435.61  80.3045
 52.1536  6510.19  80.6662
 52.1956  6620.7  80.8087
 52.2376  6712.25  81.5377
 52.2796  6546.5  80.329
 52.3216  6380.5  79.9931
 52.3636  6512.87  80.4
 52.4056  6472.93  80.0098
 52.4476  6430.7  80.1099
 52.4896  6305.33  79.3777
 52.5316  6502.63  80.6569
 52.5736  6517.3  80.468
 52.6156  6486.21  80.6546
 52.6576  6569.5  80.6184
 52.6996  6253.49  79.6028
 52.7416  6449.31  80.6876
 52.7836  6500.01  80.8952
 52.8256  6551.82  80.4453
 52.8676  6400.93  80.0758
 52.9096  6515.95  80.8815
 52.9516  6487.49  81.0755
 52.9936  6331.71  80.4862
 53.0356  6362.72  79.7004
 53.0776  6323.79  79.7122
 53.1196  6225.67  79.2157
 53.1616  6323.44  79.8818
 53.2036  6271.03  79.5091
 53.2456  6188.1  79.0798
 53.2876  6292.95  79.4563
 53.3296  6350.04  80.1367
 53.3716  6244.35  79.218
 53.4136  6162.65  78.8414
 53.4556  6279.38  79.6157
 53.4976  6152.03  78.6568
 53.5396  6271.46  79.8054
 53.5816  6261.69  79.3824
 53.6236  6219.73  79.4537
 53.6656  6224.7  79.1212
 53.7076  6308.82  79.6126
 53.7496  6280.47  79.5536
 53.7916  6361.81  80.1941
 53.8336  6241.18  79.3267
 53.8756  6234.61  79.8291
 53.9176  6256.71  79.3225
 53.9596  6287.58  80.2718
 54.0016  6167.74  78.8481
 54.0436  6242.05  79.5275
 54.0856  6301  79.3398
 54.1276  6250.03  79.2113
 54.1696  6272.65  79.5289
 54.2116  6156.24  78.5511
 54.2536  6271.86  79.0952
 54.2956  6287.44  79.2437
 54.3376  6291.73  79.7536
 54.3796  6251.95  79.4024
 54.4216  6360.34  80.1309
 54.4636  6248.89  79.3832
 54.5056  6287.47  79.4492
 54.5476  6135.23  78.8145
 54.5896  6264.7  79.4734
 54.6316  6302.11  79.5675
 54.6736  6239.64  79.2457
 54.7156  6235.26  79.2463
 54.7576  6189.66  78.9474
 54.7996  6191.41  79.0928
 54.8416  6300.14  79.8366
 54.8836  6108.16  78.7224
 54.9256  6139.78  78.6735
 54.9676  6240.64  79.1787
 55.0096  6181.96  78.8712
 55.0516  6191.68  79.1612
 55.0936  6210.2  78.9163
 55.1356  6195  78.8672
 55.1776  6235.12  79.388
 55.2196  6146.55  78.6004
 55.2616  6095.03  78.4812
 55.3036  6174.43  79.1507
 55.3456  6157.93  79.1912
 55.3876  6245.24  79.5006
 55.4296  6208.18  79.2362
 55.4716  6256.09  79.5775
 55.5136  6238.7  79.2201
 55.5556  6211.81  79.1229
 55.5976  6149.04  78.7801
 55.6396  6120.67  78.5494
 55.6816  6139.08  78.5455
 55.7236  6250.34  79.2888
 55.7656  6211.67  78.8085
 55.8076  6281.8  79.2343
 55.8496  6183.9  78.9323
 55.8916  6119.36  78.724
 55.9336  6111.85  78.4914
 55.9756  6195.5  78.9164
 56.0176  6167.84  78.8938
 56.0596  6196.92  79.0564
 56.1016  6136.98  78.6848
 56.1436  6147.22  79.0159
 56.1856  6155.59  78.8111
 56.2276  6187.71  79.0709
 56.2696  6172.06  78.9488
 56.3116  6079.3  78.7487
 56.3536  6152.31  78.8806
 56.3956  6184.16  79.0777
 56.4376  6159.75  78.953
 56.4796  6209.17  79.0685
 56.5216  6141.59  79.0091
 56.5636  6233.95  79.1927
 56.6056  6165.38  78.9868
 56.6476  6125.62  78.3659
 56.6896  6164.58  79.0591
 56.7316  6149  78.864
 56.7736  6199.53  79.1901
 56.8156  6112.59  78.6367
 56.8576  6172.97  78.9555
 56.8996  6209.71  79.1325
 56.9416  6099.51  78.7248
 56.9836  6092.4  78.1992
 57.0256  6103.48  78.5816
 57.0676  6134.89  78.9105
 57.1096  6184.85  79.0218
 57.1516  6165.46  78.9591
 57.1936  6144.81  78.5716
 57.2356  6074.59  78.4392
 57.2776  6110.28  78.6275
 57.3196  6129.91  79.1249
 57.3616  6094.02  78.3862
 57.4036  6221.89  79.2654
 57.4456  6086.31  78.3662
 57.4876  6152.2  78.6444
 57.5296  6091.32  78.5941
 57.5716  6054.34  78.3431
 57.6136  6068.88  78.2609
 57.6556  6080.12  78.4723
 57.6976  6069.26  78.2154
 57.7396  5970.07  77.9476
 57.7816  6032.27  78.711
 57.8236  6131.04  79.1478
 57.8656  6054.17  78.3127
 57.9076  6096.22  78.6065
 57.9496  6118.35  79.099
 57.9916  6090.51  78.4412
 58.0336  6109.23  78.8351
 58.0756  6083.75  78.3078
 58.1176  6143.29  78.6839
 58.1596  5976.85  78.1732
 58.2016  6186.5  78.7366
 58.2436  6175.8  79.0852
 58.2856  6135.31  78.7421
 58.3276  6117.62  79.0131
 58.3696  6044.17  78.2845
 58.4116  6164.3  78.9221
 58.4536  6135.37  78.6298
 58.4956  6152.43  78.9147
 58.5376  6121.57  78.2896
 58.5796  6167.2  79.0018
 58.6216  6130.4  78.5903
 58.6636  6104.01  78.6278
 58.7056  6083.62  78.3504
 58.7476  6075.41  78.7473
 58.7896  6090.51  78.4905
 58.8316  6117.19  78.6607
 58.8736  6049.52  78.2321
 58.9156  5990.3  77.8904
 58.9576  6219.1  79.6835
 58.9996  6214.95  78.8892
 59.0416  6220.55  79.2972
 59.0836  6107.12  78.5002
 59.1256  6077.3  79.0076
 59.1676  6017.36  78.922
 59.2096  6190.61  79.3449
 59.2516  6335.77  79.8408
 59.2936  6091.74  78.6175
 59.3356  6147.36  78.8523
 59.3776  6099.23  78.7128
 59.4196  6177.19  79.1451
 59.4616  6190.45  79.0927
 59.5036  6007.64  77.9483
 59.5456  6267.51  79.3071
 59.5876  6248.75  79.3827
 59.6296  6132.85  78.7128
 59.6716  6116.85  78.6684
 59.7136  6123.62  78.7001
 59.7556  6128.88  78.8713
 59.7976  5941.53  77.4008
 59.8396  6360.07  79.9721
 59.8816  6187.22  79.4298
 59.9236  6127.61  78.6874
 59.9656  6179.78  79.2838
 60.0076  6143.03  78.4012
 60.0496  6156.97  78.9989
 60.0916  6195.4  78.6557
 60.1336  6171.27  79.6215
 60.1756  5928.47  79.2126
 60.1996  0.0000000E+00  0.0000000E+00