File: docs/examples/opeando_xrd/IS17_D/Data/IS17_D/17_Db_f00001.xye
# /beamlines/bl04/projects/cycle2025-II/20250340211-lsimonelli/DATA/IS17_D/17_Db_f00001.xye : mythproc.py merge -s 0.006 -l 0.5 -f /beamlines/bl04/inhouse/ff/FlatField/ff_20Nov2024rod8mm60s_17keV.raw -b True -c true -o xye /beamlines/bl04/projects/cycle2025-II/20250340211-lsimonelli/DATA/IS17_D/17_Db_00001.dat
# IsMon = [6777262, 6772277, 6776623]  IsPos = [-1.5000, -2.4886, -3.4988]
# Wave = 0.4962  CalPath /beamlines/bl04/projects/cycle2025-II/20250340211-lsimonelli/DATA/Align/Si_Pos1_25keV_f00001.cal
# Date = 2025-09-23_17:59:27 Dt = 4.8000  Bin = 0.0060  <imon> = 6775387 +/- 2215 (Min/Max) 6772277 / 6777262
# icurr 252.6930  mocoIn 1.7246E-05  mocoOut 0.8089  i15 7.08453e+06  imon 6.77539e+06  i7 5.3333  iEMpd_timer 4.8000  iEMpd_1 3.7160E-08  iEMpd_2 7.8220E-08  iEMpd_3 1.7030E-08  iEMpd_4 4.9325E-08  iEMhp_timer 4.8000  iEMhp_1 4.9384E-06  iEMhp_2 -2.5677E-08  iEMhp_3 -2.3976E-08  iEMhp_4 -2.1778E-08
#      9776
 1.5856  44520.9  216.633
 1.6276  51720.2  229.486
 1.6696  57493  241.101
 1.7116  65482.7  257.812
 1.7536  73323.5  271.649
 1.7956  77479.7  279.939
 1.8376  73858.6  273.753
 1.8796  63723.5  252.41
 1.9216  52561.8  230.151
 1.9636  45641.7  214.128
 2.0056  41221.1  202.194
 2.0476  38465.4  197.46
 2.0896  37299.4  193.304
 2.1316  35920  188.784
 2.1736  34357.3  186.096
 2.2156  35123.1  186.649
 2.2576  33826.1  183.827
 2.2996  32302  180.297
 2.3416  32799.6  180.23
 2.3836  32118.2  178.458
 2.4256  31054.7  176.051
 2.4676  30187.9  173.33
 2.5096  30388.9  173.963
 2.5516  29107.4  174.185
 2.5936  29120.2  170.741
 2.6356  28529.5  169.711
 2.6776  28428.7  168.293
 2.7196  27830  167.006
 2.7616  27572.1  166.019
 2.8036  27226.1  165.136
 2.8456  27223.1  165.78
 2.8876  27007.9  164.952
 2.9296  26359.4  163.108
 2.9716  26003  161.5
 3.0136  25796.8  160.921
 3.0556  25884.6  161.595
 3.0976  25778.3  160.139
 3.1396  25311  159.421
 3.1816  25217.4  159.069
 3.2236  25130.8  158.787
 3.2656  24846.3  156.939
 3.3076  24608.7  157.659
 3.3496  25004.6  158.079
 3.3916  25189.5  158.224
 3.4336  25741.5  160.555
 3.4756  26059.1  161.468
 3.5176  26770.5  163.429
 3.5596  26241.4  164.838
 3.6016  26539.6  162.794
 3.6436  25671.8  161.231
 3.6856  25367.5  158.552
 3.7276  24230.2  156.051
 3.7696  24298.6  156.238
 3.8116  23780.2  154.666
 3.8536  23933.3  155.084
 3.8956  23839.6  154.608
 3.9376  23578.8  154.03
 3.9796  23394.4  152.914
 4.0216  23441  152.106
 4.0636  23435.5  153.556
 4.1056  23435.2  153.222
 4.1476  23819.8  154.767
 4.1896  23764.8  154.453
 4.2316  24037.2  155.155
 4.2736  24521.6  156.518
 4.3156  24465.4  156.565
 4.3576  25301.6  159.126
 4.3996  25689.1  160.633
 4.4416  26245.1  161.927
 4.4836  26377.2  162.504
 4.5256  27185.4  165.569
 4.5676  27003.2  165.28
 4.6096  27450.9  165.658
 4.6516  27699.5  165.734
 4.6936  27838.2  166.978
 4.7356  28145.8  167.72
 4.7776  27993.9  167.101
 4.8196  27866.4  167.365
 4.8616  27233.1  165.078
 4.9036  27145.9  164.404
 4.9456  26931.3  164.423
 4.9876  26050.1  161.604
 5.0296  26498.5  162.833
 5.0716  26146.6  162.356
 5.1136  26296.6  162.685
 5.1556  26604.3  163.093
 5.1976  27102.7  164.599
 5.2396  27231.4  164.686
 5.2816  27192.9  165.034
 5.3236  27131.8  164.547
 5.3656  26800.3  164.474
 5.4076  26561.2  163.877
 5.4496  26495.7  163.183
 5.4916  26584.7  163.201
 5.5336  26526.6  163.114
 5.5756  26366.3  162.542
 5.6176  26506.1  162.435
 5.6596  26758.8  164.024
 5.7016  26774.2  163.496
 5.7436  26999  164.237
 5.7856  26820.2  163.979
 5.8276  27092.8  164.53
 5.8696  27497.3  165.802
 5.9116  27168.8  165.522
 5.9536  27638.2  166.685
 5.9956  27705  166.286
 6.0376  27680.1  166.827
 6.0796  28097.9  167.903
 6.1216  27838.7  167.338
 6.1636  28321.5  167.836
 6.2056  28093.8  167.841
 6.2476  28722.8  169.376
 6.2896  28703.8  169.193
 6.3316  28648.7  169.199
 6.3736  28542.1  168.784
 6.4156  28786.4  169.452
 6.4576  28725.2  168.835
 6.4996  28808.6  169.563
 6.5416  28955.6  170.117
 6.5836  28719.4  169.609
 6.6256  29250.9  170.776
 6.6676  29699  171.645
 6.7096  29835.4  172.89
 6.7516  30049.5  173.18
 6.7936  30129.4  172.95
 6.8356  30272.7  173.32
 6.8776  30565.4  174.966
 6.9196  30415.8  174.93
 6.9616  31088.5  176.255
 7.0036  31381.3  176.776
 7.0456  31545.2  176.533
 7.0876  31766.1  178.749
 7.1296  31278.7  176.602
 7.1716  31276.2  176.522
 7.2136  31004.1  175.155
 7.2556  31340.6  176.264
 7.2976  31320.1  176.693
 7.3396  31162.6  176.717
 7.3816  31347.7  177.214
 7.4236  31609.4  177.241
 7.4656  31685.1  176.926
 7.5076  31967.3  177.851
 7.5496  31381.8  176.746
 7.5916  31772  177.892
 7.6336  32198.6  178.965
 7.6756  32121.7  178.605
 7.7176  32736.5  180.633
 7.7596  32759.2  181.913
 7.8016  33069.9  184.986
 7.8436  32689.6  180.632
 7.8856  32811.8  180.591
 7.9276  33314.2  182.348
 7.9696  33649.8  183.579
 8.0116  34729.3  185.082
 8.0536  34944  185.876
 8.0956  34592.5  186.11
 8.1376  35091.1  186.919
 8.1796  35419.4  188.332
 8.2216  36036  188.709
 8.2636  36138.2  189.225
 8.3056  36015.8  189.654
 8.3476  36750.7  190.92
 8.3896  36542.5  190.461
 8.4316  36708.6  191.057
 8.4736  36553.3  190.13
 8.5156  36208.8  189.503
 8.5576  36065.5  190.091
 8.5996  35693.3  187.998
 8.6416  35996.6  190.044
 8.6836  35340.3  188.124
 8.7256  35980.4  189.093
 8.7676  35820.2  191.72
 8.8096  36425  190.629
 8.8516  36533.6  190.535
 8.8936  35816.2  188.563
 8.9356  35823.2  188.906
 8.9776  35688.5  188.629
 9.0196  36071.3  189.314
 9.0616  35519.1  187.368
 9.1036  35352.8  188.086
 9.1456  34796.7  185.939
 9.1876  35264.3  187.131
 9.2296  34927.1  185.684
 9.2716  34565.8  184.753
 9.3136  34616.4  184.89
 9.3556  34979.9  185.835
 9.3976  33950.1  183.581
 9.4396  34105.4  183.913
 9.4816  34159.5  183.902
 9.5236  33588.7  182.27
 9.5656  33290.8  181.814
 9.6076  32573.5  180.362
 9.6496  32735.3  180.679
 9.6916  32562  180.175
 9.7336  32923.6  180.952
 9.7756  32587.9  181.264
 9.8176  32193.8  179.71
 9.8596  32053.2  177.794
 9.9016  31846.1  177.208
 9.9436  31366.1  175.633
 9.9856  31188.6  175.557
 10.0276  30953.6  175.956
 10.0696  31178.2  175.637
 10.1116  30202.1  173.128
 10.1536  30270.6  172.98
 10.1956  29768.5  171.657
 10.2376  29632.3  170.76
 10.2796  29628.5  170.871
 10.3216  29082.9  169.434
 10.3636  28904.7  169.081
 10.4056  28125.4  167.193
 10.4476  28626.9  168.273
 10.4896  28499.8  167.356
 10.5316  28203.5  166.861
 10.5736  27980.8  166.951
 10.6156  27631.7  165.656
 10.6576  27558.8  164.032
 10.6996  27257.7  163.972
 10.7416  26935.6  163.068
 10.7836  26633.9  162.81
 10.8256  26189.1  161.851
 10.8676  26333.8  162.159
 10.9096  26154.7  161.321
 10.9516  25829.2  159.296
 10.9936  25812.1  159.436
 11.0356  25598  159.369
 11.0776  25531.7  158.516
 11.1196  25027  157.687
 11.1616  24987.4  157.252
 11.2036  24996.7  157.121
 11.2456  24819.5  157.708
 11.2876  25162.9  158.066
 11.3296  24407.4  155.592
 11.3716  24609.3  155.972
 11.4136  24673.7  156.993
 11.4556  24592.1  156.406
 11.4976  25321.4  157.724
 11.5396  25089.5  157.174
 11.5816  25921  160.167
 11.6236  26285.1  161.758
 11.6656  26345  160.86
 11.7076  25385.2  158.735
 11.7496  24657.6  160.41
 11.7916  24629.7  155.63
 11.8336  24018.5  154.589
 11.8756  23912.3  153.772
 11.9176  24050.5  153.902
 11.9596  23877.7  153.504
 12.0016  23757.2  153.881
 12.0436  23890.3  153.764
 12.0856  23347.5  152.502
 12.1276  23522.6  153.024
 12.1696  23602.5  152.405
 12.2116  23456.6  151.942
 12.2536  23513.3  152.894
 12.2956  23157.3  151.127
 12.3376  23425.5  152.194
 12.3796  23398.6  152.588
 12.4216  23519.5  152.18
 12.4636  23060.7  151.613
 12.5056  23275.4  151.484
 12.5476  23273.7  151.105
 12.5896  23012.5  150.895
 12.6316  23243.6  151.79
 12.6736  23035.3  151.595
 12.7156  23383.2  152.562
 12.7576  23324.2  152.631
 12.7996  23363.8  151.415
 12.8416  23078.7  151.532
 12.8836  23204.9  151.782
 12.9256  23707.9  152.46
 12.9676  23604.3  152.525
 13.0096  23818.3  154.304
 13.0516  23730.2  153.072
 13.0936  23661.9  152.972
 13.1356  24114.2  153.69
 13.1776  23689.7  153.164
 13.2196  23954.1  153.825
 13.2616  23894.8  153.956
 13.3036  24177.1  154.98
 13.3456  23696.8  153.406
 13.3876  24157.8  154.375
 13.4296  23862.5  153.598
 13.4716  24085.4  153.95
 13.5136  23966  153.698
 13.5556  23902.6  154.117
 13.5976  24032.3  154.702
 13.6396  24067.5  154.179
 13.6816  23969.2  154.194
 13.7236  24337.2  155.106
 13.7656  26153.6  161.195
 13.8076  26811.5  161.872
 13.8496  25539.2  158.855
 13.8916  24220.3  155.641
 13.9336  23507.7  152.625
 13.9756  23421  151.726
 14.0176  23287.4  152.007
 14.0596  23265.6  151.824
 14.1016  23258.6  152.222
 14.1436  23350.1  151.655
 14.1856  22878.2  150.411
 14.2276  22561.7  149.835
 14.2696  22676.1  150.071
 14.3116  22095.7  148.051
 14.3536  21917.6  147.614
 14.3956  22035.2  147.705
 14.4376  22192.5  148.045
 14.4796  21906.7  147.092
 14.5216  21678.4  147.101
 14.5636  21440.5  145.871
 14.6056  21625.8  145.939
 14.6476  21453.2  144.732
 14.6896  21232.6  144.53
 14.7316  20668.4  143.614
 14.7736  20778.1  143.173
 14.8156  20494.3  142.182
 14.8576  20302.2  141.378
 14.8996  20023.5  141.568
 14.9416  19609.3  140.115
 14.9836  19635.4  140.195
 15.0256  19090  137.185
 15.0676  19080.1  137.455
 15.1096  19133.4  137.39
 15.1516  18791.6  136.709
 15.1936  18806.1  136.195
 15.2356  18441.5  135.139
 15.2776  18416.6  134.646
 15.3196  18026.6  134.181
 15.3616  17987.1  133.791
 15.4036  17942.2  133.493
 15.4456  18172.9  134.006
 15.4876  17687.6  131.898
 15.5296  17635.7  131.992
 15.5716  17427.4  130.813
 15.6136  17458  131.255
 15.6556  17391.4  130.258
 15.6976  17298  129.982
 15.7396  16965.2  129.307
 15.7816  17153.5  129.543
 15.8236  16810.3  128.912
 15.8656  16917.5  129.133
 15.9076  16664.2  127.99
 15.9496  17529.3  134.039
 15.9916  17150.7  133.49
 16.0336  17217.6  130.137
 16.0756  17149.1  130.205
 16.1176  16699.9  128.406
 16.1596  16417.1  128.622
 16.2016  16504.5  127.747
 16.2436  16436.4  127.851
 16.2856  16346.4  127.034
 16.3276  16101.8  126.504
 16.3696  16453.1  127.702
 16.4116  16267.8  127.421
 16.4536  16417  127.816
 16.4956  16169.1  126.582
 16.5376  16086  126.441
 16.5796  16074.5  125.766
 16.6216  16061.6  125.975
 16.6636  15789.3  125.1
 16.7056  15952.1  125.599
 16.7476  15990.8  125.286
 16.7896  16017.6  126.128
 16.8316  15823.6  125.351
 16.8736  16177  126.989
 16.9156  15868.9  126.098
 16.9576  15633  125.956
 16.9996  15551.3  126.073
 17.0416  16005.3  126.505
 17.0836  15872.8  125.554
 17.1256  15661.2  124.72
 17.1676  15749.5  125.026
 17.2096  15733.8  124.865
 17.2516  15661.7  124.665
 17.2936  15654.3  124.691
 17.3356  15513.1  124.021
 17.3776  15248.6  123.235
 17.4196  15176.3  122.655
 17.4616  15164.3  122.51
 17.5036  14924.3  121.898
 17.5456  14981.1  122.746
 17.5876  14679.6  120.576
 17.6296  14911.1  121.333
 17.6716  14608.9  120.685
 17.7136  14597.7  120.761
 17.7556  14315.2  119.88
 17.7976  14214.9  119.073
 17.8396  14193.5  118.627
 17.8816  14149.5  119
 17.9236  14151.2  118.799
 17.9656  14158.4  119.491
 18.0076  14104.1  118.694
 18.0496  14080.1  117.749
 18.0916  13986.6  117.894
 18.1336  13898  117.615
 18.1756  13969.1  117.413
 18.2176  13809  117.016
 18.2596  13706  116.326
 18.3016  13955.5  117.63
 18.3436  13829  117.326
 18.3856  13797.8  117.088
 18.4276  13699.4  116.368
 18.4696  13528.8  115.72
 18.5116  13739.5  116.888
 18.5536  13619.5  116.719
 18.5956  13512.4  115.844
 18.6376  13484.3  116.118
 18.6796  13640.1  116.12
 18.7216  13567.8  116.357
 18.7636  13518.5  116.072
 18.8056  13523.4  116.023
 18.8476  13325.7  115.775
 18.8896  13487.8  115.835
 18.9316  13519.8  115.796
 18.9736  13373.7  115.031
 19.0156  13286.7  115.07
 19.0576  13395.6  114.399
 19.0996  13449.2  115.336
 19.1416  13518.8  116.021
 19.1836  13378.9  115.037
 19.2256  13279.6  114.822
 19.2676  13425.2  115.526
 19.3096  13253.7  115.041
 19.3516  13403.8  115.453
 19.3936  13161.8  114.498
 19.4356  13594.6  116.24
 19.4776  13293.1  115.037
 19.5196  13432.6  115.494
 19.5616  13274.6  115.063
 19.6036  13160.7  114.153
 19.6456  13249.6  114.581
 19.6876  13291.3  114.406
 19.7296  13580.7  116.095
 19.7716  13278.1  114.827
 19.8136  13521  116.2
 19.8556  13290.9  114.712
 19.8976  13591  116.054
 19.9396  13597.5  115.674
 19.9816  13564.8  115.791
 20.0236  13795.7  116.961
 20.0656  13752.3  116.773
 20.1076  14123.3  118.808
 20.1496  14182.1  119.054
 20.1916  14538.8  120.013
 20.2336  14330.2  119.104
 20.2756  14025.4  118.276
 20.3176  13719.7  116.731
 20.3596  13457.7  115.599
 20.4016  13598.3  115.994
 20.4436  13338.5  115.446
 20.4856  13347.2  115.267
 20.5276  13108.6  114.694
 20.5696  13022.7  113.875
 20.6116  13038.9  114.122
 20.6536  12879.9  112.996
 20.6956  12832.6  112.862
 20.7376  12783.5  112.852
 20.7796  12976.7  113.397
 20.8216  13012.6  113.27
 20.8636  12771.8  112.582
 20.9056  12742.1  112.395
 20.9476  12779.2  112.4
 20.9896  12821.6  112.458
 21.0316  12744.6  112.026
 21.0736  12572.5  111.771
 21.1156  12527.4  111.728
 21.1576  12684.3  112.462
 21.1996  12567.7  111.931
 21.2416  12707.9  112.365
 21.2836  12601.5  111.889
 21.3256  12678.4  112.294
 21.3676  12543.2  111.249
 21.4096  12329.4  110.663
 21.4516  12410.9  110.837
 21.4936  12349.9  110.623
 21.5356  12559.4  111.711
 21.5776  12493.1  111.256
 21.6196  12370.4  110.744
 21.6616  12418.1  111.044
 21.7036  12420.4  110.821
 21.7456  12507.7  111.289
 21.7876  12323.1  110.236
 21.8296  12329.3  110.104
 21.8716  12429.6  110.776
 21.9136  12438.7  111.026
 21.9556  12267.1  109.931
 21.9976  12199.7  109.665
 22.0396  12162.8  109.745
 22.0816  12205.8  110.455
 22.1236  12440.3  110.982
 22.1656  12234.2  110.251
 22.2076  12120  109.158
 22.2496  11892.6  108.162
 22.2916  11949.1  108.299
 22.3336  12019  109.304
 22.3756  11994.3  108.937
 22.4176  11858.4  108.174
 22.4596  11747.6  108.235
 22.5016  11982.2  108.831
 22.5436  12220.3  109.778
 22.5856  12394.7  110.807
 22.6276  12627  111.971
 22.6696  12030.5  109.65
 22.7116  12102.7  109.5
 22.7536  12135.6  109.621
 22.7956  12232.5  109.198
 22.8376  11845.7  108.157
 22.8796  12034.1  108.82
 22.9216  11988.5  109.143
 22.9636  12101.2  108.831
 23.0056  11971.4  108.37
 23.0476  11908.5  108.648
 23.0896  12144.4  109.107
 23.1316  12055.5  109.134
 23.1736  12236.6  112.85
 23.2156  12228.5  110.215
 23.2576  12613.4  112.067
 23.2996  12362.9  110.731
 23.3416  12468  111.723
 23.3836  12399.6  110.655
 23.4256  12746.9  112.312
 23.4676  12326  110.141
 23.5096  12267.5  110.532
 23.5516  12314.6  110.042
 23.5936  12331  111.023
 23.6356  12455.6  111.246
 23.6776  12199.3  110.306
 23.7196  12398.1  110.992
 23.7616  12319.6  110.346
 23.8036  12557.3  111.457
 23.8456  12081.6  108.892
 23.8876  12188  109.715
 23.9296  12029.1  109.48
 23.9716  12095.1  108.995
 24.0136  12249.1  110.587
 24.0556  12056  109.423
 24.0976  11837  108.252
 24.1396  11801.3  110.684
 24.1816  11929.8  110.046
 24.2236  12036.6  109.83
 24.2656  11847.6  108.447
 24.3076  11727.4  108.164
 24.3496  11839.4  108.53
 24.3916  11900.6  108.893
 24.4336  11761.5  108.444
 24.4756  11811.9  108.572
 24.5176  11565.2  107.067
 24.5596  11624.2  107.65
 24.6016  11620.5  107.74
 24.6436  11535.3  106.798
 24.6856  11605.4  106.923
 24.7276  11374.8  106.181
 24.7696  11439.3  106.576
 24.8116  11315  106.184
 24.8536  11207.3  105.677
 24.8956  11299.5  105.844
 24.9376  11268.7  105.863
 24.9796  11075.3  105.062
 25.0216  11144.4  105.511
 25.0636  11091.8  104.925
 25.1056  10885  104.368
 25.1476  11081.5  107.163
 25.1896  10970.9  105.182
 25.2316  10921  104.224
 25.2736  10966.3  104.096
 25.3156  10897.2  103.828
 25.3576  10833.2  103.959
 25.3996  10904.1  104.283
 25.4416  10866.4  104.082
 25.4836  10645  103.442
 25.5256  10635.2  102.854
 25.5676  10792.4  103.343
 25.6096  10692.2  103.429
 25.6516  10601.7  102.535
 25.6936  10802.7  103.777
 25.7356  10622.7  103.043
 25.7776  10677.3  102.987
 25.8196  10574.8  102.658
 25.8616  10560.6  102.463
 25.9036  10670.5  102.515
 25.9456  10553.8  102.548
 25.9876  10657.2  102.953
 26.0296  10702.1  102.933
 26.0716  10581.3  102.675
 26.1136  10647.8  102.939
 26.1556  10625.2  102.217
 26.1976  10516.4  102.603
 26.2396  10523.3  102.06
 26.2816  10525.6  102.419
 26.3236  10601.6  102.944
 26.3656  10707.8  103.178
 26.4076  10463  102.193
 26.4496  10792.5  103.38
 26.4916  10766.5  103.158
 26.5336  11173.8  105.437
 26.5756  11296.5  105.897
 26.6176  10685.9  103.012
 26.6596  10620.3  102.997
 26.7016  10464.4  102.014
 26.7436  10611.9  102.845
 26.7856  10222.4  100.934
 26.8276  10311.7  101.346
 26.8696  10431  101.791
 26.9116  10313.9  101.164
 26.9536  10183.6  100.571
 26.9956  10203  100.703
 27.0376  10300.2  101.389
 27.0796  10239.5  100.904
 27.1216  10242.5  100.886
 27.1636  10189.7  100.805
 27.2056  10027.1  99.8905
 27.2476  10058.6  100.038
 27.2896  10047.3  100.106
 27.3316  10194.1  100.546
 27.3736  9949.65  99.6042
 27.4156  10109.7  100.229
 27.4576  9944.13  99.6396
 27.4996  10078.1  99.9066
 27.5416  10057.3  100.105
 27.5836  10047.5  99.8989
 27.6256  10023  99.9501
 27.6676  9820.65  98.9392
 27.7096  9918.37  99.3041
 27.7516  9932.21  99.4687
 27.7936  10207.6  101.041
 27.8356  9993.3  99.5876
 27.8776  10120.9  100.278
 27.9196  9918.41  99.1344
 27.9616  9878.03  99.0372
 28.0036  9782.04  98.5887
 28.0456  9701.58  98.3398
 28.0876  9748.04  98.6579
 28.1296  9633.56  97.9176
 28.1716  9848.09  99.018
 28.2136  9786.13  98.6728
 28.2556  9754.76  98.6231
 28.2976  9634.63  98.0148
 28.3396  9657.75  97.9362
 28.3816  9604.86  97.6329
 28.4236  9605.67  97.7827
 28.4656  9534.62  97.4663
 28.5076  9578.93  97.3323
 28.5496  9601.9  97.7002
 28.5916  9624.58  97.6408
 28.6336  9593.71  97.811
 28.6756  9637.63  97.2492
 28.7176  9595.83  97.5834
 28.7596  9465.91  96.822
 28.8016  9445.08  96.751
 28.8436  9414.35  96.8252
 28.8856  9542.63  97.3384
 28.9276  9529.01  97.5085
 28.9696  9533.32  97.1935
 29.0116  9434.05  96.862
 29.0536  9293.24  96.3423
 29.0956  9395.8  96.5833
 29.1376  9451.64  96.8361
 29.1796  9442.04  96.843
 29.2216  9353.56  96.2296
 29.2636  9500.54  96.9721
 29.3056  9454.75  96.6098
 29.3476  9382.99  96.7612
 29.3896  9344.88  96.6713
 29.4316  9257.45  95.5747
 29.4736  9210.06  95.3829
 29.5156  9307.99  95.8201
 29.5576  9251.35  96.2571
 29.5996  9281.01  95.6787
 29.6416  9062.24  94.6661
 29.6836  9195.51  95.2836
 29.7256  9109.61  95.3874
 29.7676  9044.76  94.7141
 29.8096  9136.25  95.1391
 29.8516  8885.52  94.1439
 29.8936  9005.58  94.8697
 29.9356  9121.49  95.2404
 29.9776  9003.35  94.7693
 30.0196  9158.23  94.9858
 30.0616  9062.5  94.8474
 30.1036  9065.21  94.6946
 30.1456  8981.5  94.469
 30.1876  9064.13  95.0706
 30.2296  8935.72  94.1652
 30.2716  9097.38  94.6592
 30.3136  9101.02  95.5224
 30.3556  9172.94  95.8848
 30.3976  9158.17  97.2953
 30.4396  9513.29  96.5087
 30.4816  9275.04  94.8986
 30.5236  9226.06  94.6372
 30.5656  9370.34  96.0378
 30.6076  9139.29  94.6157
 30.6496  9361  95.8107
 30.6916  9029.39  94.1891
 30.7336  9232.37  95.3753
 30.7756  9199.94  95.3105
 30.8176  9250.53  95.4769
 30.8596  9292.04  95.4545
 30.9016  9358.38  95.6781
 30.9436  9297.25  95.5856
 30.9856  9394.05  96.1998
 31.0276  9185.26  94.7624
 31.0696  9151.31  95.1428
 31.1116  9201.56  95.3737
 31.1536  9121.09  94.8283
 31.1956  9246.42  95.573
 31.2376  9044.66  94.5514
 31.2796  8989.67  93.7969
 31.3216  9180.95  94.6988
 31.3636  9027.04  94.6243
 31.4056  9067.57  96.1104
 31.4476  9172.48  94.6079
 31.4896  9089.02  94.674
 31.5316  9106.14  94.2165
 31.5736  9221.37  94.602
 31.6156  9114.35  94.0585
 31.6576  9228.88  94.7294
 31.6996  9313.48  94.8131
 31.7416  9091.03  94.6129
 31.7836  9050.03  93.5658
 31.8256  8982.57  93.5581
 31.8676  9168.16  94.4323
 31.9096  8882.79  93.1696
 31.9516  8856.94  93.3413
 31.9936  9022.27  94.155
 32.0356  8910.26  93.4885
 32.0776  8982.97  93.7686
 32.1196  9134.79  94.5702
 32.1616  9042.62  93.6339
 32.2036  8885.46  93.3182
 32.2456  8956.35  94.0689
 32.2876  8840.98  92.8116
 32.3296  8987.46  93.7015
 32.3716  8813.23  92.9034
 32.4136  8772.64  92.8718
 32.4556  8858.5  92.7828
 32.4976  8873.54  92.752
 32.5396  8777.67  92.2795
 32.5816  8789.58  92.4636
 32.6236  8780.87  92.4811
 32.6656  8747.54  92.8507
 32.7076  8581.01  91.6202
 32.7496  8732.43  92.1048
 32.7916  8768.24  92.2498
 32.8336  8694.77  92.069
 32.8756  8802.34  92.234
 32.9176  8576.62  91.5331
 32.9596  8663.59  92.0608
 33.0016  8624.92  91.6304
 33.0436  8701.59  92.2176
 33.0856  8712.9  92.3678
 33.1276  8499.85  90.975
 33.1696  8690.29  91.8018
 33.2116  8738.32  92.0993
 33.2536  8728.17  92.2291
 33.2956  8720.28  92.284
 33.3376  8539.22  91.1454
 33.3796  8706.75  92.1624
 33.4216  8593.23  91.1929
 33.4636  8675.56  91.7463
 33.5056  8470.44  90.8997
 33.5476  8611.96  91.6234
 33.5896  8741.16  92.0877
 33.6316  8654.79  91.9506
 33.6736  8505.35  91.4082
 33.7156  8533.66  91.5905
 33.7576  8621.8  91.7045
 33.7996  8559.13  91.1411
 33.8416  8479.48  90.8924
 33.8836  8486.85  90.7141
 33.9256  8613.26  91.4425
 33.9676  8592.05  91.2314
 34.0096  8480.98  90.9333
 34.0516  8422.4  90.2772
 34.0936  8437.78  90.625
 34.1356  8512.42  90.7644
 34.1776  8374.57  90.0264
 34.2196  8376.48  90.2203
 34.2616  8413.65  90.6075
 34.3036  8465.9  91.0734
 34.3456  8445.15  90.7095
 34.3876  8512.71  91.1445
 34.4296  8332.99  89.7837
 34.4716  8441.07  90.6669
 34.5136  8423.07  90.6069
 34.5556  8282.18  90.1026
 34.5976  8551.79  91.3927
 34.6396  8305.48  89.7614
 34.6816  8437.69  90.5725
 34.7236  8405.17  90.1857
 34.7656  8384.62  90.2819
 34.8076  8355.73  90.4498
 34.8496  8300.1  90.0022
 34.8916  8299.19  89.8581
 34.9336  8255.02  89.6052
 34.9756  8512.34  90.9282
 35.0176  8384.44  90.7436
 35.0596  8457.66  90.9612
 35.1016  8547.93  91.2007
 35.1436  8543.18  90.8639
 35.1856  8338.33  89.8906
 35.2276  8302.12  89.8651
 35.2696  8363.73  90.387
 35.3116  8251.56  89.907
 35.3536  8456.89  90.7286
 35.3956  8251.51  89.3096
 35.4376  8349.61  90.3868
 35.4796  8368.94  90.541
 35.5216  8263.87  89.9272
 35.5636  8078.14  89.6511
 35.6056  8228.09  89.5128
 35.6476  8284.74  89.7209
 35.6896  8441.66  90.7352
 35.7316  8222.8  89.448
 35.7736  8235.41  89.7039
 35.8156  8265.38  89.8602
 35.8576  8299.86  90.3062
 35.8996  8235.58  89.9644
 35.9416  8229.59  89.3836
 35.9836  8093.01  89.0995
 36.0256  8354.19  90.4318
 36.0676  8457.21  90.5001
 36.1096  8231.82  89.6574
 36.1516  8270.88  89.7738
 36.1936  8324.22  89.8943
 36.2356  8270.15  90.2587
 36.2776  8065.31  88.7513
 36.3196  8198.64  89.0122
 36.3616  8194.15  89.1108
 36.4036  8083.24  88.5887
 36.4456  8269.83  89.7789
 36.4876  8116.6  88.9144
 36.5296  8152.02  89.1526
 36.5716  8149.15  89.9011
 36.6136  8124.97  88.5757
 36.6556  7991.68  88.0304
 36.6976  7823.65  87.5927
 36.7396  7975.15  88.1763
 36.7816  7963.79  88.4794
 36.8236  7893.18  88.0113
 36.8656  7766.46  87.3674
 36.9076  7778.72  87.4459
 36.9496  7822.7  87.5496
 36.9916  7791.42  87.0182
 37.0336  7913.06  88.0021
 37.0756  7964.66  88.0877
 37.1176  7733.85  87.0511
 37.1596  7859.25  87.7704
 37.2016  7800.58  87.6168
 37.2436  7882.63  87.4487
 37.2856  7722.95  86.8175
 37.3276  7894.92  87.1381
 37.3696  7837.31  87.6898
 37.4116  7735.61  87.0196
 37.4536  7782.28  87.1552
 37.4956  7777.16  87.1668
 37.5376  8076.88  90.4093
 37.5796  7968.01  89.7258
 37.6216  7882.21  87.5231
 37.6636  7958.23  87.8322
 37.7056  7904.95  87.7321
 37.7476  8041.93  88.0244
 37.7896  7869.35  87.5825
 37.8316  7720.53  86.8908
 37.8736  7894.78  87.4092
 37.9156  7853.82  87.1758
 37.9576  7956.11  87.6536
 37.9996  7780.08  86.3966
 38.0416  7749.82  87.0162
 38.0836  7957.77  88.0781
 38.1256  7820.54  87.2944
 38.1676  7723.36  86.8658
 38.2096  7831.63  87.0879
 38.2516  7860.43  87.4678
 38.2936  7853.97  87.2308
 38.3356  7869.67  87.2501
 38.3776  7676.94  86.4286
 38.4196  7873.4  87.3811
 38.4616  7950.33  88.047
 38.5036  8044.19  88.4099
 38.5456  7662.17  87.1084
 38.5876  7769.61  87.7381
 38.6296  7768.95  86.7286
 38.6716  7848.65  86.9735
 38.7136  7722.91  86.2141
 38.7556  7790.65  87.094
 38.7976  7929.59  87.7919
 38.8396  7811.45  87.5918
 38.8816  7728.28  86.9244
 38.9236  7672.56  86.4155
 38.9656  7802.85  87.056
 39.0076  7759.37  86.2286
 39.0496  7853.52  87.2857
 39.0916  7958.56  87.5207
 39.1336  7744.31  86.7381
 39.1756  7800.36  87.1074
 39.2176  7621.67  86.6425
 39.2596  7739.07  87.2239
 39.3016  7752.31  86.89
 39.3436  7616.64  86.5306
 39.3856  7831.69  87.1839
 39.4276  7832.85  87.6955
 39.4696  7796.33  87.1141
 39.5116  7805.89  87.6779
 39.5536  7841.02  88.288
 39.5956  7759.87  86.9575
 39.6376  7759.35  86.9478
 39.6796  7766.44  86.7383
 39.7216  7747.53  86.7267
 39.7636  7753.21  87.3187
 39.8056  7792.55  87.3246
 39.8476  7617.23  86.5873
 39.8896  7805.07  87.2779
 39.9316  7697.7  86.9229
 39.9736  7756.68  86.8397
 40.0156  7747.83  86.6219
 40.0576  7726.89  86.856
 40.0996  7823.38  86.5787
 40.1416  7668.86  86.5034
 40.1836  7733.75  86.755
 40.2256  7683.63  86.5149
 40.2676  7625.94  86.364
 40.3096  7778.76  87.0887
 40.3516  7792.12  87.2742
 40.3936  7877.63  87.303
 40.4356  7718.37  86.6229
 40.4776  7775.13  87.1571
 40.5196  7811.16  87.6692
 40.5616  7930.24  87.9661
 40.6036  7739.62  87.1637
 40.6456  7764.75  86.9041
 40.6876  7838.53  87.3078
 40.7296  7735.16  86.8758
 40.7716  7876.32  87.7738
 40.8136  7678.5  86.6256
 40.8556  7908.16  88.0318
 40.8976  7811.78  87.4184
 40.9396  7744.65  87.3794
 40.9816  7815.34  87.083
 41.0236  7785.6  86.7018
 41.0656  7821.65  87.4307
 41.1076  7857.42  87.4139
 41.1496  7896.86  87.5304
 41.1916  7802.99  87.3299
 41.2336  7696.6  86.7272
 41.2756  7856.82  87.236
 41.3176  7856.46  87.8362
 41.3596  7819  87.3661
 41.4016  7792.09  87.4745
 41.4436  7749.73  87.0249
 41.4856  7762.61  87.2627
 41.5276  7752.19  87.2179
 41.5696  7811.3  87.1643
 41.6116  7732.72  87.1188
 41.6536  7710.51  86.8499
 41.6956  7826.31  87.4976
 41.7376  7594.96  86.2846
 41.7796  7672.17  86.6681
 41.8216  7811.34  87.6313
 41.8636  7693.11  86.9095
 41.9056  7577.38  86.0386
 41.9476  7769.06  87.3561
 41.9896  7851.5  87.4834
 42.0316  7791.91  87.2428
 42.0736  7774.2  87.2812
 42.1156  7636.05  86.3093
 42.1576  7745.07  87.0295
 42.1996  7834.22  87.6472
 42.2416  7806.54  87.0836
 42.2836  7757.4  86.9324
 42.3256  7717.29  86.8095
 42.3676  7853.78  87.3763
 42.4096  7797.08  87.0334
 42.4516  7810  87.1747
 42.4936  7767.81  87.0208
 42.5356  7651.87  86.511
 42.5776  7715.27  86.8025
 42.6196  7813.67  87.417
 42.6616  7637.22  86.5886
 42.7036  7636.32  85.9736
 42.7456  7842.69  87.4776
 42.7876  7652.01  86.4881
 42.8296  7743.04  86.855
 42.8716  7641.36  86.4458
 42.9136  7577  85.8398
 42.9556  7809.9  87.3195
 42.9976  7696.97  86.6597
 43.0396  7636.17  86.0336
 43.0816  7665.63  86.5781
 43.1236  7541.12  85.9305
 43.1656  7685.68  86.564
 43.2076  7639.65  86.4198
 43.2496  7522.59  85.584
 43.2916  7537.13  86.0202
 43.3336  7601.46  86.2203
 43.3756  7734.02  86.728
 43.4176  7480.21  85.37
 43.4596  7531.47  85.5149
 43.5016  7605.28  86.3337
 43.5436  7597.01  86.1993
 43.5856  7638.53  86.4638
 43.6276  7535.42  85.7737
 43.6696  7597.59  86.2626
 43.7116  7618.68  85.9996
 43.7536  7772.76  87.3611
 43.7956  7456  86.7659
 43.8376  7464.51  85.1824
 43.8796  7489.86  85.5783
 43.9216  7330.02  84.576
 43.9636  7402.81  85.0999
 44.0056  7563.16  86.2557
 44.0476  7319.04  84.4821
 44.0896  7296.42  84.6863
 44.1316  7417.38  85.0657
 44.1736  7440.33  85.1724
 44.2156  7491.63  85.3319
 44.2576  7470.61  85.5263
 44.2996  7298.13  84.6964
 44.3416  7434.84  85.0523
 44.3836  7294.41  84.5762
 44.4256  7315.91  84.3406
 44.4676  7412.82  85.0554
 44.5096  7537.83  85.918
 44.5516  7347.22  84.7879
 44.5936  7184.18  83.7965
 44.6356  7390.31  84.7316
 44.6776  7343.87  84.7821
 44.7196  7358.85  85.1641
 44.7616  7450.23  87.0137
 44.8036  7493.81  85.8807
 44.8456  7557.16  86.2477
 44.8876  7495.55  85.7359
 44.9296  7621.95  85.9104
 44.9716  7485.18  85.5622
 45.0136  7553.59  85.8696
 45.0556  7514.66  85.7545
 45.0976  7500.68  85.6987
 45.1396  7341.91  84.5633
 45.1816  7387.86  84.7785
 45.2236  7599.14  85.8824
 45.2656  7465.91  85.6205
 45.3076  7421.42  85.1405
 45.3496  7369.53  85.1592
 45.3916  7386.23  85.522
 45.4336  7484.75  85.927
 45.4756  7408.16  85.3434
 45.5176  7677.45  86.4977
 45.5596  7567.5  85.9945
 45.6016  7493.89  85.9987
 45.6436  7444.04  84.8839
 45.6856  7406.97  85.332
 45.7276  7228.73  85.6006
 45.7696  7413.01  86.3706
 45.8116  7350.03  85.4425
 45.8536  7340.25  85.2794
 45.8956  7456.7  85.3044
 45.9376  7395.97  84.4259
 45.9796  7455.76  85.4583
 46.0216  7389.52  85.4064
 46.0636  7507.56  85.2237
 46.1056  7430.72  84.7829
 46.1476  7507.08  85.8111
 46.1896  7477.91  85.7937
 46.2316  7387.74  85.139
 46.2736  7339.79  85.0041
 46.3156  7376.77  85.0399
 46.3576  7281.33  84.683
 46.3996  7315.03  85.0417
 46.4416  7370.32  84.9194
 46.4836  7374.91  85.3236
 46.5256  7394.67  85.3695
 46.5676  7312.21  85.011
 46.6096  7385.57  85.3662
 46.6516  7358.61  84.2533
 46.6936  7338.67  84.6363
 46.7356  7515.54  85.7448
 46.7776  7300.98  85.352
 46.8196  7265.67  84.8928
 46.8616  7161.06  84.0849
 46.9036  7174.82  83.8359
 46.9456  7375.25  84.6294
 46.9876  7360.34  84.6289
 47.0296  7249.3  84.6731
 47.0716  7188.15  84.1402
 47.1136  7308.77  84.5168
 47.1556  7329.77  84.502
 47.1976  7379.9  84.9036
 47.2396  7184.94  84.1475
 47.2816  7234.42  84.1389
 47.3236  7264.75  84.6841
 47.3656  7289.54  84.8407
 47.4076  7305.74  84.5743
 47.4496  7190.39  84.0759
 47.4916  7319.42  85.0131
 47.5336  7293.26  84.6783
 47.5756  7350.77  85.1314
 47.6176  7226.59  84.3049
 47.6596  7197.47  83.8613
 47.7016  7340.45  84.5034
 47.7436  7329.33  84.7008
 47.7856  7350.59  84.9168
 47.8276  7244.88  84.3505
 47.8696  7352.75  85.0688
 47.9116  7382.2  84.9416
 47.9536  7216.09  83.9306
 47.9956  7222.11  84.6757
 48.0376  7160.87  84.0981
 48.0796  7378.79  85.4879
 48.1216  7189.54  84.3199
 48.1636  7392.98  84.955
 48.2056  7382.81  85.168
 48.2476  7473.89  86.0028
 48.2896  7278.77  84.7803
 48.3316  7283.89  84.751
 48.3736  7355.9  85.1918
 48.4156  7269.05  84.5469
 48.4576  7212.19  84.5083
 48.4996  7297.74  84.4438
 48.5416  7325.99  84.9472
 48.5836  7299.37  84.4689
 48.6256  7293.48  84.6434
 48.6676  7294.39  85.1685
 48.7096  7300.93  84.4853
 48.7516  7262  84.3945
 48.7936  7115.66  83.6049
 48.8356  7295.67  84.7011
 48.8776  7256.04  84.9611
 48.9196  7386.97  85.1655
 48.9616  7195.12  84.4438
 49.0036  7251.39  85.1209
 49.0456  7203.08  84.8185
 49.0876  7224.5  84.5753
 49.1296  7144.47  84.1762
 49.1716  7068.74  83.5952
 49.2136  7298.48  84.8654
 49.2556  7257.12  84.6565
 49.2976  7270.67  84.8029
 49.3396  7148.37  84.1435
 49.3816  7371.43  84.8672
 49.4236  7160.99  84.0639
 49.4656  7079.59  83.62
 49.5076  7254.79  84.3895
 49.5496  7196.14  84.1151
 49.5916  7248.84  84.3305
 49.6336  7165.04  84.0443
 49.6756  7282.88  84.9674
 49.7176  7205.55  84.465
 49.7596  7164.34  83.982
 49.8016  7215.69  84.2016
 49.8436  7079.93  83.7121
 49.8856  7201.68  84.4261
 49.9276  7127.98  84.101
 49.9696  7210.05  84.5642
 50.0116  7081.58  83.9373
 50.0536  7197.71  84.5585
 50.0956  7088.88  83.9977
 50.1376  7172.38  84.1762
 50.1796  7149.33  84.326
 50.2216  7102.55  84.047
 50.2636  7212.37  84.2958
 50.3056  7049.09  83.5256
 50.3476  7145.8  84.1026
 50.3896  7169.12  84.2202
 50.4316  7151  83.9483
 50.4736  7023.72  83.4116
 50.5156  7146.48  84.1238
 50.5576  7184.74  84.1093
 50.5996  7133.47  84.0985
 50.6416  7035.77  83.4429
 50.6836  7185.11  84.3856
 50.7256  7140.78  84.041
 50.7676  7247.37  84.946
 50.8096  7169.96  84.0715
 50.8516  7078.38  83.9552
 50.8936  6991.38  83.2218
 50.9356  7193.23  84.5242
 50.9776  7094.27  84.0985
 51.0196  6868.3  82.8789
 51.0616  6963.64  82.7763
 51.1036  6996.59  83.3301
 51.1456  7079.67  83.7382
 51.1876  7012.97  82.6688
 51.2296  7016.18  83.3326
 51.2716  6942.12  82.5907
 51.3136  6827.78  82.3728
 51.3556  6847.08  82.1075
 51.3976  6947.8  82.8615
 51.4396  6875.72  82.747
 51.4816  6822.94  82.2773
 51.5236  6900.6  82.8398
 51.5656  6881.85  82.3187
 51.6076  6982.4  83.0028
 51.6496  6897.95  82.6865
 51.6916  6798.01  82.5184
 51.7336  6863.61  82.9335
 51.7756  6731.98  81.8354
 51.8176  6902.14  82.9723
 51.8596  6846.84  82.6512
 51.9016  6876.44  82.4364
 51.9436  6975.57  84.5304
 51.9856  6987.63  85.0176
 52.0276  6974.76  83.4043
 52.0696  7039.65  83.8605
 52.1116  6927.53  83.3156
 52.1536  7039.02  83.8088
 52.1956  6868.67  82.3038
 52.2376  7103.73  83.8729
 52.2796  7020.73  83.2012
 52.3216  6783.35  82.4681
 52.3636  6918.96  82.8424
 52.4056  6977.81  83.0689
 52.4476  6927.83  83.1186
 52.4896  6781.24  82.2838
 52.5316  7013.74  83.748
 52.5736  6845.27  82.4574
 52.6156  7019.34  83.8996
 52.6576  6802.6  82.0349
 52.6996  6748.16  82.687
 52.7416  6813.46  82.9427
 52.7836  6862.3  83.1272
 52.8256  6937.51  82.7824
 52.8676  6756.02  82.2713
 52.9096  6842.44  82.872
 52.9516  6840.5  83.2537
 52.9936  6862.59  83.7639
 53.0356  7041.34  83.8348
 53.0776  6987.05  83.8064
 53.1196  6920.29  83.5098
 53.1616  6768.82  82.6393
 53.2036  6746.65  82.4664
 53.2456  6796.97  82.8796
 53.2876  6853.09  82.8974
 53.3296  6936.41  83.7341
 53.3716  6822.26  82.8663
 53.4136  6916.09  83.5205
 53.4556  6791.69  82.7948
 53.4976  6885.32  83.2004
 53.5396  6698.91  82.4576
 53.5816  6893.79  83.276
 53.6236  6799.84  83.0716
 53.6656  6910.23  83.33
 53.7076  6812.06  82.6974
 53.7496  6850.95  83.066
 53.7916  6819.7  83.0203
 53.8336  6764.91  82.5865
 53.8756  6812.29  83.427
 53.9176  6804.12  82.7123
 53.9596  6556.41  81.9566
 54.0016  6564.67  81.3264
 54.0436  6481.28  81.021
 54.0856  6658.37  81.5562
 54.1276  6559.75  81.1421
 54.1696  6591.65  81.5053
 54.2116  6602.08  81.3075
 54.2536  6625.08  81.2668
 54.2956  6572.16  80.995
 54.3376  6635.01  81.8724
 54.3796  6407.77  80.3585
 54.4216  6608.95  81.6779
 54.4636  6534.82  81.1576
 54.5056  6609.18  81.4193
 54.5476  6452.84  80.8088
 54.5896  6480.49  80.8158
 54.6316  6527.37  80.9454
 54.6736  6499.89  80.8273
 54.7156  6531.9  81.0879
 54.7576  6412.42  80.3213
 54.7996  6614.74  81.7388
 54.8416  6423.04  80.6097
 54.8836  6550.61  81.478
 54.9256  6484.81  80.8397
 54.9676  6365.77  79.9605
 55.0096  6443.35  80.4816
 55.0516  6367.12  80.1729
 55.0936  6442.43  80.3698
 55.1356  6421.65  80.2852
 55.1776  6584.56  81.5179
 55.2196  6457.88  80.5283
 55.2616  6575.32  81.4951
 55.3036  6291.77  79.8696
 55.3456  6278.75  79.9395
 55.3876  6502.67  81.0625
 55.4296  6316.06  79.9077
 55.4716  6387.57  80.3756
 55.5136  6381.29  80.114
 55.5556  6539  81.14
 55.5976  6377.79  80.2069
 55.6396  6430.76  80.3896
 55.6816  6416.96  80.2594
 55.7236  6263.51  79.364
 55.7656  6381.44  79.8465
 55.8076  6356.82  79.6903
 55.8496  6366.64  80.144
 55.8916  6291.1  79.7481
 55.9336  6438.54  80.5314
 55.9756  6292.39  79.4894
 56.0176  6307.89  79.7553
 56.0596  6304.19  79.7017
 56.1016  6183.22  79.0029
 56.1436  6230.17  79.5173
 56.1856  6222.19  79.229
 56.2276  6442.81  80.6502
 56.2696  6260.24  79.4865
 56.3116  6420.18  80.888
 56.3536  6294.41  79.7378
 56.3956  6371.43  80.2088
 56.4376  6224.59  79.3244
 56.4796  6178.99  78.8554
 56.5216  6263.9  79.7732
 56.5636  6123.73  78.4557
 56.6056  6307.37  79.8415
 56.6476  6304.06  79.4375
 56.6896  6432.08  80.7119
 56.7316  6169.23  78.9605
 56.7736  6126.88  78.9184
 56.8156  6233.3  79.3892
 56.8576  6055.02  78.1915
 56.8996  6175.6  78.866
 56.9416  6168.05  79.1369
 56.9836  6324.19  79.6568
 57.0256  6177.63  79.0275
 57.0676  6269.97  79.7288
 57.1096  6246.78  79.3804
 57.1516  6106.11  78.4928
 57.1936  6172.95  78.7273
 57.2356  6081.45  78.4631
 57.2776  6277.35  79.6773
 57.3196  6117.72  78.9813
 57.3616  6183.65  78.9091
 57.4036  6233.16  79.3046
 57.4456  6267.24  79.4903
 57.4876  6219.32  79.0528
 57.5296  6157.63  78.8894
 57.5716  6087.35  78.5423
 57.6136  6011.96  77.8957
 57.6556  6209.48  79.2702
 57.6976  6262.26  79.4455
 57.7396  6091.83  78.7167
 57.7816  6046.22  78.7799
 57.8236  6059.9  78.6493
 57.8656  6105.12  78.6202
 57.9076  6050.03  78.278
 57.9496  6085.27  78.8718
 57.9916  6124.82  78.635
 58.0336  6116.9  78.8601
 58.0756  6134.69  78.5676
 58.1176  6129.33  78.5654
 58.1596  5992.45  78.2781
 58.2016  5893.23  76.8656
 58.2436  5857.77  77.0397
 58.2856  5828.87  76.7699
 58.3276  5821.76  77.0885
 58.3696  5881.4  77.2402
 58.4116  5879.11  77.0918
 58.4536  5934.87  77.3466
 58.4956  5865.14  77.0657
 58.5376  5926.58  77.0423
 58.5796  5797.58  76.6109
 58.6216  5877.54  76.9648
 58.6636  5887.93  77.2295
 58.7056  5871.04  76.9869
 58.7476  5838  77.2044
 58.7896  5793  76.5612
 58.8316  5860.61  76.999
 58.8736  5765.13  76.3831
 58.9156  5847.38  76.9681
 58.9576  5814.27  77.0598
 58.9996  5916.07  77.0042
 59.0416  5805.64  76.625
 59.0836  5833.34  76.7231
 59.1256  5780.78  77.069
 59.1676  5779.94  77.3675
 59.2096  5666.37  75.9203
 59.2516  5897.29  77.0379
 59.2936  5782.96  76.6085
 59.3356  5745.73  76.2422
 59.3776  5811.48  76.843
 59.4196  5707.54  76.091
 59.4616  5792.42  76.5171
 59.5036  5749.54  76.2675
 59.5456  5948.37  77.2711
 59.5876  5926.22  77.3164
 59.6296  5627.85  75.4117
 59.6716  5794.35  76.5759
 59.7136  5766.45  76.3798
 59.7556  5815.29  76.8365
 59.7976  5724.93  75.9861
 59.8396  5924.33  77.1934
 59.8816  5791.28  76.856
 59.9236  5857.12  76.9405
 59.9656  5763.21  76.5757
 60.0076  5953.77  77.1934
 60.0496  5807.57  76.7338
 60.0916  5951.72  77.1027
 60.1336  5723.32  76.6867
 60.1756  5801.51  78.3694
 60.1996  0.0000000E+00  0.0000000E+00