File: docs/examples/opeando_xrd/IS17_D/Data/IS17_D/17_Db_f00095.xye
# /beamlines/bl04/projects/cycle2025-II/20250340211-lsimonelli/DATA/IS17_D/17_Db_f00095.xye : mythproc.py merge -s 0.006 -l 0.5 -f /beamlines/bl04/inhouse/ff/FlatField/ff_20Nov2024rod8mm60s_17keV.raw -b True -c true -o xye /beamlines/bl04/projects/cycle2025-II/20250340211-lsimonelli/DATA/IS17_D/17_Db_00095.dat
# IsMon = [6756577, 6760638, 6757796]  IsPos = [-1.4999, -2.4884, -3.4988]
# Wave = 0.4962  CalPath /beamlines/bl04/projects/cycle2025-II/20250340211-lsimonelli/DATA/Align/Si_Pos1_25keV_f00001.cal
# Date = 2025-09-24_20:10:51 Dt = 4.8000  Bin = 0.0060  <imon> = 6758337 +/- 1701 (Min/Max) 6756577 / 6760638
# icurr 250.0354  mocoIn 1.7053E-05  mocoOut 0.8006  i15 7.07793e+06  imon 6.75834e+06  i7 7.0000  iEMpd_timer 4.8000  iEMpd_1 3.4388E-08  iEMpd_2 7.8113E-08  iEMpd_3 1.8299E-08  iEMpd_4 4.7804E-08  iEMhp_timer 4.8000  iEMhp_1 4.8837E-06  iEMhp_2 -2.5960E-08  iEMhp_3 -2.3970E-08  iEMhp_4 -2.0697E-08
#      9776
 1.5856  44690.9  217.105
 1.6276  51073.3  228.108
 1.6696  56616.9  239.322
 1.7116  63147.5  253.242
 1.7536  71958.9  269.182
 1.7956  76085.8  277.484
 1.8376  72999.4  272.229
 1.8796  62867.5  250.777
 1.9216  51370.5  227.589
 1.9636  44297.2  210.475
 2.0056  40696.8  200.958
 2.0476  37990.9  196.291
 2.0896  36443  191.123
 2.1316  35719.6  188.307
 2.1736  33992.8  185.156
 2.2156  34214.4  184.268
 2.2576  33153.7  182.038
 2.2996  31662.5  178.551
 2.3416  32497.5  179.445
 2.3836  31388.2  176.466
 2.4256  30292.9  173.925
 2.4676  30075.5  173.054
 2.5096  30005.6  172.909
 2.5516  28549  172.494
 2.5936  28716  169.529
 2.6356  28249.6  168.861
 2.6776  28105.6  167.328
 2.7196  27616.1  166.344
 2.7616  27405.3  165.496
 2.8036  26920.2  164.198
 2.8456  27037.6  165.2
 2.8876  26267  162.67
 2.9296  25996.7  161.98
 2.9716  25948  161.308
 3.0136  25562.8  160.184
 3.0556  25593.5  160.66
 3.0976  25721.2  159.953
 3.1396  25369.7  159.606
 3.1816  24993.6  158.349
 3.2236  24725.4  157.484
 3.2656  24580.1  156.066
 3.3076  24636.5  157.727
 3.3496  24556.6  156.382
 3.3916  25211.7  158.291
 3.4336  25675.4  160.335
 3.4756  25765.7  160.563
 3.5176  26164.3  161.56
 3.5596  26213.1  164.182
 3.6016  26475.4  162.594
 3.6436  25502.9  160.69
 3.6856  25070.7  157.625
 3.7276  24162  155.813
 3.7696  23858.7  155.037
 3.8116  23786.4  154.689
 3.8536  23718.8  154.408
 3.8956  23669.4  154.053
 3.9376  23476.9  153.699
 3.9796  23540  153.392
 4.0216  23368.4  151.859
 4.0636  23465.9  153.661
 4.1056  23368.5  152.982
 4.1476  23866.1  154.925
 4.1896  23726.5  154.329
 4.2316  24024.1  155.119
 4.2736  24368.4  156.027
 4.3156  24423.7  156.436
 4.3576  25338.9  159.228
 4.3996  25532.6  160.119
 4.4416  25858.4  160.728
 4.4836  26357.4  162.426
 4.5256  27063.4  165.212
 4.5676  27040.7  165.392
 4.6096  27672.1  165.953
 4.6516  27675.6  165.66
 4.6936  27889.3  167.137
 4.7356  28193  167.861
 4.7776  27855.1  166.677
 4.8196  28028.2  167.853
 4.8616  27395.2  165.431
 4.9036  27338.2  164.996
 4.9456  26921.5  164.388
 4.9876  26343.9  162.516
 5.0296  26674.7  163.371
 5.0716  26468.7  163.499
 5.1136  26597  163.61
 5.1556  26685.1  163.332
 5.1976  27295.6  165.191
 5.2396  27332.9  164.99
 5.2816  27449.8  165.824
 5.3236  27524.1  165.734
 5.3656  27067.9  165.294
 5.4076  26714.2  164.35
 5.4496  26688.4  163.765
 5.4916  27049.5  164.624
 5.5336  26859.3  164.045
 5.5756  27126.9  164.874
 5.6176  27185.4  164.493
 5.6596  27265.8  165.732
 5.7016  27300.8  165.088
 5.7436  27478.4  165.91
 5.7856  27163.7  165.026
 5.8276  27516.9  165.799
 5.8696  27634.7  166.334
 5.9116  27603.1  166.839
 5.9536  28002.8  167.786
 5.9956  28234.2  167.866
 6.0376  28114.4  168.124
 6.0796  28413.7  168.848
 6.1216  28196.1  168.4
 6.1636  28565.3  168.556
 6.2056  28393.4  168.722
 6.2476  28732.4  169.594
 6.2896  29003.6  170.073
 6.3316  28880.4  169.889
 6.3736  28944.1  169.97
 6.4156  29216.9  170.645
 6.4576  29041.8  169.763
 6.4996  29240  170.815
 6.5416  29209.4  170.858
 6.5836  29119.8  170.832
 6.6256  29370.2  171.124
 6.6676  29798.3  171.935
 6.7096  29785.9  172.757
 6.7516  30012  173.07
 6.7936  30220.5  173.079
 6.8356  30260  173.287
 6.8776  30374.8  174.405
 6.9196  30625.4  175.529
 6.9616  30936.4  175.855
 7.0036  31513.4  177.143
 7.0456  31470.9  176.334
 7.0876  31324.9  177.6
 7.1296  31461.3  177.117
 7.1716  31402.7  176.5
 7.2136  31107.1  175.443
 7.2556  31490.2  176.679
 7.2976  31280  176.572
 7.3396  31203.2  176.578
 7.3816  31138.1  176.612
 7.4236  31516.8  176.982
 7.4656  31794.2  177.216
 7.5076  31925.9  177.736
 7.5496  31597.3  177.363
 7.5916  31739.4  177.801
 7.6336  32206.6  178.99
 7.6756  32263.1  178.993
 7.7176  32868.6  180.988
 7.7596  32313  180.672
 7.8016  33183  185.326
 7.8436  32536.4  180.186
 7.8856  32791.6  180.502
 7.9276  33391.9  182.553
 7.9696  33547.1  183.275
 8.0116  34461.6  184.317
 8.0536  34912.2  185.771
 8.0956  34676.8  186.301
 8.1376  35108  186.938
 8.1796  35275.9  187.903
 8.2216  35856.1  188.212
 8.2636  36328.3  189.697
 8.3056  35981  189.553
 8.3476  36579.6  190.451
 8.3896  36444.5  190.177
 8.4316  36592.9  190.729
 8.4736  36661.2  190.383
 8.5156  35908.7  188.691
 8.5576  36117.9  190.183
 8.5996  35842.2  188.362
 8.6416  35827.4  189.558
 8.6836  35352.9  188.148
 8.7256  36013.4  189.339
 8.7676  35809.9  191.7
 8.8096  36649.4  191.257
 8.8516  36148.9  189.504
 8.8936  35877.6  188.762
 8.9356  36226.8  190.007
 8.9776  35922.8  189.29
 9.0196  36200.7  189.693
 9.0616  35803.2  188.153
 9.1036  35542.8  188.625
 9.1456  34933  186.339
 9.1876  35700  188.319
 9.2296  35227.1  186.509
 9.2716  35054.9  186.097
 9.3136  35048.6  186.074
 9.3556  35365  186.883
 9.3976  34057.8  183.912
 9.4396  33998.9  183.649
 9.4816  33853.4  183.132
 9.5236  33761.9  182.777
 9.5656  33788.9  183.205
 9.6076  32681.8  180.688
 9.6496  33300.7  182.27
 9.6916  32881.9  181.066
 9.7336  33343.4  182.14
 9.7756  32746.1  181.74
 9.8176  32660.2  180.996
 9.8596  32736.6  179.657
 9.9016  32202.3  178.18
 9.9436  32016.5  177.588
 9.9856  31608.1  176.723
 10.0276  31192.2  176.614
 10.0696  31487.9  176.489
 10.1116  30482.3  173.912
 10.1536  30410.6  173.859
 10.1956  30118.3  172.645
 10.2376  30040  171.94
 10.2796  29681.9  171.017
 10.3216  29446.2  170.609
 10.3636  29683.1  171.328
 10.4056  28750.9  169.007
 10.4476  29115  169.694
 10.4896  29265.8  169.579
 10.5316  28298.3  167.474
 10.5736  28397  168.169
 10.6156  28571.4  168.444
 10.6576  28494.9  166.776
 10.6996  27820.8  165.504
 10.7416  27493.2  164.738
 10.7836  27176.2  164.442
 10.8256  26756.5  163.58
 10.8676  26898  163.562
 10.9096  26616.5  162.745
 10.9516  26414.3  161.085
 10.9936  26695.2  162.154
 11.0356  26245.6  161.379
 11.0776  26158.4  160.446
 11.1196  25659.9  159.671
 11.1616  25501.9  158.84
 11.2036  25734  159.416
 11.2456  25481.9  159.336
 11.2876  25922  160.433
 11.3296  25503.2  159.046
 11.3716  25758.2  159.531
 11.4136  25670.4  160.133
 11.4556  25607.7  159.606
 11.4976  26207.2  160.453
 11.5396  26190.1  160.567
 11.5816  26673.1  162.487
 11.6236  26086.2  160.921
 11.6656  26050.1  159.962
 11.7076  25130.3  157.934
 11.7496  24840.1  161.014
 11.7916  24966.6  156.678
 11.8336  24213.4  155.182
 11.8756  24049  154.204
 11.9176  24176.1  154.289
 11.9596  24344.3  155.003
 12.0016  23945.8  154.486
 12.0436  24251.9  154.925
 12.0856  23771.8  153.883
 12.1276  23481.5  152.889
 12.1696  23490.1  152.047
 12.2116  23590  152.363
 12.2536  23507.4  152.904
 12.2956  23308.3  151.604
 12.3376  23673  153
 12.3796  23492.7  152.896
 12.4216  23592.4  152.411
 12.4636  23059  151.606
 12.5056  23402.2  152
 12.5476  23666.3  152.372
 12.5896  23300.9  151.824
 12.6316  23510.4  152.66
 12.6736  23147.3  151.962
 12.7156  23420.5  152.695
 12.7576  23339.7  152.681
 12.7996  23408.4  151.557
 12.8416  23147.6  151.753
 12.8836  23318.8  152.148
 12.9256  23725.7  152.516
 12.9676  23741.6  152.954
 13.0096  23905.6  154.6
 13.0516  23867.9  153.514
 13.0936  24077.9  154.598
 13.1356  24300.2  154.275
 13.1776  23923.6  154.083
 13.2196  23829.9  153.422
 13.2616  23589  152.955
 13.3036  24082.1  154.505
 13.3456  23620.3  153.363
 13.3876  24267.6  154.734
 13.4296  23918.9  153.785
 13.4716  24134.3  154.104
 13.5136  24061.1  153.984
 13.5556  23823.9  153.85
 13.5976  24037.8  154.72
 13.6396  24058.8  154.144
 13.6816  24094.6  154.731
 13.7236  24445  155.429
 13.7656  26078.8  160.993
 13.8076  26712.9  161.563
 13.8496  26389.3  161.235
 13.8916  24384.1  156.146
 13.9336  23576.6  152.838
 13.9756  23747.5  152.776
 14.0176  23371.1  152.236
 14.0596  23370.6  152.163
 14.1016  23410.4  152.711
 14.1436  23315.4  151.544
 14.1856  22836.1  150.269
 14.2276  22763.9  150.513
 14.2696  22790.4  150.452
 14.3116  22241  148.536
 14.3536  22248  148.724
 14.3956  21879.4  147.207
 14.4376  22237  148.198
 14.4796  22203.3  148.083
 14.5216  21768.8  147.413
 14.5636  21765.8  146.974
 14.6056  21980.1  147.251
 14.6476  21763.5  145.771
 14.6896  21390.8  145.063
 14.7316  21171.4  145.349
 14.7736  20874.4  143.468
 14.8156  20915.5  143.636
 14.8576  20600.9  142.415
 14.8996  20449.2  143.079
 14.9416  20004.4  141.518
 14.9836  20023.1  141.578
 15.0256  19372.8  138.175
 15.0676  19268.4  138.111
 15.1096  19357  138.173
 15.1516  18975.9  137.347
 15.1936  18833.6  136.276
 15.2356  18610.4  135.739
 15.2776  18650.2  135.477
 15.3196  18015.1  134.122
 15.3616  18167.9  134.456
 15.4036  18187.1  134.386
 15.4456  18433.8  134.949
 15.4876  18077.3  133.325
 15.5296  17980.2  133.241
 15.5716  17684.5  131.759
 15.6136  17571.3  131.648
 15.6556  17593.7  130.994
 15.6976  17541  131.085
 15.7396  17410.4  130.983
 15.7816  17213.2  129.758
 15.8236  16921.7  129.338
 15.8656  17192.5  130.159
 15.9076  16947.4  129.056
 15.9496  17758.9  134.921
 15.9916  17351.9  133.765
 16.0336  17542.1  131.389
 16.0756  17367.5  131.052
 16.1176  17194.4  130.477
 16.1596  16774.4  130.041
 16.2016  16746.3  128.704
 16.2436  16698.9  128.899
 16.2856  16687  128.369
 16.3276  16269.6  127.181
 16.3696  16533.6  128.035
 16.4116  16373.2  127.839
 16.4536  16534  128.296
 16.4956  16664.4  128.522
 16.5376  16316.4  127.371
 16.5796  16178.8  126.21
 16.6216  16306.3  126.937
 16.6636  15975.8  125.857
 16.7056  16281  126.914
 16.7476  16391.2  126.859
 16.7896  16058.6  126.324
 16.8316  16228.8  126.969
 16.8736  16399.7  127.888
 16.9156  16124.6  127.139
 16.9576  15901.6  127.02
 16.9996  16022  127.965
 17.0416  16112.5  126.717
 17.0836  16135.9  126.583
 17.1256  15931.1  125.783
 17.1676  15954  125.825
 17.2096  15830.6  125.238
 17.2516  15825.3  125.01
 17.2936  15829.3  125.376
 17.3356  15567.3  124.327
 17.3776  15528.4  124.357
 17.4196  15350.6  123.335
 17.4616  15406.5  123.47
 17.5036  14907.4  121.813
 17.5456  15157.8  123.463
 17.5876  14945.4  121.653
 17.6296  15136.9  122.262
 17.6716  14870.5  121.755
 17.7136  14979.8  122.335
 17.7556  14809.4  121.929
 17.7976  14881.5  121.951
 17.8396  14561  120.151
 17.8816  14458.8  120.275
 17.9236  14666.4  120.928
 17.9656  14558.7  121.009
 18.0076  14512.7  120.406
 18.0496  14517.7  119.571
 18.0916  14527.7  120.167
 18.1336  14402.3  119.737
 18.1756  14526.5  119.809
 18.2176  14190.3  118.618
 18.2596  14336.5  118.952
 18.3016  14387.6  119.436
 18.3436  14319.6  119.148
 18.3856  14414.9  119.681
 18.4276  14155.7  118.291
 18.4696  14173.9  118.444
 18.5116  14284  119.177
 18.5536  14113.2  118.826
 18.5956  13974.3  117.804
 18.6376  13910.4  117.92
 18.6796  14096.2  118.034
 18.7216  14111.8  118.582
 18.7636  14060.3  118.385
 18.8056  13846.6  117.399
 18.8476  13689  117.352
 18.8896  13834.3  117.316
 18.9316  13851.9  117.368
 18.9736  13801.8  116.864
 19.0156  13745  117.022
 19.0576  13952  116.763
 19.0996  13975  117.562
 19.1416  13891.7  117.613
 19.1836  13786.4  116.773
 19.2256  13561.5  116.033
 19.2676  13824.6  117.235
 19.3096  13621.4  116.617
 19.3516  13698.2  116.908
 19.3936  13723.9  116.9
 19.4356  13821.8  117.215
 19.4776  13621  116.447
 19.5196  13706.1  116.665
 19.5616  13577.5  116.374
 19.6036  13629.5  116.091
 19.6456  13600  116.084
 19.6876  13749.4  116.355
 19.7296  13868.9  117.327
 19.7716  13598.9  116.338
 19.8136  14055  118.47
 19.8556  13988.4  117.687
 19.8976  13880.5  117.284
 19.9396  13960.2  117.216
 19.9816  13980.9  117.548
 20.0236  14275.4  118.965
 20.0656  14301.7  119.077
 20.1076  14565.3  120.663
 20.1496  14335.8  119.689
 20.1916  14226.5  118.757
 20.2336  13729.8  116.584
 20.2756  13489.5  115.985
 20.3176  13456.5  115.597
 20.3596  13312  114.961
 20.4016  13304.1  114.722
 20.4436  13222.5  114.927
 20.4856  13334.9  115.218
 20.5276  13106.9  114.687
 20.5696  13343.5  115.161
 20.6116  13004.5  113.963
 20.6536  13115  113.969
 20.6956  13073  113.913
 20.7376  12912.5  113.416
 20.7796  12865.7  112.903
 20.8216  13003  113.222
 20.8636  13001.9  113.597
 20.9056  12865.6  112.943
 20.9476  12906.7  112.959
 20.9896  12954.1  113.031
 21.0316  12855.5  112.503
 21.0736  12873.9  113.103
 21.1156  12646.9  112.253
 21.1576  12941.7  113.592
 21.1996  12807.6  112.995
 21.2416  12897  113.211
 21.2836  12810.3  112.808
 21.3256  12860  113.108
 21.3676  12839  112.548
 21.4096  12635.6  111.967
 21.4516  12610.5  111.736
 21.4936  12410.2  111.103
 21.5356  12651.8  112.126
 21.5776  12745  112.368
 21.6196  12580.8  111.692
 21.6616  12494.2  111.382
 21.7036  12590.6  111.579
 21.7456  12621.5  111.798
 21.7876  12486.9  110.967
 21.8296  12431.8  110.566
 21.8716  12529.7  111.222
 21.9136  12714.2  112.243
 21.9556  12566.8  111.275
 21.9976  12501.8  111.012
 22.0396  12483.7  111.183
 22.0816  12411.3  111.384
 22.1236  12561.6  111.518
 22.1656  12369.3  110.806
 22.2076  12165.2  109.344
 22.2496  12117.9  109.156
 22.2916  12140.2  109.147
 22.3336  12144.7  109.873
 22.3756  12066.8  109.251
 22.4176  12027.3  108.924
 22.4596  11794.9  108.449
 22.5016  12138.9  109.526
 22.5436  12175.8  109.572
 22.5856  12247.8  110.135
 22.6276  12362.6  110.777
 22.6696  12110.1  109.997
 22.7116  12047.8  109.228
 22.7536  12085.7  109.38
 22.7956  11962.1  108.166
 22.8376  12070.3  109.173
 22.8796  12026.9  108.777
 22.9216  12209.7  110.143
 22.9636  12287  109.645
 23.0056  12025.8  108.609
 23.0476  12232.8  110.103
 23.0896  12497.3  110.667
 23.1316  12212.4  109.828
 23.1736  12265.2  112.969
 23.2156  12523.1  111.555
 23.2576  12750.1  112.698
 23.2996  12436.4  111.081
 23.3416  12482  111.809
 23.3836  12627.2  111.683
 23.4256  12675.3  112.021
 23.4676  12537.6  111.098
 23.5096  12497.5  111.582
 23.5516  12318.4  110.085
 23.5936  12328.2  111.032
 23.6356  12625.8  112.028
 23.6776  12385.5  111.163
 23.7196  12263.1  110.196
 23.7616  12145.3  109.586
 23.8036  12649.5  111.891
 23.8456  12139.9  109.173
 23.8876  12353.7  110.487
 23.9296  12081.1  109.741
 23.9716  12212.7  109.547
 24.0136  12254.3  110.632
 24.0556  12214.2  110.169
 24.0976  12005.8  109.038
 24.1396  11946.4  111.367
 24.1816  12021.4  110.139
 24.2236  11977.5  109.559
 24.2656  11865.4  108.521
 24.3076  11939.9  109.133
 24.3496  11770.9  108.234
 24.3916  11954.6  109.132
 24.4336  11897.2  109.059
 24.4756  11817.7  108.59
 24.5176  11746.3  107.885
 24.5596  11644.6  107.538
 24.6016  11612.6  107.686
 24.6436  11726.1  107.731
 24.6856  11737.9  107.526
 24.7276  11446.1  106.494
 24.7696  11497.4  106.847
 24.8116  11360.6  106.375
 24.8536  11348  106.329
 24.8956  11327.2  105.961
 24.9376  11354.1  106.021
 24.9796  11308  106.159
 25.0216  11387.9  106.661
 25.0636  11241.2  105.623
 25.1056  11171.5  105.984
 25.1476  11007.1  106.809
 25.1896  11080.1  105.69
 25.2316  11045.9  104.817
 25.2736  10877.8  103.668
 25.3156  11007.4  104.366
 25.3576  10943.4  104.486
 25.3996  11090.4  105.178
 25.4416  10915.2  104.316
 25.4836  10767.4  104.114
 25.5256  10730.6  103.313
 25.5676  10925.5  103.973
 25.6096  10682.7  103.382
 25.6516  10898.3  103.925
 25.6936  10959  104.537
 25.7356  10731  103.573
 25.7776  10964.1  104.289
 25.8196  10527.5  102.428
 25.8616  10689.2  103.144
 25.9036  10786.8  103.074
 25.9456  10725.8  103.368
 25.9876  10616.2  102.894
 26.0296  10713.2  102.894
 26.0716  10767.9  103.586
 26.1136  10754.7  103.452
 26.1556  10755.9  102.845
 26.1976  10566.2  102.848
 26.2396  10576.5  102.062
 26.2816  10726.9  103.392
 26.3236  10734.3  103.567
 26.3656  10759.1  103.433
 26.4076  10597.5  102.856
 26.4496  10835.5  103.598
 26.4916  10980.2  104.167
 26.5336  11145.1  105.303
 26.5756  11639.7  107.494
 26.6176  10809.9  103.598
 26.6596  10657.2  103.159
 26.7016  10556.8  102.447
 26.7436  10581.5  102.704
 26.7856  10394.7  101.783
 26.8276  10446.8  102.003
 26.8696  10485.6  102.063
 26.9116  10470.7  101.93
 26.9536  10313  101.211
 26.9956  10270.6  101.028
 27.0376  10418.7  101.98
 27.0796  10316.4  101.201
 27.1216  10358.1  101.474
 27.1636  10192.4  100.824
 27.2056  10247.4  100.974
 27.2476  10139.1  100.426
 27.2896  10148.8  100.598
 27.3316  10214.6  100.642
 27.3736  10036.4  100.026
 27.4156  10203.2  100.705
 27.4576  10052.6  100.176
 27.4996  10140.7  100.223
 27.5416  10139.2  100.509
 27.5836  10179.9  100.552
 27.6256  10064.2  100.159
 27.6676  10076  100.205
 27.7096  10080.5  100.106
 27.7516  10027.9  99.9951
 27.7936  10307  101.528
 27.8356  10182.9  100.532
 27.8776  10251  100.929
 27.9196  9989.85  99.4977
 27.9616  9995.98  99.7233
 28.0036  9936.63  99.3876
 28.0456  9875.02  99.211
 28.0876  9981.24  99.8261
 28.1296  9828.95  98.9012
 28.1716  9940.35  99.4841
 28.2136  9905.78  99.2707
 28.2556  9864.07  99.1703
 28.2976  9779.5  98.7437
 28.3396  9710.4  98.1601
 28.3816  9806.47  98.6439
 28.4236  9636.95  97.9483
 28.4656  9722.76  98.42
 28.5076  9727.57  98.0834
 28.5496  9578.34  97.582
 28.5916  9771.67  98.3793
 28.6336  9766.26  98.6904
 28.6756  9802.46  98.0705
 28.7176  9618.77  97.7048
 28.7596  9523.88  97.1072
 28.8016  9481.76  96.9284
 28.8436  9615.43  97.853
 28.8856  9572.38  97.4828
 28.9276  9645.39  98.0996
 28.9696  9591.13  97.4879
 29.0116  9500.97  97.2093
 29.0536  9350.2  96.6414
 29.0956  9498.65  97.1015
 29.1376  9483.03  97.0037
 29.1796  9486.02  97.0569
 29.2216  9455.37  96.7465
 29.2636  9599.98  97.5563
 29.3056  9486.86  96.7671
 29.3476  9578.3  97.7618
 29.3896  9609.63  98.0328
 29.4316  9440.03  96.4982
 29.4736  9223.46  95.4513
 29.5156  9253.21  95.5215
 29.5576  9213.25  96.0362
 29.5996  9251.1  95.5115
 29.6416  9233.34  95.5269
 29.6836  9283.74  95.723
 29.7256  9214.33  95.9196
 29.7676  9254.56  95.7995
 29.8096  9220.24  95.5634
 29.8516  9143.9  95.4973
 29.8936  9236.86  96.0674
 29.9356  9292.99  96.1177
 29.9776  9149.28  95.5138
 30.0196  9141.91  94.8856
 30.0616  9155.72  95.3238
 30.1036  9069.17  94.6991
 30.1456  9007.98  94.6097
 30.1876  9166.23  95.4109
 30.2296  9003.78  94.5157
 30.2716  9218.88  95.2803
 30.3136  9008.33  95.0218
 30.3556  9464.4  97.4047
 30.3976  9138.63  97.1623
 30.4396  9508.65  96.4916
 30.4816  9426.44  95.6906
 30.5236  9450.01  95.7984
 30.5656  9288.52  95.6406
 30.6076  9434.1  95.8
 30.6496  9361.63  95.8363
 30.6916  9285.66  95.5414
 30.7336  9272.21  95.6067
 30.7756  9303.6  95.8479
 30.8176  9261.18  95.5659
 30.8596  9337.49  95.7105
 30.9016  9378.68  96.267
 30.9436  9392.22  96.0821
 30.9856  9498.76  96.7612
 31.0276  9253.14  95.1294
 31.0696  9212.84  95.475
 31.1116  9036.99  94.5281
 31.1536  9274.15  95.6305
 31.1956  9023.03  94.4294
 31.2376  9002.47  94.3349
 31.2796  9101.39  94.3946
 31.3216  9065.14  94.1361
 31.3636  9227.66  95.6601
 31.4056  9143.39  96.5245
 31.4476  9118.35  94.326
 31.4896  9154.33  95.006
 31.5316  9143.83  94.3558
 31.5736  9403.08  95.5229
 31.6156  9240.39  94.6953
 31.6576  9184.07  94.4814
 31.6996  9373.36  95.1076
 31.7416  9117.68  94.8894
 31.7836  9175.66  94.1895
 31.8256  9270.78  94.9608
 31.8676  9188.63  94.5248
 31.9096  9034.85  94.0988
 31.9516  8923.73  93.6841
 31.9936  8815.71  92.9353
 32.0356  9228.46  95.1358
 32.0776  9184.23  94.8068
 32.1196  9154.64  94.7606
 32.1616  9186.47  94.3726
 32.2036  9108.51  94.4822
 32.2456  9067.21  94.6463
 32.2876  9017.39  93.8881
 32.3296  9058.94  94.057
 32.3716  8731.11  92.461
 32.4136  8876.41  93.4289
 32.4556  8924.52  93.0687
 32.4976  8950.51  93.1249
 32.5396  8809  92.4356
 32.5816  8954.1  93.3284
 32.6236  8859.03  92.8967
 32.6656  8873.86  93.5098
 32.7076  8734.92  92.4333
 32.7496  8702.91  91.9368
 32.7916  8849.69  92.6748
 32.8336  8784.44  92.4206
 32.8756  8902.41  92.768
 32.9176  8714.12  92.2561
 32.9596  8714.59  92.3263
 33.0016  8671.82  91.8786
 33.0436  8741.86  92.4275
 33.0856  8696.28  92.2782
 33.1276  8606.7  91.5301
 33.1696  8765.45  92.2008
 33.2116  8890.31  93.0842
 33.2536  8879.3  93.0212
 33.2956  8704.22  92.185
 33.3376  8759.76  92.2292
 33.3796  8831.84  92.8245
 33.4216  8647.85  91.4475
 33.4636  8791.46  92.3528
 33.5056  8523.16  91.1739
 33.5476  8680.41  91.9936
 33.5896  8727.11  92.0307
 33.6316  8730.75  92.3609
 33.6736  8528.57  91.5307
 33.7156  8566.18  91.7624
 33.7576  8647.42  91.8418
 33.7996  8781.27  92.3071
 33.8416  8493.57  90.9698
 33.8836  8585.75  91.2384
 33.9256  8686.28  91.8305
 33.9676  8607.8  91.3135
 34.0096  8689.32  92.0574
 34.0516  8583.97  91.1311
 34.0936  8481.41  90.8574
 34.1356  8587.16  91.166
 34.1776  8394.61  90.1381
 34.2196  8421.04  90.4621
 34.2616  8369.72  90.3093
 34.3036  8462.41  91.0559
 34.3456  8425.31  90.6099
 34.3876  8551.62  91.2677
 34.4296  8350.75  89.8829
 34.4716  8533.16  91.0117
 34.5136  8526.75  91.1589
 34.5556  8362.99  90.5326
 34.5976  8506.25  91.1154
 34.6396  8391.57  90.2271
 34.6816  8499.96  90.9091
 34.7236  8469.49  90.5216
 34.7656  8349.91  90.0932
 34.8076  8363.36  90.4926
 34.8496  8403.1  90.5517
 34.8916  8498.34  90.9218
 34.9336  8393.37  90.3495
 34.9756  8442.66  90.536
 35.0176  8427.02  90.9763
 35.0596  8525.36  91.3342
 35.1016  8404.45  90.4403
 35.1436  8636.14  91.3613
 35.1856  8384.26  90.1379
 35.2276  8318.03  89.9539
 35.2696  8403.77  90.6033
 35.3116  8359.26  90.4637
 35.3536  8346.58  90.1035
 35.3956  8338.76  89.7787
 35.4376  8366.13  90.4857
 35.4796  8393.61  90.6737
 35.5216  8291.87  90.0904
 35.5636  8167.37  90.1474
 35.6056  8219.69  89.4595
 35.6476  8278.64  89.689
 35.6896  8261.51  89.6792
 35.7316  8172.13  89.1726
 35.7736  8370.82  90.4317
 35.8156  8392.75  90.5463
 35.8576  8316.53  90.3856
 35.8996  8341.16  90.4992
 35.9416  8276.32  89.6422
 35.9836  8341.48  90.3354
 36.0256  8390.73  90.6233
 36.0676  8420.34  90.525
 36.1096  8297.47  90.0231
 36.1516  8463.19  90.8064
 36.1936  8372.76  90.1492
 36.2356  8270.04  90.2587
 36.2776  8243.33  89.5879
 36.3196  8258.32  89.3388
 36.3616  8179.24  89.0404
 36.4036  8225.59  89.3649
 36.4456  8276.91  89.8436
 36.4876  8054.16  88.5727
 36.5296  8157.93  89.1755
 36.5716  8219.37  90.2923
 36.6136  8104.38  88.4407
 36.6556  8072.41  88.4753
 36.6976  7961.24  88.3468
 36.7396  7972.35  88.1414
 36.7816  7813.4  87.624
 36.8236  7804.42  87.5018
 36.8656  7976.04  88.526
 36.9076  7839.98  87.6473
 36.9496  7960.26  88.315
 36.9916  7807.75  87.0954
 37.0336  7986.8  88.4075
 37.0756  7977.93  88.1492
 37.1176  7691.92  86.8124
 37.1596  7810.83  87.4887
 37.2016  7870.1  88.0383
 37.2436  8059.61  88.4192
 37.2856  7771.26  87.0682
 37.3276  8034.4  87.8899
 37.3696  7851.05  87.7444
 37.4116  7870.63  87.7701
 37.4536  7796.79  87.2239
 37.4956  7739.51  86.9492
 37.5376  8053.89  90.2856
 37.5796  8008.87  89.95
 37.6216  7965.44  88.0003
 37.6636  8082.69  88.5276
 37.7056  7974.66  88.1327
 37.7476  8111.99  88.4273
 37.7896  7843.28  87.4528
 37.8316  7919.19  88.021
 37.8736  7940.54  87.6697
 37.9156  7838.78  87.1055
 37.9576  8000.55  87.9143
 37.9996  7862.4  86.8671
 38.0416  7847.02  87.576
 38.0836  7992  88.2729
 38.1256  8003.5  88.3268
 38.1676  7662.69  86.5317
 38.2096  8058.29  88.3574
 38.2516  7893.19  87.6678
 38.2936  8086.3  88.5248
 38.3356  7860.94  87.2213
 38.3776  8009.91  88.2915
 38.4196  7842.72  87.2159
 38.4616  7847.12  87.4888
 38.5036  8070.96  88.5757
 38.5456  7748.62  87.5933
 38.5876  7775.42  87.7571
 38.6296  7831.03  87.0563
 38.6716  7874.68  87.1076
 38.7136  7906.74  87.2242
 38.7556  7860.99  87.4805
 38.7976  8019.61  88.2879
 38.8396  7766.92  87.3405
 38.8816  7715.67  86.8504
 38.9236  7796.03  87.0911
 38.9656  7762.39  86.8208
 39.0076  7825.32  86.5847
 39.0496  7938.44  87.7624
 39.0916  7952.23  87.4797
 39.1336  7836.99  87.2392
 39.1756  7855.07  87.4021
 39.2176  7745.47  87.3269
 39.2596  7895.94  88.0858
 39.3016  7809.49  87.203
 39.3436  7722.13  87.1068
 39.3856  7876.23  87.4291
 39.4276  7956.37  88.3887
 39.4696  7811.91  87.1932
 39.5116  7867.4  88.0256
 39.5536  7917.79  88.7241
 39.5956  7800.19  87.171
 39.6376  7736.66  86.8247
 39.6796  7784.28  86.8342
 39.7216  7772.23  86.8684
 39.7636  7794.18  87.5208
 39.8056  7845.95  87.6204
 39.8476  7612.97  86.5573
 39.8896  7764.84  87.0551
 39.9316  7697.27  86.9072
 39.9736  7748.32  86.7878
 40.0156  7753.82  86.6545
 40.0576  7731.57  86.8664
 40.0996  7822.66  86.5768
 40.1416  7760.07  87.0128
 40.1836  7866.26  87.5035
 40.2256  7827.18  87.3039
 40.2676  7731.36  86.8931
 40.3096  7898.99  87.7502
 40.3516  7749.19  87.0227
 40.3936  7836.72  87.0657
 40.4356  7705.78  86.5377
 40.4776  7820.39  87.5827
 40.5196  7808.1  87.64
 40.5616  7921.84  87.9201
 40.6036  7726.69  87.0875
 40.6456  7767.87  86.9339
 40.6876  7913.56  87.7295
 40.7296  7732.34  86.8554
 40.7716  7865.29  87.7197
 40.8136  7741.07  86.9662
 40.8556  7968.19  88.3667
 40.8976  7809.92  87.4072
 40.9396  7870.5  88.0968
 40.9816  7980.64  87.9978
 41.0236  7804.73  86.8129
 41.0656  7887.75  87.7995
 41.1076  7853.66  87.3847
 41.1496  7787.25  86.9261
 41.1916  7722.39  86.8666
 41.2336  7767.45  87.127
 41.2756  7782.78  86.8182
 41.3176  7838.44  87.7421
 41.3596  7851.81  87.5518
 41.4016  7687.55  86.8852
 41.4436  7754.18  87.0472
 41.4856  7822.47  87.5975
 41.5276  7813.87  87.5588
 41.5696  7800.61  87.1215
 41.6116  7815.29  87.5891
 41.6536  7895.17  87.8765
 41.6956  7978.42  88.4254
 41.7376  7736.87  87.0983
 41.7796  7649.61  86.4865
 41.8216  7790.91  87.5145
 41.8636  7733.16  87.1355
 41.9056  7740.97  86.9717
 41.9476  7768.45  87.3588
 41.9896  7849.54  87.4789
 42.0316  7862.6  87.6379
 42.0736  7938.39  88.1621
 42.1156  7814.1  87.3062
 42.1576  7749.74  87.0511
 42.1996  7931.45  88.179
 42.2416  7695.03  86.4624
 42.2836  7691.31  86.5533
 42.3256  7674.09  86.5625
 42.3676  7906.98  87.6742
 42.4096  7794.8  87.0242
 42.4516  7881.64  87.5839
 42.4936  7640.37  86.3072
 42.5356  7634.43  86.4078
 42.5776  7735.32  86.9096
 42.6196  7789.57  87.2662
 42.6616  7613.15  86.4502
 42.7036  7795.6  86.8645
 42.7456  7887.48  87.7303
 42.7876  7683.35  86.669
 42.8296  7736.55  86.811
 42.8716  7615.37  86.3019
 42.9136  7630.5  86.1686
 42.9556  7684.94  86.6092
 42.9976  7679.2  86.5472
 43.0396  7714.87  86.4792
 43.0816  7725.22  86.9221
 43.1236  7614.36  86.346
 43.1656  7770.62  87.0423
 43.2076  7633.09  86.3903
 43.2496  7733.62  86.7739
 43.2916  7593.65  86.3392
 43.3336  7584.7  86.1254
 43.3756  7706.41  86.5699
 43.4176  7600.68  86.05
 43.4596  7683.05  86.3656
 43.5016  7683.25  86.7774
 43.5436  7595.65  86.1796
 43.5856  7558.23  86.0116
 43.6276  7597.07  86.1212
 43.6696  7552.49  86.1251
 43.7116  7736.69  86.6678
 43.7536  7732.12  87.1341
 43.7956  7493.81  86.9873
 43.8376  7437.33  85.1857
 43.8796  7325.36  84.6224
 43.9216  7449.51  85.2496
 43.9636  7561.29  86.0023
 44.0056  7402.49  85.3229
 44.0476  7429.29  85.116
 44.0896  7281.92  84.5997
 44.1316  7378.4  84.6884
 44.1736  7480.51  85.3994
 44.2156  7543.34  85.6069
 44.2576  7246.92  84.2263
 44.2996  7371.76  84.9197
 44.3416  7387.5  84.7737
 44.3836  7268.95  84.4181
 44.4256  7363.98  84.616
 44.4676  7219.9  83.9325
 44.5096  7413.28  85.1941
 44.5516  7336.45  84.7121
 44.5936  7272.75  84.3002
 44.6356  7357.43  84.5317
 44.6776  7437.56  85.299
 44.7196  7339.36  85.0477
 44.7616  7388.39  86.6434
 44.8036  7500.1  85.7365
 44.8456  7568.89  86.3321
 44.8876  7549.11  86.06
 44.9296  7601.88  85.8087
 44.9716  7566.22  86.0365
 45.0136  7537.06  85.8076
 45.0556  7609.75  86.1962
 45.0976  7464.93  85.5402
 45.1396  7422.75  85.0474
 45.1816  7478.87  85.3138
 45.2236  7469.84  85.1614
 45.2656  7422.04  85.3893
 45.3076  7493.6  85.5685
 45.3496  7269.82  84.5937
 45.3916  7451.92  85.916
 45.4336  7593.17  86.5761
 45.4756  7552.51  86.1972
 45.5176  7473.75  85.3549
 45.5596  7422.69  85.186
 45.6016  7337.52  85.112
 45.6436  7378.61  84.519
 45.6856  7334.29  84.9343
 45.7276  7246.25  85.7036
 45.7696  7466.24  86.68
 45.8116  7388.08  85.646
 45.8536  7396.21  85.5944
 45.8956  7346.18  84.6631
 45.9376  7535.58  85.2139
 45.9796  7387.99  85.0541
 46.0216  7421.95  85.5676
 46.0636  7566  85.5394
 46.1056  7490.7  85.1173
 46.1476  7387.8  85.1225
 46.1896  7486.63  85.8327
 46.2316  7337.2  84.8339
 46.2736  7370.75  85.4058
 46.3156  7414.7  85.2445
 46.3576  7393.14  85.3192
 46.3996  7315.35  85.0253
 46.4416  7465.36  85.4709
 46.4836  7268.09  84.6879
 46.5256  7407.64  85.4369
 46.5676  7286.07  84.8472
 46.6096  7387.38  85.3624
 46.6516  7374.82  84.3421
 46.6936  7427.65  85.1451
 46.7356  7537.49  85.8691
 46.7776  7330.12  85.5242
 46.8196  7261.3  84.7207
 46.8616  7172.98  84.1543
 46.9036  7227.29  84.1301
 46.9456  7273.04  84.0405
 46.9876  7278.26  84.151
 47.0296  7278.38  84.8414
 47.0716  7230.31  84.387
 47.1136  7207.26  83.9329
 47.1556  7277.08  84.1986
 47.1976  7365.36  84.7984
 47.2396  7281.95  84.7083
 47.2816  7224.52  84.0731
 47.3236  7230.62  84.4821
 47.3656  7281.94  84.7053
 47.4076  7263.52  84.4114
 47.4496  7247.35  84.4099
 47.4916  7291.66  84.8501
 47.5336  7218.91  84.2507
 47.5756  7300.86  84.8381
 47.6176  7302.11  84.7521
 47.6596  7239.62  84.0903
 47.7016  7415.11  84.9228
 47.7436  7328.71  84.7677
 47.7856  7372  85.0452
 47.8276  7358.28  85.0107
 47.8696  7329.93  84.9454
 47.9116  7340.87  84.7134
 47.9536  7302.26  84.433
 47.9956  7218.29  84.6552
 48.0376  7156.24  84.0593
 48.0796  7263.96  84.8175
 48.1216  7175.77  84.1263
 48.1636  7351.14  84.7194
 48.2056  7255.07  84.4274
 48.2476  7429.11  85.7446
 48.2896  7390.04  85.4272
 48.3316  7277.52  84.7154
 48.3736  7192.07  84.2413
 48.4156  7249.72  84.429
 48.4576  7349.49  85.3079
 48.4996  7307.71  84.5111
 48.5416  7401.67  85.3893
 48.5836  7283.61  84.3804
 48.6256  7347.8  84.9521
 48.6676  7183.75  84.5149
 48.7096  7251.96  84.1914
 48.7516  7366.28  84.9944
 48.7936  7151.83  83.8121
 48.8356  7267.06  84.5352
 48.8776  7222.8  84.8449
 48.9196  7426.04  85.3878
 48.9616  7166.33  84.2731
 49.0036  7195.96  84.7968
 49.0456  7211.01  84.8588
 49.0876  7328.53  85.0783
 49.1296  7184.23  84.4062
 49.1716  7057.45  83.5273
 49.2136  7316.2  84.9542
 49.2556  7247.21  84.5938
 49.2976  7277.15  84.8398
 49.3396  7246.25  84.7252
 49.3816  7260.69  84.2194
 49.4236  7205.09  84.3376
 49.4656  7101.95  83.7454
 49.5076  7263.06  84.4381
 49.5496  7213.24  84.2093
 49.5916  7168.5  83.8576
 49.6336  7185.25  84.1697
 49.6756  7236.63  84.7061
 49.7176  7135.01  84.0499
 49.7596  7091.18  83.562
 49.8016  7263.77  84.4715
 49.8436  7094.26  83.7917
 49.8856  7163.74  84.2085
 49.9276  7109.67  83.9889
 49.9696  7161.63  84.2787
 50.0116  7161.26  84.4131
 50.0536  7265.59  84.9702
 50.0956  7025.1  83.6139
 50.1376  7198.67  84.3418
 50.1796  7109.19  84.088
 50.2216  7160.03  84.3797
 50.2636  7123.81  83.7757
 50.3056  7052.46  83.5298
 50.3476  7161.62  84.1986
 50.3896  7060.94  83.5817
 50.4316  7204.85  84.2588
 50.4736  7091.25  83.8145
 50.5156  7068.1  83.6695
 50.5576  7163.42  83.9867
 50.5996  7116.63  83.9914
 50.6416  7095.75  83.7961
 50.6836  7122.61  84.0176
 50.7256  7179.52  84.2724
 50.7676  7206.11  84.7435
 50.8096  7102.15  83.6694
 50.8516  7134.7  84.2918
 50.8936  7008.19  83.3216
 50.9356  7060.44  83.732
 50.9776  7144.09  84.3945
 51.0196  6932.21  83.2563
 51.0616  6982.69  82.8722
 51.1036  7102.12  83.9441
 51.1456  7093.05  83.7971
 51.1876  7010.52  82.6432
 51.2296  7037.88  83.4529
 51.2716  6863.16  82.1144
 51.3136  6980.82  83.2808
 51.3556  6836.69  82.0366
 51.3976  6953.31  82.8857
 51.4396  6832.65  82.4762
 51.4816  6859.63  82.4928
 51.5236  6917.41  82.9166
 51.5656  6871.88  82.2474
 51.6076  6864.91  82.2856
 51.6496  6804.8  82.1183
 51.6916  6941.98  83.3024
 51.7336  6819.5  82.6609
 51.7756  6967.41  83.2339
 51.8176  6662.87  81.5113
 51.8596  6822.86  82.4987
 51.9016  7079.06  83.6312
 51.9436  6986.14  84.5899
 51.9856  6950.84  84.7897
 52.0276  7016.68  83.6677
 52.0696  6985.1  83.5537
 52.1116  6855  82.8925
 52.1536  7064.3  84.0273
 52.1956  6874  82.351
 52.2376  7105.27  83.8881
 52.2796  6999.5  83.0916
 52.3216  6838.47  82.8196
 52.3636  6935.82  82.9566
 52.4056  6981.97  83.1095
 52.4476  6889.54  82.9252
 52.4896  6768.25  82.2397
 52.5316  6903.53  83.1047
 52.5736  6821.68  82.3245
 52.6156  6923.52  83.3438
 52.6576  6875.89  82.4804
 52.6996  6631.75  81.989
 52.7416  6719.58  82.3788
 52.7836  6868.55  83.1825
 52.8256  6918.26  82.6831
 52.8676  6679.59  81.8138
 52.9096  6885.01  83.136
 52.9516  6858.15  83.3619
 52.9936  6832.02  83.586
 53.0356  6814.57  82.4516
 53.0776  6780.7  82.5327
 53.1196  6728.36  82.3337
 53.1616  6888.97  83.3488
 53.2036  6750.2  82.4809
 53.2456  6861.4  83.2652
 53.2876  6855.17  82.9102
 53.3296  6823.57  83.048
 53.3716  6962.49  83.6369
 53.4136  6872.05  83.2445
 53.4556  6844.54  83.1062
 53.4976  6644.59  81.7152
 53.5396  6791.02  83.0146
 53.5816  6839.01  82.9502
 53.6236  6737.42  82.6841
 53.6656  6775.07  82.4954
 53.7076  6776.84  82.4513
 53.7496  6866.41  83.1669
 53.7916  6856.87  83.221
 53.8336  6763.37  82.5603
 53.8756  6661.37  82.473
 53.9176  6691.28  82.0136
 53.9596  6585.44  82.1264
 54.0016  6548.68  81.2216
 54.0436  6422.07  80.6556
 54.0856  6610.41  81.2543
 54.1276  6592.94  81.3504
 54.1696  6554.05  81.266
 54.2116  6684.78  81.8155
 54.2536  6567.19  80.9107
 54.2956  6579.54  81.0356
 54.3376  6510.71  81.1091
 54.3796  6508.55  80.9901
 54.4216  6531.07  81.1872
 54.4636  6525.32  81.0865
 54.5056  6617.88  81.494
 54.5476  6418.99  80.5691
 54.5896  6578.94  81.4242
 54.6316  6579.34  81.272
 54.6736  6583.98  81.3743
 54.7156  6471.22  80.7171
 54.7576  6355.97  79.9706
 54.7996  6498.05  80.9978
 54.8416  6460.51  80.8316
 54.8836  6517.8  81.2596
 54.9256  6350.26  79.9939
 54.9676  6374.17  80.0025
 55.0096  6365.93  79.9714
 55.0516  6378.09  80.3033
 55.0936  6481.56  80.6138
 55.1356  6337.58  79.7418
 55.1776  6497.28  80.9894
 55.2196  6491.63  80.7391
 55.2616  6552.45  81.359
 55.3036  6415.77  80.6685
 55.3456  6263.18  79.8468
 55.3876  6341.6  80.0673
 55.4296  6267.94  79.6027
 55.4716  6352.89  80.1548
 55.5136  6289.15  79.5101
 55.5556  6471.31  80.7321
 55.5976  6244.58  79.3508
 55.6396  6411  80.3716
 55.6816  6347.16  79.8274
 55.7236  6301.78  79.6093
 55.7656  6410.33  79.995
 55.8076  6212.03  78.7708
 55.8496  6291.13  79.5843
 55.8916  6256.09  79.5632
 55.9336  6363.68  80.0709
 55.9756  6303  79.5701
 56.0176  6262.6  79.4504
 56.0596  6259.33  79.415
 56.1016  6249.99  79.4015
 56.1436  6179.47  79.1902
 56.1856  6119.1  78.5602
 56.2276  6425.63  80.5473
 56.2696  6221.08  79.2378
 56.3116  6385.21  80.6431
 56.3536  6290.28  79.7091
 56.3956  6233.71  79.3399
 56.4376  6205.9  79.2175
 56.4796  6168.07  78.7961
 56.5216  6240.23  79.6268
 56.5636  6185.45  78.8374
 56.6056  6333.15  80.0102
 56.6476  6259.3  79.1709
 56.6896  6359.19  80.2417
 56.7316  6263.79  79.547
 56.7736  6232.1  79.3647
 56.8156  6131.75  78.7256
 56.8576  6045.74  78.1254
 56.8996  6222.26  79.1462
 56.9416  6128.35  78.8693
 56.9836  6246.54  79.145
 57.0256  6148.93  78.8475
 57.0676  6279.85  79.7762
 57.1096  6170.82  78.9019
 57.1516  6128.07  78.6752
 57.1936  6135.06  78.4675
 57.2356  6048.09  78.2425
 57.2776  6218.69  79.3062
 57.3196  6253.4  79.8791
 57.3616  6185.13  78.9391
 57.4036  6191.47  79.0293
 57.4456  6309.44  79.7575
 57.4876  6120.93  78.4187
 57.5296  6145.82  78.9112
 57.5716  6102.99  78.6424
 57.6136  5982.82  77.695
 57.6556  6145.1  78.8739
 57.6976  6208.38  79.1195
 57.7396  6103.03  78.7877
 57.7816  6017.3  78.5983
 57.8236  5979.46  78.1297
 57.8656  6108.66  78.6395
 57.9076  6082.3  78.491
 57.9496  5980.01  78.1816
 57.9916  6130.56  78.6765
 58.0336  6065.67  78.534
 58.0756  6176.8  78.8836
 58.1176  6028.84  77.9392
 58.1596  6025.72  78.4949
 58.2016  5850.82  76.5846
 58.2436  5880.97  77.1843
 58.2856  5750.73  76.2448
 58.3276  5770.72  76.7396
 58.3696  5779.96  76.5566
 58.4116  5886.5  77.1288
 58.4536  5921.82  77.2408
 58.4956  5827.58  76.8079
 58.5376  5917.09  76.9723
 58.5796  5825.76  76.7945
 58.6216  5848.75  76.7656
 58.6636  5848.86  76.9757
 58.7056  5867.49  76.9534
 58.7476  5774.11  76.7718
 58.7896  5769.38  76.3928
 58.8316  5967.61  77.6879
 58.8736  5892.58  77.2102
 58.9156  5809.82  76.7064
 58.9576  5804.32  76.9929
 58.9996  5775.41  76.0598
 59.0416  5859.75  76.9748
 59.0836  5874.26  76.9822
 59.1256  5765.6  76.9568
 59.1676  5764.15  77.2501
 59.2096  5803.51  76.8436
 59.2516  5812.39  76.4914
 59.2936  5849.5  77.0581
 59.3356  5814.44  76.7069
 59.3776  5693.93  76.0719
 59.4196  5667.13  75.8311
 59.4616  5674.25  75.7424
 59.5036  5737.21  76.1957
 59.5456  5896.14  76.9412
 59.5876  5812.79  76.5829
 59.6296  5620.42  75.3718
 59.6716  5803.78  76.6482
 59.7136  5879.64  77.1359
 59.7556  5802.05  76.759
 59.7976  5794.84  76.4587
 59.8396  5903.02  77.0646
 59.8816  5742.36  76.5403
 59.9236  5850.74  76.9087
 59.9656  5805.49  76.8664
 60.0076  5777.5  76.0521
 60.0496  5781.79  76.5736
 60.0916  5780.1  75.9929
 60.1336  5706.34  76.5829
 60.1756  5696.3  77.6657
 60.1996  0.0000000E+00  0.0000000E+00