File: docs/examples/opeando_xrd/IS17_D/Data/IS17_D/17_Da_f00050.xye
# /beamlines/bl04/projects/cycle2025-II/20250340211-lsimonelli/DATA/IS17_D/17_Da_f00050.xye : mythproc.py merge -s 0.006 -l 0.5 -f /beamlines/bl04/inhouse/ff/FlatField/ff_20Nov2024rod8mm60s_17keV.raw -b True -c true -o xye /beamlines/bl04/projects/cycle2025-II/20250340211-lsimonelli/DATA/IS17_D/17_Da_00050.dat
# IsMon = [6762006, 6766016, 6767393]  IsPos = [-1.5000, -2.4884, -3.4986]
# Wave = 0.4962  CalPath /beamlines/bl04/projects/cycle2025-II/20250340211-lsimonelli/DATA/Align/Si_Pos1_25keV_f00001.cal
# Date = 2025-09-24_07:29:20 Dt = 4.8000  Bin = 0.0060  <imon> = 6765138 +/- 2285 (Min/Max) 6762006 / 6767393
# icurr 250.3787  mocoIn 1.7085E-05  mocoOut 0.8015  i15 7.08374e+06  imon 6.76514e+06  i7 8.6667  iEMpd_timer 4.8000  iEMpd_1 3.5293E-08  iEMpd_2 7.8344E-08  iEMpd_3 1.6994E-08  iEMpd_4 4.8318E-08  iEMhp_timer 4.8000  iEMhp_1 4.8920E-06  iEMhp_2 -2.4880E-08  iEMhp_3 -2.3991E-08  iEMhp_4 -2.0929E-08
#      9776
 1.5856  41060.2  208.12
 1.6276  48315.6  221.886
 1.6696  55095.1  236.107
 1.7116  63945.7  254.863
 1.7536  72858  270.885
 1.7956  77692.7  280.428
 1.8376  74078.8  274.262
 1.8796  62300.2  249.664
 1.9216  50751.7  226.237
 1.9636  43170.5  208.327
 2.0056  38612.4  195.764
 2.0476  36009.4  191.123
 2.0896  34786.1  186.747
 2.1316  33803.4  183.205
 2.1736  31924.9  179.454
 2.2156  32512.1  179.644
 2.2576  31636.5  177.843
 2.2996  30311.3  174.718
 2.3416  30697.3  174.422
 2.3836  30421.1  173.744
 2.4256  29457.2  171.526
 2.4676  28540.9  168.598
 2.5096  28775.3  169.344
 2.5516  28004.4  170.91
 2.5936  27816.5  166.893
 2.6356  27259.3  165.908
 2.6776  27307.1  164.921
 2.7196  26961.4  164.407
 2.7616  26813.2  163.724
 2.8036  26375.5  162.559
 2.8456  26569.3  163.782
 2.8876  26010.7  161.918
 2.9296  25662  160.964
 2.9716  25158.8  158.865
 3.0136  25056.9  158.611
 3.0556  25112.4  159.184
 3.0976  25047.9  157.904
 3.1396  24643.6  157.348
 3.1816  24435.4  156.615
 3.2236  24442.6  156.635
 3.2656  24425.8  155.6
 3.3076  24025.9  155.793
 3.3496  24514.4  156.285
 3.3916  24654.4  156.562
 3.4336  25266  159.078
 3.4756  25583.6  160
 3.5176  26199.1  161.699
 3.5596  26056.2  164.281
 3.6016  26405.9  162.387
 3.6436  25556.6  160.867
 3.6856  25001.8  157.398
 3.7276  24193.2  155.927
 3.7696  23826.9  154.736
 3.8116  23505.5  153.779
 3.8536  23584.9  153.971
 3.8956  23489.3  153.479
 3.9376  23421.7  153.544
 3.9796  23322.4  152.694
 4.0216  23361.8  151.85
 4.0636  23203.6  152.825
 4.1056  23436.1  153.217
 4.1476  23370.4  153.329
 4.1896  23609.8  153.963
 4.2316  23744.2  154.228
 4.2736  24326.7  155.891
 4.3156  24552.2  156.842
 4.3576  25214.9  158.874
 4.3996  25549.5  159.975
 4.4416  25937.8  160.979
 4.4836  26342.6  162.38
 4.5256  26699.7  164.105
 4.5676  27010.3  165.305
 4.6096  27288.8  165.165
 4.6516  27687.5  165.71
 4.6936  27975.4  167.381
 4.7356  28078.2  167.524
 4.7776  28027.9  167.198
 4.8196  27549.7  166.43
 4.8616  27098.2  164.534
 4.9036  26998.2  163.979
 4.9456  27050.7  164.79
 4.9876  26411.4  162.73
 5.0296  26784.5  163.687
 5.0716  26279.2  162.908
 5.1136  26648.8  163.77
 5.1556  27071.4  164.513
 5.1976  27246.9  165.053
 5.2396  27298.8  164.899
 5.2816  27334.8  165.478
 5.3236  27498.6  165.67
 5.3656  27012.8  165.123
 5.4076  26689.4  164.285
 5.4496  26887.7  164.369
 5.4916  26986.3  164.433
 5.5336  26901.9  164.178
 5.5756  26634.1  163.4
 5.6176  26903.2  163.649
 5.6596  27394.9  165.971
 5.7016  27280.6  165.039
 5.7436  27599.7  166.279
 5.7856  27264  165.32
 5.8276  27721.1  166.416
 5.8696  27677.5  166.359
 5.9116  27808.4  167.43
 5.9536  27928.1  167.579
 5.9956  28266.1  167.952
 6.0376  28308.6  168.713
 6.0796  28490.7  169.085
 6.1216  28636.9  169.716
 6.1636  28892.1  169.533
 6.2056  28798  169.92
 6.2476  28962.5  170.108
 6.2896  29332.2  171.043
 6.3316  29195.5  170.828
 6.3736  29270.8  170.933
 6.4156  29247.1  170.818
 6.4576  29798.3  171.965
 6.4996  29930.6  172.82
 6.5416  29842.6  172.715
 6.5836  29924.3  173.175
 6.6256  30023.7  173.03
 6.6676  30524.6  174.032
 6.7096  30248.8  174.106
 6.7516  30805.7  175.342
 6.7936  31107.8  175.372
 6.8356  31212.8  176.003
 6.8776  31509.4  177.641
 6.9196  31463.2  177.921
 6.9616  32028.1  178.944
 7.0036  32389.6  179.603
 7.0456  32350.1  178.78
 7.0876  32559.9  180.999
 7.1296  32467.5  179.943
 7.1716  32479.2  179.507
 7.2136  32071.2  178.155
 7.2556  32378.9  179.171
 7.2976  32383  179.686
 7.3396  32315.3  179.712
 7.3816  32021.8  179.113
 7.4236  32463.9  179.629
 7.4656  32702.6  179.771
 7.5076  33068.1  180.905
 7.5496  32784.6  180.665
 7.5916  32865.2  180.925
 7.6336  33184.1  181.697
 7.6756  33420.1  182.191
 7.7176  33671.7  183.191
 7.7596  33647.1  184.373
 7.8016  34085.2  187.787
 7.8436  34547.9  185.668
 7.8856  34828.5  186.027
 7.9276  35471.9  188.133
 7.9696  35549.8  188.658
 8.0116  36496.8  190.043
 8.0536  36454.6  189.82
 8.0956  36788.6  191.883
 8.1376  37061.2  192.055
 8.1796  37134.9  192.799
 8.2216  38065.4  193.919
 8.2636  38290.8  194.739
 8.3056  38206.1  195.307
 8.3476  38698.8  195.881
 8.3896  38485.8  195.871
 8.4316  38755.4  196.276
 8.4736  38830.7  195.925
 8.5156  38735.7  195.966
 8.5576  38098.1  195.338
 8.5996  38037.6  194.034
 8.6416  38022.4  195.273
 8.6836  37801.4  194.53
 8.7256  38484  195.719
 8.7676  37754.9  196.793
 8.8096  37651.1  193.832
 8.8516  37386.6  192.814
 8.8936  37079.9  191.849
 8.9356  37115.6  192.306
 8.9776  37379.6  193.073
 9.0196  36949.4  191.643
 9.0616  37137.8  191.601
 9.1036  36967.8  192.356
 9.1456  36883.4  191.463
 9.1876  36807.7  191.229
 9.2296  37101.3  191.378
 9.2716  36107.5  188.87
 9.3136  36392  189.597
 9.3556  36402.2  189.598
 9.3976  34825.7  185.991
 9.4396  35384.5  187.364
 9.4816  34962.2  186.106
 9.5236  34968.7  186.027
 9.5656  34792.3  185.884
 9.6076  34642.1  186.002
 9.6496  34735.2  186.188
 9.6916  34577.2  185.722
 9.7336  34360.7  184.929
 9.7756  34407.9  186.176
 9.8176  33591.8  183.606
 9.8596  33528.3  181.869
 9.9016  32916  180.194
 9.9436  32944.7  180.01
 9.9856  32698.6  179.727
 10.0276  32451.1  180.176
 10.0696  32790.1  180.136
 10.1116  31601.8  177.111
 10.1536  31323.4  176.006
 10.1956  31039.4  175.284
 10.2376  30468.7  173.183
 10.2796  30834.2  174.339
 10.3216  30737  174.175
 10.3636  30163.6  172.733
 10.4056  29899.1  172.368
 10.4476  29839.7  171.822
 10.4896  29871.5  171.369
 10.5316  29172.8  169.739
 10.5736  28847.2  169.514
 10.6156  28601  168.566
 10.6576  28899.1  167.999
 10.6996  28354.1  167.06
 10.7416  28047.2  166.399
 10.7836  28255.7  167.696
 10.8256  27814.4  166.812
 10.8676  27866.4  166.503
 10.9096  27580.3  165.689
 10.9516  27512.7  164.4
 10.9936  27466.6  164.474
 11.0356  27422.6  164.974
 11.0776  27044.1  163.15
 11.1196  26463.7  162.139
 11.1616  26494.6  161.915
 11.2036  26601.4  162.095
 11.2456  26378.4  162.118
 11.2876  26326.9  161.698
 11.3296  26120.5  160.954
 11.3716  26422.5  161.606
 11.4136  26163.5  161.673
 11.4556  26374.9  161.989
 11.4976  26652.7  161.812
 11.5396  27010  163.064
 11.5816  27428.2  164.781
 11.6236  27781.5  166.069
 11.6656  27375.3  163.999
 11.7076  26502.1  162.203
 11.7496  25869.5  164.2
 11.7916  25841.8  159.428
 11.8336  25544.2  159.395
 11.8756  25271.9  158.082
 11.9176  25394.3  158.369
 11.9596  25095  157.377
 12.0016  25031.5  157.972
 12.0436  25056.1  157.465
 12.0856  24759.3  157.061
 12.1276  24808.5  157.124
 12.1696  24727.4  156.005
 12.2116  25135.3  157.276
 12.2536  24363.4  155.658
 12.2956  24756.7  156.252
 12.3376  24416  155.398
 12.3796  24775.7  156.992
 12.4216  24717.3  156.023
 12.4636  24158.8  155.163
 12.5056  24357.7  155.071
 12.5476  24587.4  155.325
 12.5896  24585.4  155.954
 12.6316  24187.9  154.855
 12.6736  24518.7  156.238
 12.7156  24204.5  155.256
 12.7576  24399  156.116
 12.7996  24552.8  155.241
 12.8416  24530  156.234
 12.8836  24795.6  156.88
 12.9256  24951.5  156.391
 12.9676  25059.2  157.158
 13.0096  24819.9  157.534
 13.0516  25064.6  157.325
 13.0936  24950.4  157.083
 13.1356  25407.4  157.77
 13.1776  25252.7  158.299
 13.2196  25420.9  158.472
 13.2616  25151.3  157.937
 13.3036  25146  158.072
 13.3456  25192.7  158.398
 13.3876  25273.7  157.944
 13.4296  24919.1  156.98
 13.4716  25249.4  157.623
 13.5136  25131.1  157.399
 13.5556  25164.3  158.127
 13.5976  25137.2  158.202
 13.6396  25325.8  158.14
 13.6816  24782.6  156.815
 13.7236  25645.2  159.274
 13.7656  24944.7  157.638
 13.8076  25029  156.669
 13.8496  24671  156.333
 13.8916  24813.5  157.617
 13.9336  24820  156.844
 13.9756  24568.6  155.399
 14.0176  24516.3  155.917
 14.0596  24795.5  156.773
 14.1016  24277  155.522
 14.1436  24009.7  153.796
 14.1856  23844.9  153.557
 14.2276  23462.2  152.816
 14.2696  23724  153.498
 14.3116  23444.8  152.48
 14.3536  23279.5  152.134
 14.3956  23099.7  151.268
 14.4376  23412.3  152.062
 14.4796  23142.6  151.179
 14.5216  22714.3  150.58
 14.5636  22611.9  149.805
 14.6056  22746  149.818
 14.6476  22686  148.842
 14.6896  22475.5  148.697
 14.7316  22155.2  148.675
 14.7736  21795.1  146.605
 14.8156  21698.7  146.314
 14.8576  21784.5  146.453
 14.8996  21201.1  145.695
 14.9416  20742.9  144.111
 14.9836  21048.2  145.131
 15.0256  20999.8  143.849
 15.0676  20840.7  143.631
 15.1096  20628.1  142.631
 15.1516  20244.2  141.864
 15.1936  20311.9  141.517
 15.2356  19845.1  140.162
 15.2776  19774.1  139.49
 15.3196  19649  140.066
 15.3616  19554.6  139.478
 15.4036  19319.1  138.496
 15.4456  19621.2  138.987
 15.4876  19378.7  138.034
 15.5296  19039.2  137.11
 15.5716  19057  136.765
 15.6136  18764.7  136.046
 15.6556  18718.2  135.109
 15.6976  18688.8  135.297
 15.7396  18554.9  135.207
 15.7816  18314.5  133.836
 15.8236  18166.5  133.995
 15.8656  18407  134.67
 15.9076  17785.2  132.202
 15.9496  17960.1  135.679
 15.9916  17769.4  135.385
 16.0336  17571.6  131.531
 16.0756  17661.4  132.167
 16.1176  17611.9  131.891
 16.1596  17137.2  131.442
 16.2016  17531.7  131.671
 16.2436  17186.1  130.762
 16.2856  17081.2  129.904
 16.3276  16839.1  129.401
 16.3696  17226  130.689
 16.4116  16760.4  129.389
 16.4536  17094.1  130.439
 16.4956  16872.2  129.337
 16.5376  16871.5  129.515
 16.5796  16852.8  128.793
 16.6216  16728.1  128.626
 16.6636  16757.3  128.878
 16.7056  16713.7  128.591
 16.7476  16637.7  127.962
 16.7896  16687.9  128.772
 16.8316  16527.6  128.118
 16.8736  16564.2  128.524
 16.9156  16582.1  128.925
 16.9576  16456.2  129.244
 16.9996  16542.6  130.072
 17.0416  16556.3  128.466
 17.0836  16529.3  128.116
 17.1256  16366.9  127.505
 17.1676  16445.8  127.807
 17.2096  16205.4  126.741
 17.2516  16247.6  126.993
 17.2936  16065.7  126.309
 17.3356  15780.8  125.193
 17.3776  15865.5  125.709
 17.4196  15891.6  125.5
 17.4616  15594.8  124.246
 17.5036  15463.5  124.08
 17.5456  15293  124.045
 17.5876  15214.3  122.772
 17.6296  15407.3  123.353
 17.6716  15198.5  123.103
 17.7136  14984.4  122.378
 17.7556  15092.4  123.106
 17.7976  15031.9  122.601
 17.8396  14821.7  121.239
 17.8816  14913  122.15
 17.9236  14909.9  121.955
 17.9656  14819.4  122.112
 18.0076  14903.7  122.037
 18.0496  14763.1  120.596
 18.0916  14780.2  121.206
 18.1336  14650.5  120.771
 18.1756  14906  121.346
 18.2176  14566  120.183
 18.2596  14559.9  119.89
 18.3016  14723.7  120.819
 18.3436  14752.2  120.936
 18.3856  14375.8  119.525
 18.4276  14490  119.668
 18.4696  14464.1  119.654
 18.5116  14570.4  120.388
 18.5536  14531.7  120.582
 18.5956  14339.8  119.335
 18.6376  14257.9  119.401
 18.6796  14334.9  119.06
 18.7216  14377.9  119.71
 18.7636  14214.5  119.028
 18.8056  14216.5  118.971
 18.8476  14171.1  119.101
 18.8896  14098.2  118.434
 18.9316  14353.4  119.485
 18.9736  14345.7  119.146
 19.0156  14182.9  118.851
 19.0576  14139.1  117.564
 19.0996  14365.4  119.214
 19.1416  14127.8  118.618
 19.1836  14169.5  118.389
 19.2256  14104.4  118.323
 19.2676  14110.9  118.454
 19.3096  14287.3  119.434
 19.3516  14119.1  118.519
 19.3936  14173.7  118.882
 19.4356  14060.7  118.219
 19.4776  14113.4  118.535
 19.5196  13987  117.854
 19.5616  14088.6  118.54
 19.6036  14205.2  118.382
 19.6456  13925.4  117.469
 19.6876  14133.7  117.985
 19.7296  14049.2  118.095
 19.7716  13904.1  117.638
 19.8136  14096.3  118.668
 19.8556  14416.8  119.477
 19.8976  14076.3  118.123
 19.9396  14269  118.504
 19.9816  14472.3  119.584
 20.0236  14550.8  120.13
 20.0656  14919.2  121.629
 20.1076  14918.1  122.118
 20.1496  15037.6  122.604
 20.1916  15164.3  122.571
 20.2336  14862  121.317
 20.2756  14675.6  120.997
 20.3176  14380.8  119.516
 20.3596  14280.3  119.071
 20.4016  14138.5  118.278
 20.4436  14131.5  118.81
 20.4856  13723.2  116.889
 20.5276  13798.5  117.664
 20.5696  13708  116.836
 20.6116  13710.8  117.023
 20.6536  13537.3  115.793
 20.6956  13719.3  116.686
 20.7376  13549.5  116.19
 20.7796  13538.2  115.831
 20.8216  13661.4  116.06
 20.8636  13444.3  115.508
 20.9056  13437.4  115.426
 20.9476  13228.3  114.371
 20.9896  13688.5  116.203
 21.0316  13494.5  115.267
 21.0736  13280.6  114.875
 21.1156  13442.8  115.731
 21.1576  13354.8  115.407
 21.1996  13355.5  115.389
 21.2416  13260.3  114.812
 21.2836  13357.7  115.19
 21.3256  13223.6  114.704
 21.3676  13285.6  114.506
 21.4096  13206.6  114.534
 21.4516  13182  114.253
 21.4936  13061.4  113.968
 21.5356  13305  114.983
 21.5776  13224.4  114.466
 21.6196  13081.5  113.879
 21.6616  13058.1  113.871
 21.7036  13038.2  113.564
 21.7456  13063  113.745
 21.7876  12936.7  112.941
 21.8296  13085.5  113.444
 21.8716  13037.5  113.474
 21.9136  13185.8  114.319
 21.9556  13021.3  113.275
 21.9976  12834.8  112.469
 22.0396  12853.3  112.815
 22.0816  12920.7  113.647
 22.1236  13113.9  113.942
 22.1656  13077  113.907
 22.2076  12983.5  112.96
 22.2496  12949.8  112.842
 22.2916  13072.2  113.251
 22.3336  12776.3  112.694
 22.3756  12989.1  113.345
 22.4176  12782  112.291
 22.4596  12793.3  112.928
 22.5016  12825  112.559
 22.5436  12866.3  112.625
 22.5856  12826.9  112.701
 22.6276  12836.3  112.885
 22.6696  13045.3  114.156
 22.7116  12724.7  112.254
 22.7536  12824.4  112.668
 22.7956  12964.9  112.608
 22.8376  12820.9  112.506
 22.8796  12676.3  111.669
 22.9216  12922.4  113.3
 22.9636  12854.8  112.148
 23.0056  12747.7  111.815
 23.0476  12854.8  112.861
 23.0896  13037.7  113.029
 23.1316  13100.8  113.745
 23.1736  12898.7  115.857
 23.2156  13075.3  113.871
 23.2576  12961.8  113.615
 23.2996  13080.5  113.914
 23.3416  12920  113.754
 23.3836  13043.7  113.475
 23.4256  13023.6  113.543
 23.4676  12928.7  112.814
 23.5096  12874.5  113.264
 23.5516  12846.5  112.417
 23.5936  12860.8  113.389
 23.6356  12956.1  113.476
 23.6776  12776  113.235
 23.7196  12584.2  111.844
 23.7616  12873.4  112.804
 23.8036  12757  112.346
 23.8456  12805.5  112.115
 23.8876  12476  111.026
 23.9296  12448.2  111.387
 23.9716  12708.4  111.729
 24.0136  12770.8  112.927
 24.0556  12372.4  110.873
 24.0976  12389.9  110.764
 24.1396  12455  113.706
 24.1816  12499.3  112.337
 24.2236  12388.3  111.445
 24.2656  12167.6  109.919
 24.3076  12237.1  110.488
 24.3496  12265.4  110.498
 24.3916  12010.2  109.398
 24.4336  12079.9  109.923
 24.4756  12089.8  109.833
 24.5176  12071.4  109.398
 24.5596  11925.1  109.064
 24.6016  11661.3  107.936
 24.6436  11868.1  108.373
 24.6856  11866.5  108.13
 24.7276  11681.9  107.599
 24.7696  11685.7  107.733
 24.8116  11745  108.188
 24.8536  11492.7  107.009
 24.8956  11730  107.848
 24.9376  11619.7  107.528
 24.9796  11540  107.268
 25.0216  11310.9  106.313
 25.0636  11427  106.505
 25.1056  11447.6  107.311
 25.1476  11496.1  109.212
 25.1896  11539.8  107.877
 25.2316  11381.2  106.285
 25.2736  11373.2  106.013
 25.3156  11360.7  106.035
 25.3576  11389.9  106.596
 25.3996  11423.3  106.738
 25.4416  11293.8  106.104
 25.4836  11204.2  106.216
 25.5256  11329.8  106.165
 25.5676  11269.3  105.605
 25.6096  11052.6  105.163
 25.6516  11291  105.785
 25.6936  11099.5  105.204
 25.7356  11114.1  105.404
 25.7776  11324  106.066
 25.8196  11059.4  104.989
 25.8616  11131.7  105.245
 25.9036  11238.4  105.216
 25.9456  11153.4  105.418
 25.9876  11064.2  104.925
 26.0296  11070  104.596
 26.0716  11004.1  104.716
 26.1136  11141.7  105.306
 26.1556  11139.8  104.576
 26.1976  10907.5  104.496
 26.2396  11053.4  104.337
 26.2816  10972.8  104.577
 26.3236  11026.7  104.907
 26.3656  10920.3  104.215
 26.4076  11055.7  105.066
 26.4496  11544.1  106.857
 26.4916  11165.7  105.074
 26.5336  10929.7  104.284
 26.5756  11190.2  105.39
 26.6176  11016.4  104.605
 26.6596  10948.8  104.599
 26.7016  10905.8  104.188
 26.7436  10891  104.215
 26.7856  10833.8  103.913
 26.8276  10867.6  104.039
 26.8696  10844.3  103.798
 26.9116  10777.8  103.421
 26.9536  10776.6  103.451
 26.9956  10775.5  103.485
 27.0376  10667.3  103.186
 27.0796  10799.9  103.535
 27.1216  10619  102.761
 27.1636  10527.2  102.48
 27.2056  10566.6  102.55
 27.2476  10649.4  102.953
 27.2896  10551.4  102.516
 27.3316  10445.6  101.785
 27.3736  10510.2  102.365
 27.4156  10519.4  102.26
 27.4576  10487  102.329
 27.4996  10518.4  102.076
 27.5416  10455.3  102.087
 27.5836  10487.6  102.061
 27.6256  10673.1  103.109
 27.6676  10642.8  102.994
 27.7096  10371.6  101.547
 27.7516  10332.6  101.503
 27.7936  10239.7  101.225
 27.8356  10278.5  101.021
 27.8776  10291  101.14
 27.9196  10260.9  100.834
 27.9616  10332.4  101.381
 28.0036  10280.5  101.105
 28.0456  10256.2  101.104
 28.0876  10214.9  100.996
 28.1296  10169.7  100.615
 28.1716  10094  100.253
 28.2136  10229  100.883
 28.2556  10085.3  100.29
 28.2976  10117.9  100.44
 28.3396  10148.1  100.342
 28.3816  10047.3  99.864
 28.4236  10202.5  100.787
 28.4656  10042  100.027
 28.5076  10060  99.7454
 28.5496  10173.6  100.583
 28.5916  10083.8  99.9444
 28.6336  9961.46  99.6825
 28.6756  10135.3  99.7371
 28.7176  10022.9  99.7323
 28.7596  9981.68  99.4262
 28.8016  10024.8  99.7559
 28.8436  9912.35  99.355
 28.8856  9936.36  99.3296
 28.9276  10029  100.038
 28.9696  9994.81  99.5232
 29.0116  9825.06  98.8453
 29.0536  9798.04  98.9202
 29.0956  9917.1  99.2406
 29.1376  9809.87  98.6652
 29.1796  9793.43  98.6278
 29.2216  9946.22  99.2309
 29.2636  9814.46  98.6536
 29.3056  9783.51  98.285
 29.3476  9830.52  99.0477
 29.3896  9942.27  99.7024
 29.4316  9968.38  99.1584
 29.4736  9853.54  98.6469
 29.5156  10027.3  99.4311
 29.5576  9785.48  98.9711
 29.5996  9912.63  98.8634
 29.6416  9756.53  98.1965
 29.6836  9884.49  98.7648
 29.7256  9750.18  98.6626
 29.7676  9720.91  98.1722
 29.8096  9822.95  98.6322
 29.8516  9664.38  98.1657
 29.8936  9671.91  98.3001
 29.9356  9851.86  98.9613
 29.9776  9613.95  97.9109
 30.0196  9691.93  97.6856
 30.0616  9705.24  98.1376
 30.1036  9716.12  98.019
 30.1456  9708.8  98.2373
 30.1876  9579.5  97.5354
 30.2296  9645.01  97.815
 30.2716  9825.53  98.3606
 30.3136  9732.27  98.4944
 30.3556  9623.75  98.226
 30.3976  9560.45  99.4267
 30.4396  9688.33  97.4163
 30.4816  9871.33  97.9163
 30.5236  9628.58  96.7376
 30.5656  9578.08  97.125
 30.6076  9660.34  97.3118
 30.6496  9705.79  97.588
 30.6916  9508.07  96.6742
 30.7336  9467.09  96.6239
 30.7756  9620.8  97.7165
 30.8176  9599.74  97.3072
 30.8596  9554.73  96.8422
 30.9016  9630.93  97.107
 30.9436  9718.7  97.7688
 30.9856  9626.87  97.4198
 31.0276  9548.12  96.6207
 31.0696  9465.11  96.6521
 31.1116  9461.31  96.7379
 31.1536  9442.61  96.5201
 31.1956  9478.7  96.7969
 31.2376  9448.43  96.6476
 31.2796  9546.05  96.681
 31.3216  9474.34  96.2611
 31.3636  9527.25  97.226
 31.4056  9457.62  98.191
 31.4476  9444.01  96.0055
 31.4896  9246.34  95.4985
 31.5316  9499.34  96.185
 31.5736  9462.77  95.8259
 31.6156  9353.67  95.2887
 31.6576  9460.96  95.9322
 31.6996  9509.35  95.8439
 31.7416  9222.66  95.3164
 31.7836  9389.24  95.3143
 31.8256  9274.49  95.0007
 31.8676  9466.68  95.9769
 31.9096  9230.4  94.982
 31.9516  9208.36  95.1739
 31.9936  9245.44  95.1866
 32.0356  9278.62  95.4304
 32.0776  9305.48  95.4514
 32.1196  9286.6  95.3576
 32.1616  9240.82  94.6678
 32.2036  9052.35  94.2066
 32.2456  9326.87  96.0082
 32.2876  9307.89  95.4014
 32.3296  9135.22  94.4773
 32.3716  9215.4  94.9875
 32.4136  9183.92  95.0409
 32.4556  9449.95  95.7696
 32.4976  9195.93  94.4277
 32.5396  9272.83  94.8532
 32.5816  9163.86  94.3084
 32.6236  9168.65  94.5103
 32.6656  9258.85  95.5203
 32.7076  9096.95  94.3347
 32.7496  9037.17  93.6926
 32.7916  9141.88  94.196
 32.8336  9152.58  94.3443
 32.8756  9058.45  93.6728
 32.9176  9038.82  93.9627
 32.9596  9098.74  94.3434
 33.0016  8983.48  93.5441
 33.0436  9196.41  94.8147
 33.0856  9216.45  94.9955
 33.1276  9071.48  93.9744
 33.1696  9087.98  93.9046
 33.2116  9037.44  93.8686
 33.2536  9126.4  94.3354
 33.2956  9108.91  94.3169
 33.3376  8918.21  93.1257
 33.3796  9080.87  94.124
 33.4216  9158.91  94.1189
 33.4636  9044.9  93.6814
 33.5056  9067.35  93.8682
 33.5476  8900.56  93.1665
 33.5896  8986.64  93.3791
 33.6316  8975.29  93.6492
 33.6736  8859.16  93.2771
 33.7156  8855.01  93.3019
 33.7576  8940.62  93.3777
 33.7996  9046.84  93.6933
 33.8416  8849.06  92.8447
 33.8836  8978.07  93.2963
 33.9256  8801.36  92.4408
 33.9676  9023.82  93.4962
 34.0096  8849.81  92.909
 34.0516  8799.3  92.2768
 34.0936  8848.97  92.8039
 34.1356  8899.47  92.8054
 34.1776  8805.69  92.3211
 34.2196  8846.22  92.7226
 34.2616  8823.01  92.7962
 34.3036  8786.18  92.798
 34.3456  8785.31  92.5372
 34.3876  8817.57  92.7664
 34.4296  8781.24  92.1738
 34.4716  8870.3  92.7836
 34.5136  8837.47  92.8195
 34.5556  8693.73  92.3182
 34.5976  8786.56  92.6471
 34.6396  8760.2  92.1836
 34.6816  8675.19  91.8526
 34.7236  8789.5  92.2337
 34.7656  8706.4  91.9945
 34.8076  8610.94  91.8139
 34.8496  8771.96  92.5179
 34.8916  8773.48  92.4038
 34.9336  8715.56  92.0597
 34.9756  8739.84  92.1375
 35.0176  8819.99  93.0672
 35.0596  8588.84  91.6627
 35.1016  8625.47  91.6217
 35.1436  8847.46  92.4729
 35.1856  8705.78  91.8634
 35.2276  8646.46  91.7192
 35.2696  8763.97  92.5408
 35.3116  8700.32  92.2955
 35.3536  8641.34  91.7297
 35.3956  8622.68  91.3003
 35.4376  8604.97  91.7613
 35.4796  8577.51  91.6782
 35.5216  8516.21  91.2362
 35.5636  8433.14  91.6071
 35.6056  8605.62  91.5481
 35.6476  8651.59  91.6881
 35.6896  8601.52  91.5096
 35.7316  8458.24  90.7193
 35.7736  8512.45  91.2073
 35.8156  8541.05  91.3647
 35.8576  8614.31  91.9942
 35.8996  8679.67  92.3068
 35.9416  8870.38  92.7776
 35.9836  8574.96  91.7051
 36.0256  8563.22  91.5725
 36.0676  8543.16  91.2199
 36.1096  8447.1  90.8424
 36.1516  8528.81  91.1683
 36.1936  8409.35  90.3799
 36.2356  8503.71  91.5278
 36.2776  8484.26  90.8906
 36.3196  8410.91  90.1765
 36.3616  8495.5  90.7614
 36.4036  8506.36  90.8754
 36.4456  8408.75  90.5624
 36.4876  8323.68  90.0467
 36.5296  8550.94  91.3037
 36.5716  8411.28  91.3455
 36.6136  8541.64  90.7986
 36.6556  8573.7  91.1707
 36.6976  8511.01  91.3425
 36.7396  8483.6  91.0166
 36.7816  8542.75  91.6213
 36.8236  8360.69  90.5548
 36.8656  8435.85  91.0463
 36.9076  8317.83  90.281
 36.9496  8322.73  90.4483
 36.9916  8391.92  90.2914
 37.0336  8502.81  91.2081
 37.0756  8425.17  90.5819
 37.1176  8248.2  89.9857
 37.1596  8322.55  90.3052
 37.2016  8385.18  90.8735
 37.2436  8307.37  89.7648
 37.2856  8384.1  90.4315
 37.3276  8401.23  89.8715
 37.3696  8332.34  90.3981
 37.4116  8373.32  90.5206
 37.4536  8229.88  89.6112
 37.4956  8132.54  89.1209
 37.5376  8191.75  91.0293
 37.5796  8199.1  91.0073
 37.6216  8149.55  89.0018
 37.6636  8077.81  88.5126
 37.7056  8195.12  89.3402
 37.7476  8285.85  89.3718
 37.7896  8225.05  89.5359
 37.8316  8145.65  89.2872
 37.8736  8208.76  89.1435
 37.9156  8234.35  89.2874
 37.9576  8313.28  89.7442
 37.9996  8045.57  87.8563
 38.0416  7970.4  88.2612
 38.0836  8333.39  90.1552
 38.1256  8173.38  89.2456
 38.1676  8190.52  89.4693
 38.2096  8110.99  88.665
 38.2516  8204.3  89.2694
 38.2936  8135.21  88.799
 38.3356  8202.85  89.0735
 38.3776  8042.05  88.4759
 38.4196  8193.02  89.1496
 38.4616  8172.96  89.2863
 38.5036  8245.5  89.5205
 38.5456  7980.54  88.9041
 38.5876  8211.95  90.2125
 38.6296  8080.41  88.4646
 38.6716  7956.98  87.5731
 38.7136  8128.99  88.4633
 38.7556  7973.04  88.1157
 38.7976  8087.02  88.6819
 38.8396  8001.61  88.6651
 38.8816  7911.77  87.9482
 38.9236  7960.46  88.0285
 38.9656  8005.91  88.1905
 39.0076  7963.99  87.3665
 39.0496  8140.88  88.8845
 39.0916  8109  88.3461
 39.1336  8045.55  88.41
 39.1756  7954.67  87.9849
 39.2176  7948.61  88.4814
 39.2596  7967.99  88.5117
 39.3016  7960.68  88.051
 39.3436  7809.72  87.6255
 39.3856  7929.14  87.7434
 39.4276  8028.48  88.7945
 39.4696  7898.57  87.6951
 39.5116  7928.86  88.3769
 39.5536  8108.95  89.8001
 39.5956  8137.31  89.0422
 39.6376  7991.44  88.0846
 39.6796  8013.45  88.1033
 39.7216  8045.2  88.3781
 39.7636  8052.89  88.9974
 39.8056  8105.02  89.0597
 39.8476  7965.14  88.5465
 39.8896  7981.25  88.2681
 39.9316  7909  88.1165
 39.9736  8111.9  88.8027
 40.0156  8022.8  88.1371
 40.0576  8061.07  88.705
 40.0996  8021.19  87.6726
 40.1416  8025.88  88.4907
 40.1836  8104.42  88.8123
 40.2256  8065.63  88.6487
 40.2676  8025.69  88.5991
 40.3096  8248.3  89.675
 40.3516  8199.74  89.6196
 40.3936  8188.12  89.0142
 40.4356  8186.7  89.2012
 40.4776  8163.38  89.3333
 40.5196  8118.58  89.3752
 40.5616  8072.98  88.7697
 40.6036  8096.15  89.1472
 40.6456  8149.58  89.0427
 40.6876  8172.39  89.156
 40.7296  8137.05  89.0985
 40.7716  8084.73  88.9393
 40.8136  7984.78  88.3355
 40.8556  8141.96  89.3396
 40.8976  8176.95  89.4447
 40.9396  7931.24  88.449
 40.9816  8138.06  88.8667
 41.0236  8097.55  88.4218
 41.0656  8197.91  89.5188
 41.1076  8180.11  89.1822
 41.1496  8110.84  88.7199
 41.1916  8114.13  89.0615
 41.2336  8034.14  88.6141
 41.2756  8176.44  88.9929
 41.3176  8017.8  88.7469
 41.3596  8104.39  88.9437
 41.4016  8035.22  88.828
 41.4436  8100.73  88.9727
 41.4856  8161.94  89.4747
 41.5276  7975.88  88.4691
 41.5696  8048.55  88.4981
 41.6116  8044.11  88.8774
 41.6536  8069.09  88.8696
 41.6956  8153.24  89.3114
 41.7376  8017.82  88.6677
 41.7796  7981.96  88.3506
 41.8216  8073.78  89.0981
 41.8636  8142.9  89.4142
 41.9056  7853.36  87.6062
 41.9476  8042.14  88.8871
 41.9896  8048.97  88.5863
 42.0316  8083.72  88.8567
 42.0736  8121.04  89.2061
 42.1156  7943.44  88.0347
 42.1576  8054.61  88.746
 42.1996  7958.78  88.3618
 42.2416  8064.98  88.5225
 42.2836  7886.6  87.657
 42.3256  7875.8  87.7092
 42.3676  7961.41  87.9952
 42.4096  8062.74  88.5075
 42.4516  8000.76  88.2635
 42.4936  7892.48  87.7278
 42.5356  7926.87  88.0493
 42.5776  8098.89  88.9373
 42.6196  7913.87  87.8881
 42.6616  7882.63  87.9717
 42.7036  7977.36  87.878
 42.7456  7981.49  88.2628
 42.7876  7915.21  87.997
 42.8296  7974.46  88.2211
 42.8716  7909.91  87.9579
 42.9136  7872.37  87.4905
 42.9556  8009.55  88.4284
 42.9976  7929.51  87.9453
 43.0396  7940.7  87.7407
 43.0816  7918.16  87.9889
 43.1236  7785.62  87.3155
 43.1656  7926.2  87.9274
 43.2076  7877.16  87.761
 43.2496  7906.18  87.7314
 43.2916  7837.18  87.719
 43.3336  7834.13  87.5384
 43.3756  7820.12  87.2181
 43.4176  7713.57  86.7007
 43.4596  7786.97  86.9674
 43.5016  7763.63  87.243
 43.5436  7892.57  87.8635
 43.5856  7733.02  86.9886
 43.6276  7751.44  86.9939
 43.6696  7761.5  87.3062
 43.7116  7809.26  87.0737
 43.7536  7845.52  87.7694
 43.7956  7851.26  89.0002
 43.8376  7804.38  87.2627
 43.8796  7660.35  86.5331
 43.9216  7842.19  87.4731
 43.9636  7780.5  87.2356
 44.0056  7675.85  86.8801
 44.0476  7663.55  86.4382
 44.0896  7632.12  86.6056
 44.1316  7728.62  86.6642
 44.1736  7782.49  87.0959
 44.2156  7788.33  86.9804
 44.2576  7736.38  87.0191
 44.2996  7753.42  87.0859
 44.3416  7774.35  86.9548
 44.3836  7681.21  86.76
 44.4256  7625.65  86.0967
 44.4676  7588.39  86.0455
 44.5096  7628.43  86.4162
 44.5516  7624.91  86.3532
 44.5936  7436.22  85.2381
 44.6356  7735.68  86.6718
 44.6776  7608.5  86.2767
 44.7196  7741.56  87.3025
 44.7616  7692.98  88.4132
 44.8036  7546.24  86.191
 44.8456  7656.93  86.8242
 44.8876  7529.45  85.9498
 44.9296  7553.54  85.5373
 44.9716  7574.12  86.0944
 45.0136  7595.87  86.1443
 45.0556  7666.56  86.6297
 45.0976  7385.79  85.0783
 45.1396  7502.83  85.5137
 45.1816  7522.1  85.3779
 45.2236  7621.16  86.0197
 45.2656  7521.68  85.9507
 45.3076  7529.06  85.7799
 45.3496  7435.68  85.5477
 45.3916  7448.52  85.8936
 45.4336  7508.65  86.0904
 45.4756  7407.92  85.3572
 45.5176  7487.63  85.4346
 45.5596  7562.55  85.9831
 45.6016  7401.96  85.4839
 45.6436  7472.34  85.0695
 45.6856  7313.21  84.8057
 45.7276  7305.92  86.568
 45.7696  7418.55  86.4011
 45.8116  7448.17  86.0168
 45.8536  7427.17  85.7902
 45.8956  7502.18  85.5719
 45.9376  7513.68  85.0969
 45.9796  7430.92  85.3117
 46.0216  7517.73  86.1567
 46.0636  7472.18  85.0351
 46.1056  7581.82  85.6442
 46.1476  7468.16  85.5946
 46.1896  7500.46  85.9276
 46.2316  7417.8  85.3217
 46.2736  7426.74  85.5854
 46.3156  7400.33  85.1786
 46.3576  7464.26  85.7491
 46.3996  7368.81  85.3561
 46.4416  7446.11  85.3537
 46.4836  7420.18  85.5911
 46.5256  7452.48  85.7136
 46.5676  7323.28  85.0764
 46.6096  7315.2  84.9728
 46.6516  7427.51  84.6549
 46.6936  7447.14  85.2607
 46.7356  7480.5  85.5672
 46.7776  7302.88  85.3735
 46.8196  7353.56  85.4087
 46.8616  7186.98  84.2347
 46.9036  7202.38  83.9935
 46.9456  7255.3  83.9343
 46.9876  7243.54  83.9516
 47.0296  7277.51  84.8376
 47.0716  7250.22  84.5017
 47.1136  7258.63  84.2333
 47.1556  7320.54  84.4605
 47.1976  7354.85  84.8052
 47.2396  7210.91  84.2975
 47.2816  7271.12  84.3494
 47.3236  7241.41  84.5435
 47.3656  7272.67  84.6545
 47.4076  7333.3  84.7381
 47.4496  7198.52  84.1155
 47.4916  7141.58  83.9726
 47.5336  7384.88  85.2084
 47.5756  7243.24  84.4644
 47.6176  7118.58  83.6644
 47.6596  7175.04  83.7177
 47.7016  7329.42  84.4366
 47.7436  7244.27  84.277
 47.7856  7303.84  84.6504
 47.8276  7164.21  83.8855
 47.8696  7161.02  83.9586
 47.9116  7249.51  84.1818
 47.9536  7122.03  83.3796
 47.9956  7124.58  84.1044
 48.0376  7083.24  83.6345
 48.0796  7192.79  84.4008
 48.1216  7307.51  84.8928
 48.1636  7331.16  84.6093
 48.2056  7249.72  84.3966
 48.2476  7290.26  84.9512
 48.2896  7069.14  83.5613
 48.3316  7079.54  83.5546
 48.3736  7061.6  83.4784
 48.4156  7136.66  83.7712
 48.4576  7088.65  83.782
 48.4996  7126.58  83.4586
 48.5416  7139.55  83.8655
 48.5836  7118.48  83.418
 48.6256  7274.52  84.542
 48.6676  7024.01  83.573
 48.7096  7037.31  82.9154
 48.7516  6983.26  82.7554
 48.7936  6993.89  82.8803
 48.8356  7023.28  83.1052
 48.8776  7039.28  83.7683
 48.9196  7208.49  84.1429
 48.9616  7001.1  83.2942
 49.0036  7042.35  83.8918
 49.0456  6989.94  83.5528
 49.0876  7067.9  83.5448
 49.1296  6882.1  82.6087
 49.1716  6871.07  82.4088
 49.2136  7030.99  83.2837
 49.2556  7029.51  83.3259
 49.2976  6980.55  83.0994
 49.3396  6943.36  82.9333
 49.3816  7095.29  83.2663
 49.4236  6997.84  83.1128
 49.4656  6926.15  82.7014
 49.5076  7033.78  83.0923
 49.5496  6946.97  82.5173
 49.5916  6999.67  82.868
 49.6336  6933.9  82.6885
 49.6756  6996.44  83.2976
 49.7176  6981.65  83.1376
 49.7596  6970.01  83.0243
 49.8016  6971.73  82.7719
 49.8436  6846.06  82.307
 49.8856  6983.69  83.1463
 49.9276  6878.24  82.6131
 49.9696  6926.51  82.8852
 50.0116  6892.02  82.813
 50.0536  6884.1  82.7077
 50.0956  6900.2  82.8752
 50.1376  6856.62  82.311
 50.1796  6866.65  82.6434
 50.2216  6930.68  83.0198
 50.2636  6845.72  82.1352
 50.3056  6755.8  81.7631
 50.3476  6898.03  82.6456
 50.3896  6870.67  82.448
 50.4316  6920.99  82.5863
 50.4736  6838.87  82.3138
 50.5156  6863.89  82.4442
 50.5576  6929.26  82.6049
 50.5996  6838.69  82.3416
 50.6416  6773.14  81.8793
 50.6836  6801.49  82.1001
 50.7256  6837.53  82.2542
 50.7676  6915.87  83.0468
 50.8096  6805.03  81.9107
 50.8516  6753.48  82.0121
 50.8936  6782.87  81.9671
 50.9356  6841.71  82.4328
 50.9776  6796.78  82.3107
 51.0196  6630.79  81.4182
 51.0616  6631.28  80.7609
 51.1036  6889.05  82.6661
 51.1456  6817.62  82.1558
 51.1876  6800.69  81.3967
 51.2296  6745.23  81.696
 51.2716  6832.39  81.916
 51.3136  6675.2  81.4336
 51.3556  6695.59  81.1796
 51.3976  6701.21  81.3653
 51.4396  6650.12  81.3599
 51.4816  6603.99  80.928
 51.5236  6690.39  81.5429
 51.5656  6642.62  80.8585
 51.6076  6716.8  81.3937
 51.6496  6714.1  81.5644
 51.6916  6569.92  81.0395
 51.7336  6704.08  81.9516
 51.7756  6560.59  80.7731
 51.8176  6622.02  81.2387
 51.8596  6617.91  81.2438
 51.9016  6757.02  81.7021
 51.9436  6641.98  82.454
 51.9856  6530.37  82.2013
 52.0276  6730.25  81.949
 52.0696  6632.21  81.4177
 52.1116  6713.49  82.0243
 52.1536  6691.87  81.7361
 52.1956  6612.49  80.7589
 52.2376  6861.88  82.4468
 52.2796  6631.67  80.8642
 52.3216  6528.94  80.9156
 52.3636  6588.24  80.869
 52.4056  6595.31  80.7604
 52.4476  6485.55  80.4581
 52.4896  6558.29  80.959
 52.5316  6591.66  81.2114
 52.5736  6661.38  81.3548
 52.6156  6539.76  80.9876
 52.6576  6640.76  81.0602
 52.6996  6408.78  80.5967
 52.7416  6566.87  81.4196
 52.7836  6542.39  81.1636
 52.8256  6522.94  80.2608
 52.8676  6485.64  80.6061
 52.9096  6595.44  81.3771
 52.9516  6654.59  82.1114
 52.9936  6442.74  81.1847
 53.0356  6575.98  81.0237
 53.0776  6425.96  80.3502
 53.1196  6386.4  80.2317
 53.1616  6479.97  80.8649
 53.2036  6384.76  80.2214
 53.2456  6322.04  79.9343
 53.2876  6505.17  80.7816
 53.3296  6507.69  81.1253
 53.3716  6456.22  80.5506
 53.4136  6336.25  79.9474
 53.4556  6347.22  80.0412
 53.4976  6447.4  80.5233
 53.5396  6421.54  80.7504
 53.5816  6335.55  79.8491
 53.6236  6341.63  80.2106
 53.6656  6352.54  79.9254
 53.7076  6437.42  80.4206
 53.7496  6351.95  80.0041
 53.7916  6382.85  80.3202
 53.8336  6347.04  79.9973
 53.8756  6193.9  79.5637
 53.9176  6402.27  80.2324
 53.9596  6405.32  81.0196
 54.0016  6373.74  80.1525
 54.0436  6346.28  80.1905
 54.0856  6471.76  80.4084
 54.1276  6447.83  80.4595
 54.1696  6430.02  80.5213
 54.2116  6347.69  79.765
 54.2536  6374.58  79.7462
 54.2956  6431.78  80.1456
 54.3376  6396.48  80.4109
 54.3796  6374.05  80.1715
 54.4216  6506.71  81.0495
 54.4636  6410.92  80.4051
 54.5056  6448.24  80.4657
 54.5476  6377.48  80.3522
 54.5896  6387.78  80.2414
 54.6316  6418.89  80.3026
 54.6736  6402.38  80.2752
 54.7156  6431.42  80.4795
 54.7576  6244.11  79.2939
 54.7996  6356.83  80.162
 54.8416  6371.12  80.2778
 54.8836  6294.93  79.9171
 54.9256  6375.48  80.1745
 54.9676  6379.66  80.0548
 55.0096  6433.35  80.4621
 55.0516  6446  80.7722
 55.0936  6363.37  79.8903
 55.1356  6294.09  79.494
 55.1776  6241.65  79.4262
 55.2196  6352.87  79.9136
 55.2616  6333.62  80.0103
 55.3036  6211.58  79.3906
 55.3456  6252.13  79.7884
 55.3876  6281.71  79.7279
 55.4296  6308.59  79.8726
 55.4716  6368.54  80.2911
 55.5136  6329.59  79.7969
 55.5556  6314.3  79.7758
 55.5976  6305.23  79.7755
 55.6396  6271.41  79.4308
 55.6816  6309.45  79.6273
 55.7236  6284.34  79.6133
 55.7656  6309.88  79.4288
 55.8076  6273.36  79.1748
 55.8496  6242.63  79.4231
 55.8916  6207.17  79.2826
 55.9336  6276.36  79.5479
 55.9756  6300.85  79.5889
 56.0176  6273.43  79.5665
 56.0596  6293.7  79.6698
 56.1016  6261.15  79.4811
 56.1436  6248.42  79.6636
 56.1856  6256.56  79.452
 56.2276  6349.4  80.1059
 56.2696  6180.12  78.9916
 56.3116  6204.18  79.5569
 56.3536  6294.71  79.7901
 56.3956  6202.61  79.1951
 56.4376  6269.9  79.6551
 56.4796  6444.63  80.5483
 56.5216  6071.36  78.564
 56.5636  6279.59  79.4814
 56.6056  6244.87  79.4961
 56.6476  6283.29  79.3658
 56.6896  6294.25  79.8859
 56.7316  6295.08  79.8023
 56.7736  6320.58  79.9503
 56.8156  6313.39  79.9142
 56.8576  6197.22  79.1092
 56.8996  6288.34  79.6244
 56.9416  6225.52  79.4204
 56.9836  6213.28  78.972
 57.0256  6176.91  79.0565
 57.0676  6230.66  79.5292
 57.1096  6200.92  79.1238
 57.1516  6281.76  79.7001
 57.1936  6308.37  79.6131
 57.2356  6245.25  79.5327
 57.2776  6219.49  79.3251
 57.3196  6292.47  80.166
 57.3616  6199.56  79.0639
 57.4036  6173.88  78.9607
 57.4456  6282.34  79.6199
 57.4876  6218.67  79.0744
 57.5296  6209.05  79.3448
 57.5716  6225.35  79.4407
 57.6136  6182.53  78.9892
 57.6556  6236.38  79.4655
 57.6976  6186.32  78.9781
 57.7396  6130.46  78.9864
 57.7816  6135.62  79.3827
 57.8236  6145.81  79.2433
 57.8656  6190.51  79.1829
 57.9076  6187.33  79.1944
 57.9496  6252.24  79.9647
 57.9916  6184.3  78.9891
 58.0336  6155.37  79.126
 58.0756  6247.32  79.3193
 58.1176  6224.93  79.2023
 58.1596  6103.81  78.9978
 58.2016  6248.9  79.1565
 58.2436  6170.36  79.0543
 58.2856  6288.05  79.7248
 58.3276  6128.03  79.0777
 58.3696  6226.08  79.4512
 58.4116  6221.7  79.2904
 58.4536  6280.87  79.551
 58.4956  6283.4  79.7485
 58.5376  6292.89  79.375
 58.5796  6208.32  79.2624
 58.6216  6233.27  79.2289
 58.6636  6256.14  79.5982
 58.7056  6277.28  79.5892
 58.7476  6157.33  79.2754
 58.7896  6068.7  78.3454
 58.8316  6086.15  78.4563
 58.8736  6319.98  79.9565
 58.9156  6222.54  79.3804
 58.9576  6210.36  79.5198
 58.9996  6380.18  79.9191
 59.0416  6310.17  79.8601
 59.0836  6220.12  79.2186
 59.1256  6170.42  79.292
 59.1676  6071.61  79.2739
 59.2096  6222.64  79.5536
 59.2516  6270.82  79.4342
 59.2936  6121.86  78.8153
 59.3356  6255.63  79.5474
 59.3776  6167.68  79.1569
 59.4196  6202.12  79.3124
 59.4616  6166.31  78.942
 59.5036  6197.36  79.1747
 59.5456  6420.45  80.2727
 59.5876  6350.41  80.0296
 59.6296  6194.75  79.1128
 59.6716  6249.77  79.5222
 59.7136  6340.55  80.0857
 59.7556  6171.79  79.1506
 59.7976  6273.08  79.5348
 59.8396  6296.08  79.5725
 59.8816  6245.61  79.8076
 59.9236  6426.83  80.5895
 59.9656  6229.39  79.6068
 60.0076  6243.47  79.0432
 60.0496  6287.83  79.8368
 60.0916  6494.17  80.5337
 60.1336  6185.47  79.7168
 60.1756  6070.65  80.1606
 60.1996  0.0000000E+00  0.0000000E+00