File: docs/examples/opeando_xrd/IS17_D/Data/IS17_D/17_Db_f00146.xye
# /beamlines/bl04/projects/cycle2025-II/20250340211-lsimonelli/DATA/IS17_D/17_Db_f00146.xye : mythproc.py merge -s 0.006 -l 0.5 -f /beamlines/bl04/inhouse/ff/FlatField/ff_20Nov2024rod8mm60s_17keV.raw -b True -c true -o xye /beamlines/bl04/projects/cycle2025-II/20250340211-lsimonelli/DATA/IS17_D/17_Db_00146.dat
# IsMon = [6770267, 6769231, 6771700]  IsPos = [-1.4999, -2.4883, -3.4989]
# Wave = 0.4962  CalPath /beamlines/bl04/projects/cycle2025-II/20250340211-lsimonelli/DATA/Align/Si_Pos1_25keV_f00001.cal
# Date = 2025-09-25_10:23:44 Dt = 4.8000  Bin = 0.0060  <imon> = 6770399 +/- 1012 (Min/Max) 6769231 / 6771700
# icurr 251.6540  mocoIn 1.7169E-05  mocoOut 0.8053  i15 7.09237e+06  imon 6.7704e+06  i7 5.3333  iEMpd_timer 4.8000  iEMpd_1 3.4232E-08  iEMpd_2 7.8850E-08  iEMpd_3 1.8062E-08  iEMpd_4 4.8405E-08  iEMhp_timer 4.8000  iEMhp_1 4.9168E-06  iEMhp_2 -2.5467E-08  iEMhp_3 -2.3875E-08  iEMhp_4 -2.1247E-08
#      9776
 1.5856  45514.8  219.07
 1.6276  52243.1  230.677
 1.6696  57281.6  240.693
 1.7116  64440.3  255.79
 1.7536  72418.4  270.007
 1.7956  76263.5  277.775
 1.8376  73077.4  272.342
 1.8796  63109.5  251.238
 1.9216  52457.3  229.957
 1.9636  45140.9  212.444
 2.0056  41053.9  201.813
 2.0476  38071.5  196.475
 2.0896  36984.1  192.513
 2.1316  35800.6  188.498
 2.1736  34077.9  185.365
 2.2156  34572  185.206
 2.2576  33314.7  182.456
 2.2996  32007.6  179.5
 2.3416  32276.5  178.815
 2.3836  31433  176.571
 2.4256  31355.4  176.927
 2.4676  30424.9  174.035
 2.5096  29935.1  172.685
 2.5516  29062.3  174.059
 2.5936  28896.4  170.078
 2.6356  28132.1  168.526
 2.6776  28119.3  167.376
 2.7196  27944.7  166.95
 2.7616  27596.1  166.09
 2.8036  27280.6  165.305
 2.8456  27216.9  165.761
 2.8876  26597  163.728
 2.9296  26532.6  163.654
 2.9716  25961.3  161.365
 3.0136  25859.3  161.121
 3.0556  25803.1  161.33
 3.0976  25731.4  159.996
 3.1396  25614.2  160.391
 3.1816  25452.4  159.516
 3.2236  24984.7  158.329
 3.2656  24913.1  157.143
 3.3076  24547.7  157.461
 3.3496  24956.9  157.685
 3.3916  25586.4  159.479
 3.4336  25677.7  160.345
 3.4756  26139.7  161.726
 3.5176  26969.1  164.04
 3.5596  26654.7  165.556
 3.6016  26429.2  162.449
 3.6436  25772.2  161.543
 3.6856  25260.8  158.22
 3.7276  24370.4  156.497
 3.7696  24255.8  156.319
 3.8116  24015.9  155.433
 3.8536  24007.9  155.336
 3.8956  23942.8  154.948
 3.9376  23814.8  154.803
 3.9796  23869.9  154.467
 4.0216  23920  153.651
 4.0636  23772.9  154.662
 4.1056  23694.9  154.061
 4.1476  24071.8  155.584
 4.1896  23986.3  155.171
 4.2316  24375.4  156.248
 4.2736  24693.5  157.061
 4.3156  24812.9  157.674
 4.3576  25790.5  160.652
 4.3996  25991.7  161.558
 4.4416  26385.7  162.36
 4.4836  26630.6  163.276
 4.5256  27390.8  166.203
 4.5676  27220.9  165.94
 4.6096  27837  166.443
 4.6516  28118.4  166.982
 4.6936  28080.2  167.701
 4.7356  28376.8  168.407
 4.7776  28249.6  167.856
 4.8196  28280.8  168.606
 4.8616  27552  165.912
 4.9036  27400.8  165.185
 4.9456  27026.2  164.707
 4.9876  26540.6  163.122
 5.0296  26737.8  163.566
 5.0716  26619.5  163.955
 5.1136  26758.6  164.108
 5.1556  27078.3  164.536
 5.1976  27658  166.28
 5.2396  27580.9  165.741
 5.2816  27774.9  166.798
 5.3236  27786.9  166.529
 5.3656  27296.6  165.991
 5.4076  26979.2  165.165
 5.4496  27036.5  164.833
 5.4916  27207.8  165.098
 5.5336  27130  164.959
 5.5756  27263.3  165.287
 5.6176  27299.6  164.845
 5.6596  27736.3  167.155
 5.7016  27771.2  166.508
 5.7436  27920.2  166.852
 5.7856  27834.8  167.05
 5.8276  27968.4  167.163
 5.8696  28462.2  168.808
 5.9116  28291.1  168.606
 5.9536  28558  169.436
 5.9956  28691.8  169.22
 6.0376  28794.5  170.15
 6.0796  28857.5  170.163
 6.1216  28787.9  170.208
 6.1636  29098.1  170.117
 6.2056  28926.3  170.305
 6.2476  29293  171.251
 6.2896  29900.3  172.681
 6.3316  29473.8  171.617
 6.3736  29567.5  171.789
 6.4156  29661.3  171.947
 6.4576  29552.9  171.25
 6.4996  29477.1  171.515
 6.5416  29562.8  171.888
 6.5836  29893.7  172.946
 6.6256  29742.5  172.199
 6.6676  30335.9  173.48
 6.7096  30467.4  174.725
 6.7516  30348.7  174.042
 6.7936  30822.7  174.782
 6.8356  30813.2  174.86
 6.8776  31044.1  176.327
 6.9196  31214  177.205
 6.9616  31444  177.305
 7.0036  32087.9  178.748
 7.0456  31952.5  177.675
 7.0876  31683  178.614
 7.1296  32060.9  178.791
 7.1716  31958.7  178.051
 7.2136  31666.9  177.016
 7.2556  31932.4  177.913
 7.2976  31972  178.521
 7.3396  31678.4  177.924
 7.3816  31858.9  178.647
 7.4236  32143.7  178.733
 7.4656  32260.7  178.511
 7.5076  32532.1  179.417
 7.5496  32255.3  179.192
 7.5916  32655.5  180.338
 7.6336  33060.7  181.432
 7.6756  33141.7  181.415
 7.7176  33628.9  183.08
 7.7596  33326.6  183.469
 7.8016  34200.5  188.132
 7.8436  33286.5  182.41
 7.8856  33570  182.637
 7.9276  34188.7  184.718
 7.9696  34600.7  186.133
 8.0116  35407.7  186.843
 8.0536  35386.5  187.037
 8.0956  35570.1  188.709
 8.1376  35958.7  189.201
 8.1796  36561  191.322
 8.2216  37051  191.053
 8.2636  37239.1  192.103
 8.3056  36934.8  192.044
 8.3476  37428.5  192.66
 8.3896  37603.3  193.19
 8.4316  37606.2  193.364
 8.4736  37711.7  193.103
 8.5156  37268.4  192.241
 8.5576  36763.1  192.517
 8.5996  37025.4  191.459
 8.6416  36934.2  192.486
 8.6836  36575.2  191.371
 8.7256  37266.8  192.629
 8.7676  37029  194.932
 8.8096  37341.5  193.029
 8.8516  37256.1  192.371
 8.8936  36895.4  191.397
 8.9356  37187.8  192.488
 8.9776  37100.1  192.346
 9.0196  37201.9  192.271
 9.0616  36487.9  189.972
 9.1036  36336  190.689
 9.1456  36225.2  189.733
 9.1876  36953.6  191.573
 9.2296  36283.1  189.263
 9.2716  36121.9  188.871
 9.3136  36116.5  188.867
 9.3556  36443.8  189.687
 9.3976  35405.9  187.494
 9.4396  35351.5  187.253
 9.4816  35242.9  186.822
 9.5236  34913.5  185.833
 9.5656  34599  185.367
 9.6076  33942.8  184.123
 9.6496  34301.2  184.98
 9.6916  34064.6  184.298
 9.7336  34295.2  184.686
 9.7756  33815.4  184.678
 9.8176  33769.5  184.068
 9.8596  33718.3  182.354
 9.9016  33430.5  181.573
 9.9436  33045.5  180.438
 9.9856  32710.7  179.791
 10.0276  32202.6  179.445
 10.0696  32741  179.979
 10.1116  31689  177.342
 10.1536  31767.8  177.717
 10.1956  31389.1  176.26
 10.2376  31329.2  175.596
 10.2796  30897.8  174.49
 10.3216  30900.6  174.792
 10.3636  30490.9  173.657
 10.4056  29995  172.65
 10.4476  30147.1  172.687
 10.4896  30361.9  172.899
 10.5316  29881.8  172.106
 10.5736  29855.4  172.452
 10.6156  29822.5  172.1
 10.6576  29543.1  169.844
 10.6996  29124.6  169.348
 10.7416  28887.6  168.874
 10.7836  28367.8  168.016
 10.8256  28040.4  167.477
 10.8676  28161.4  167.375
 10.9096  27992.9  166.898
 10.9516  27855.4  165.422
 10.9936  27884.5  165.719
 11.0356  27492.8  165.169
 11.0776  27407.4  164.239
 11.1196  27020.6  163.849
 11.1616  26879.4  163.091
 11.2036  27078.4  163.531
 11.2456  26862.7  163.602
 11.2876  27188.6  164.307
 11.3296  26491.6  162.103
 11.3716  27145.5  163.77
 11.4136  26955.6  164.096
 11.4556  27148.4  164.336
 11.4976  27457.5  164.239
 11.5396  27656.2  165.013
 11.5816  27075.7  163.714
 11.6236  26616.8  162.555
 11.6656  26599.1  161.636
 11.7076  25687.4  159.687
 11.7496  25353.8  161.833
 11.7916  25552  158.5
 11.8336  25101  158.002
 11.8756  24799.8  156.596
 11.9176  25063.9  157.108
 11.9596  25120.3  157.451
 12.0016  24842  157.077
 12.0436  25000.3  157.295
 12.0856  24536.6  156.338
 12.1276  24512.5  156.092
 12.1696  24484.9  155.223
 12.2116  24504.8  155.295
 12.2536  24255.3  155.325
 12.2956  24156.6  154.228
 12.3376  24569.7  155.866
 12.3796  24328.7  155.59
 12.4216  24265.9  154.584
 12.4636  23909.1  154.379
 12.5056  24252.4  154.806
 12.5476  24439.1  154.84
 12.5896  23959.2  153.966
 12.6316  24170.7  154.788
 12.6736  23870.7  154.503
 12.7156  24107.9  154.908
 12.7576  24167.5  155.371
 12.7996  24218.6  154.162
 12.8416  23923.5  154.284
 12.8836  24183.3  154.852
 12.9256  24724.3  155.689
 12.9676  24506.3  155.399
 13.0096  24654.3  157.002
 13.0516  24667.8  156.06
 13.0936  25000.4  157.53
 13.1356  25034  156.591
 13.1776  24562.4  156.127
 13.2196  24674.6  156.123
 13.2616  24445.2  155.712
 13.3036  24814.8  156.842
 13.3456  24583.3  156.638
 13.3876  24974.2  156.971
 13.4296  24555.9  155.82
 13.4716  24752.4  156.064
 13.5136  24652.5  155.882
 13.5556  24647  156.141
 13.5976  24757.3  157.017
 13.6396  24708.2  156.216
 13.6816  24763.6  156.866
 13.7236  25223.2  157.906
 13.7656  26659.7  162.804
 13.8076  27439.5  163.803
 13.8496  26947.9  162.976
 13.8916  25173.4  158.683
 13.9336  24441.8  155.624
 13.9756  24495.3  155.166
 14.0176  23954.3  154.032
 14.0596  23943.7  154.012
 14.1016  23959.9  154.504
 14.1436  23956.5  153.615
 14.1856  23513.3  152.485
 14.2276  23317.7  152.287
 14.2696  23308.4  152.155
 14.3116  22854.1  150.569
 14.3536  22712.5  150.264
 14.3956  22695.3  149.938
 14.4376  23010.7  150.754
 14.4796  22821.9  150.136
 14.5216  22599.5  150.193
 14.5636  22338.5  148.891
 14.6056  22525.9  149.065
 14.6476  22300.9  147.568
 14.6896  21986.1  147.064
 14.7316  21601.4  146.816
 14.7736  21451.1  145.449
 14.8156  21291  144.921
 14.8576  21148.2  144.291
 14.8996  20792.2  144.269
 14.9416  20475  143.182
 14.9836  20514.6  143.299
 15.0256  20138.3  140.891
 15.0676  20289.6  141.792
 15.1096  19820.6  139.826
 15.1516  19620  139.679
 15.1936  19469.3  138.565
 15.2356  19291.2  138.086
 15.2776  19153.6  137.72
 15.3196  18846.8  137.192
 15.3616  18671.8  136.308
 15.4036  18495.8  135.535
 15.4456  18853.9  136.487
 15.4876  18559.8  135.101
 15.5296  18473.1  135.075
 15.5716  18173.5  133.576
 15.6136  18413.1  134.781
 15.6556  18198.2  133.599
 15.6976  17989.6  132.765
 15.7396  17938.6  132.954
 15.7816  17766.4  131.837
 15.8236  17576.2  131.764
 15.8656  17593.3  131.677
 15.9076  17401.8  130.783
 15.9496  18221.4  136.672
 15.9916  17885.3  135.795
 16.0336  17982.2  133.011
 16.0756  17893.2  133.011
 16.1176  17446.3  131.412
 16.1596  17089.4  131.248
 16.2016  17224.7  130.514
 16.2436  17096.6  130.404
 16.2856  16998  129.534
 16.3276  16918.8  129.689
 16.3696  17113.5  130.249
 16.4116  16795.1  129.461
 16.4536  17034.9  130.203
 16.4956  17121.8  130.269
 16.5376  16905.4  129.631
 16.5796  16632.2  127.947
 16.6216  16627.5  128.194
 16.6636  16508.6  127.928
 16.7056  16858  129.129
 16.7476  16806.9  128.459
 16.7896  16608  128.445
 16.8316  16763.9  129.025
 16.8736  16857.8  129.642
 16.9156  16798.8  129.752
 16.9576  16357.6  128.839
 16.9996  16338.7  129.216
 17.0416  16578  128.557
 17.0836  16598.3  128.393
 17.1256  16393.5  127.601
 17.1676  16518.5  128.052
 17.2096  16219.7  126.786
 17.2516  16210.8  126.531
 17.2936  16149.9  126.649
 17.3356  16043.7  126.215
 17.3776  15860.8  125.679
 17.4196  15714.2  124.804
 17.4616  15888.8  125.399
 17.5036  15522.7  124.313
 17.5456  15520.6  124.949
 17.5876  15466  123.762
 17.6296  15477.6  123.639
 17.6716  15403.3  123.929
 17.7136  15391.2  124.005
 17.7556  15150.8  123.335
 17.7976  15258  123.502
 17.8396  15361.2  123.407
 17.8816  15114.7  122.988
 17.9236  15237.3  123.271
 17.9656  15000.4  122.835
 18.0076  15158.8  123.055
 18.0496  15122.3  122.039
 18.0916  14962  121.86
 18.1336  15078.3  122.514
 18.1756  15197.1  122.543
 18.2176  14904.6  121.567
 18.2596  14887.2  121.227
 18.3016  15113.3  122.406
 18.3436  15034.3  122.093
 18.3856  14824.9  121.561
 18.4276  14852.8  121.165
 18.4696  14870.3  121.323
 18.5116  14798.8  121.309
 18.5536  14649.4  121.062
 18.5956  14410.9  119.635
 18.6376  14462.2  120.251
 18.6796  14453.6  119.518
 18.7216  14597.6  120.613
 18.7636  14591.1  120.591
 18.8056  14454.9  119.946
 18.8476  14172.3  119.402
 18.8896  14411.1  119.737
 18.9316  14292.6  119.217
 18.9736  14320.9  119.039
 19.0156  14308.5  119.41
 19.0576  14455.9  118.852
 19.0996  14590.7  120.278
 19.1416  14257  119.15
 19.1836  14156.2  118.33
 19.2256  14134.1  118.553
 19.2676  14343  119.42
 19.3096  14171.3  118.953
 19.3516  14134.4  118.753
 19.3936  14205.1  118.949
 19.4356  14465.6  119.906
 19.4776  14210.7  118.942
 19.5196  14238.5  118.909
 19.5616  14115.7  118.656
 19.6036  14125  118.183
 19.6456  14091.9  118.169
 19.6876  14208.7  118.29
 19.7296  14213.7  118.775
 19.7716  14164.5  118.742
 19.8136  14573.2  120.64
 19.8556  14636.7  120.381
 19.8976  14515.5  119.941
 19.9396  14615.1  119.925
 19.9816  14574.2  120.083
 20.0236  14871.8  121.438
 20.0656  14726.7  120.836
 20.1076  14536.3  120.54
 20.1496  14131.4  118.841
 20.1916  14223.5  118.744
 20.2336  13998.1  117.717
 20.2756  13767.5  117.178
 20.3176  13735.5  116.791
 20.3596  13547  115.978
 20.4016  13730.4  116.55
 20.4436  13546.6  116.24
 20.4856  13668.3  116.643
 20.5276  13479.6  116.306
 20.5696  13653.9  116.496
 20.6116  13370.4  115.555
 20.6536  13409.4  115.207
 20.6956  13367  115.185
 20.7376  13117.8  114.32
 20.7796  13227.4  114.481
 20.8216  13410.3  114.983
 20.8636  13285.4  114.826
 20.9056  13145.8  114.145
 20.9476  13277.5  114.576
 20.9896  13324  114.645
 21.0316  13295.6  114.418
 21.0736  13355.3  115.197
 21.1156  13105.3  114.274
 21.1576  13340.9  115.335
 21.1996  13190.6  114.671
 21.2416  13164.2  114.379
 21.2836  13161.1  114.346
 21.3256  13020.3  113.851
 21.3676  13102.1  113.693
 21.4096  13001  113.58
 21.4516  13029.7  113.573
 21.4936  12803.6  112.845
 21.5356  13018.2  113.739
 21.5776  13118.5  114.009
 21.6196  12748.3  112.424
 21.6616  12915.5  113.247
 21.7036  12993  113.343
 21.7456  12941.6  113.211
 21.7876  12875.4  112.677
 21.8296  12820.7  112.286
 21.8716  12898.4  112.85
 21.9136  13027.6  113.614
 21.9556  12864.1  112.576
 21.9976  12709.6  111.928
 22.0396  12851.2  112.808
 22.0816  12767.1  112.957
 22.1236  12874.4  112.9
 22.1656  12722.4  112.73
 22.2076  12715.5  111.802
 22.2496  12542.9  111.069
 22.2916  12553.3  111
 22.3336  12468.8  111.344
 22.3756  12578.5  111.548
 22.4176  12491  111.014
 22.4596  12345.4  110.948
 22.5016  12383.1  110.628
 22.5436  12585.1  111.513
 22.5856  12643.4  111.903
 22.6276  12596.7  111.871
 22.6696  12556.3  112.008
 22.7116  12564.9  111.554
 22.7536  12439.2  110.975
 22.7956  12389.3  110.098
 22.8376  12401.2  110.656
 22.8796  12422.9  110.56
 22.9216  12557.6  111.701
 22.9636  12462.4  110.428
 23.0056  12410.8  110.337
 23.0476  12702.3  112.202
 23.0896  12888.5  112.392
 23.1316  12675.8  111.898
 23.1736  12618.6  114.378
 23.2156  12778.5  112.672
 23.2576  12988.7  113.732
 23.2996  12612.7  111.846
 23.3416  13025.2  114.197
 23.3836  12751.1  112.213
 23.4256  12925.5  113.106
 23.4676  12865.7  112.531
 23.5096  12824.9  113.021
 23.5516  12661.1  111.59
 23.5936  12866.1  113.409
 23.6356  12709.4  112.385
 23.6776  12687.2  112.5
 23.7196  12638.3  111.85
 23.7616  12590.2  111.557
 23.8036  12991.8  113.378
 23.8456  12748.2  111.712
 23.8876  12590.9  111.528
 23.9296  12489.3  111.566
 23.9716  12521.8  110.909
 24.0136  12615.5  112.237
 24.0556  12475  111.321
 24.0976  12264  110.194
 24.1396  12135  112.226
 24.1816  12476.5  112.205
 24.2236  12295.7  110.998
 24.2656  12337.8  110.675
 24.3076  12203  110.337
 24.3496  12208.7  110.241
 24.3916  12094.9  109.773
 24.4336  12235.4  110.622
 24.4756  12134.9  110.045
 24.5176  12096.7  109.496
 24.5596  11874.6  108.602
 24.6016  11983.2  109.402
 24.6436  11993.5  108.953
 24.6856  12103.3  109.197
 24.7276  11790.6  108.098
 24.7696  11864.3  108.545
 24.8116  11688.6  107.92
 24.8536  11669.9  107.835
 24.8956  11659.3  107.515
 24.9376  11634.1  107.331
 24.9796  11451.2  106.848
 25.0216  11415.7  106.787
 25.0636  11637.4  107.475
 25.1056  11354.6  106.864
 25.1476  11454.1  108.966
 25.1896  11314.8  106.813
 25.2316  11301.1  106.024
 25.2736  11266.2  105.499
 25.3156  11248.9  105.485
 25.3576  11331.5  106.32
 25.3996  11378.4  106.526
 25.4416  11240.8  105.854
 25.4836  10987.6  105.175
 25.5256  11242.3  105.749
 25.5676  11174.7  105.16
 25.6096  11049.1  105.133
 25.6516  11163.5  105.188
 25.6936  11120.6  105.293
 25.7356  10997.1  104.848
 25.7776  11170.4  105.264
 25.8196  11087  105.114
 25.8616  10906.4  104.185
 25.9036  11168.8  104.883
 25.9456  11078.7  105.064
 25.9876  11011.9  104.807
 26.0296  11036.3  104.44
 26.0716  10990.4  104.646
 26.1136  10973.9  104.499
 26.1556  11104.1  104.496
 26.1976  10964.4  104.774
 26.2396  10993.7  104.056
 26.2816  11081.8  105.095
 26.3236  11078.3  105.233
 26.3656  11049.6  104.813
 26.4076  10885.9  104.222
 26.4496  11172.1  105.192
 26.4916  11246.9  105.455
 26.5336  11266  105.952
 26.5756  11666.4  107.61
 26.6176  11062.1  104.785
 26.6596  10870.5  104.207
 26.7016  10964.5  104.422
 26.7436  10965.6  104.549
 26.7856  10689.5  103.218
 26.8276  10841.1  103.913
 26.8696  10820.2  103.681
 26.9116  10723.4  103.16
 26.9536  10681.4  102.999
 26.9956  10535.1  102.326
 27.0376  10641.1  103.066
 27.0796  10635.7  102.76
 27.1216  10656.2  102.916
 27.1636  10425.5  101.964
 27.2056  10528.9  102.354
 27.2476  10558.9  102.489
 27.2896  10485.8  102.282
 27.3316  10518.4  102.13
 27.3736  10307.9  101.378
 27.4156  10421.2  101.76
 27.4576  10569.4  102.707
 27.4996  10500.8  101.971
 27.5416  10370.9  101.656
 27.5836  10283.1  101.061
 27.6256  10333.5  101.483
 27.6676  10373.3  101.682
 27.7096  10401.3  101.692
 27.7516  10299.8  101.254
 27.7936  10606.3  102.989
 27.8356  10523.8  102.197
 27.8776  10681.4  103.011
 27.9196  10290.5  100.981
 27.9616  10270.2  101.081
 28.0036  10198.6  100.687
 28.0456  10160.8  100.642
 28.0876  10082.4  100.335
 28.1296  10189.2  100.644
 28.1716  10183.9  100.693
 28.2136  10204.8  100.763
 28.2556  10098  100.349
 28.2976  10083.2  100.265
 28.3396  10128.1  100.242
 28.3816  10130.1  100.266
 28.4236  9990.08  99.7302
 28.4656  10028.4  99.9574
 28.5076  9969.41  99.3006
 28.5496  10034.3  99.8845
 28.5916  10067.7  99.8592
 28.6336  10027.1  99.9975
 28.6756  10087.2  99.4905
 28.7176  10028.3  99.6516
 28.7596  9884.07  98.9323
 28.8016  9985.36  99.4829
 28.8436  9686.15  98.2154
 28.8856  9928.58  99.3354
 28.9276  9870.66  99.2436
 28.9696  9788.82  98.4872
 29.0116  9830.38  98.8806
 29.0536  9733.18  98.5973
 29.0956  9818.91  98.7319
 29.1376  9804.48  98.635
 29.1796  9812.58  98.7218
 29.2216  9835.25  98.6724
 29.2636  9794.56  98.5508
 29.3056  9735.59  98.031
 29.3476  9767.8  98.722
 29.3896  9715.59  98.5719
 29.4316  9675.95  97.7001
 29.4736  9517.76  96.9601
 29.5156  9564.57  97.1271
 29.5576  9514.29  97.6026
 29.5996  9583.8  97.2201
 29.6416  9520.07  97.0029
 29.6836  9620.7  97.4541
 29.7256  9533.17  97.3407
 29.7676  9512.9  97.1276
 29.8096  9565.12  97.3407
 29.8516  9361.22  96.6241
 29.8936  9432.61  97.0866
 29.9356  9426.3  96.8114
 29.9776  9463.28  97.1446
 30.0196  9520.79  97.1096
 30.0616  9404.64  96.6162
 30.1036  9548.25  97.1768
 30.1456  9449.26  96.8981
 30.1876  9387.81  96.5702
 30.2296  9312.95  96.1272
 30.2716  9357.95  96.0005
 30.3136  9528.59  97.7329
 30.3556  9674.51  98.4748
 30.3976  9421.15  98.6813
 30.4396  9800.09  97.9567
 30.4816  9773.51  97.4158
 30.5236  9776.96  97.4428
 30.5656  9718.81  97.817
 30.6076  9592.83  96.5888
 30.6496  9669.95  97.393
 30.6916  9383.49  96.0144
 30.7336  9483.78  96.6721
 30.7756  9515  96.9238
 30.8176  9419.82  96.3666
 30.8596  9629.23  97.1784
 30.9016  9561.3  97.1808
 30.9436  9740.16  97.8533
 30.9856  9486.22  96.6831
 31.0276  9481.48  96.2847
 31.0696  9344.14  96.1397
 31.1116  9371.88  96.2491
 31.1536  9388.38  96.2223
 31.1956  9448.5  96.6163
 31.2376  9201.46  95.3698
 31.2796  9440.49  96.1302
 31.3216  9541.66  96.5626
 31.3636  9467.49  96.9083
 31.4056  9336.73  97.524
 31.4476  9526.74  96.4212
 31.4896  9531.25  96.95
 31.5316  9376.55  95.5642
 31.5736  9652.77  96.79
 31.6156  9443.7  95.7371
 31.6576  9538.38  96.2951
 31.6996  9461.23  95.5772
 31.7416  9306.24  95.8798
 31.7836  9523.55  95.9769
 31.8256  9475.11  96.0045
 31.8676  9424.8  95.7362
 31.9096  9306.36  95.5071
 31.9516  9347.21  95.8836
 31.9936  9201.79  94.9555
 32.0356  9351.2  95.7834
 32.0776  9387.66  95.8577
 32.1196  9481.15  96.4427
 32.1616  9385.65  95.399
 32.2036  9244.42  95.1874
 32.2456  9346.19  96.0985
 32.2876  9340.84  95.5614
 32.3296  9182.64  94.7123
 32.3716  9025.96  94.0144
 32.4136  9008.55  94.1142
 32.4556  9241.63  94.7132
 32.4976  9108.8  93.9419
 32.5396  9131.96  94.1225
 32.5816  9113.83  94.1533
 32.6236  8993.51  93.5939
 32.6656  9208.41  95.2516
 32.7076  8975.13  93.6955
 32.7496  9011.18  93.5621
 32.7916  9128.45  94.1247
 32.8336  9059.69  93.8629
 32.8756  9188.59  94.2422
 32.9176  8867.6  93.0686
 32.9596  8942.51  93.5257
 33.0016  9002.63  93.609
 33.0436  9199.97  94.5392
 33.0856  9014.44  93.9486
 33.1276  8872.92  92.9396
 33.1696  9010.61  93.4847
 33.2116  9046.15  93.9184
 33.2536  9162.24  94.4846
 33.2956  9021.27  93.8454
 33.3376  9050.25  93.7455
 33.3796  8931.96  93.3523
 33.4216  8937.09  92.9602
 33.4636  8984.18  93.3686
 33.5056  8793.2  92.6135
 33.5476  8882.5  93.0559
 33.5896  9046.65  93.7083
 33.6316  8880.53  93.1518
 33.6736  8761.43  92.7641
 33.7156  8656.82  91.9753
 33.7576  8949.11  93.4333
 33.7996  9020.75  93.5629
 33.8416  8798.95  92.5899
 33.8836  8729.26  92.1384
 33.9256  8901.75  92.9598
 33.9676  9010.36  93.4211
 34.0096  8804.58  92.6653
 34.0516  8692.08  91.7018
 34.0936  8787.52  92.3904
 34.1356  8818.56  92.3869
 34.1776  8680.01  91.6523
 34.2196  8783.58  92.3867
 34.2616  8687.6  92.0186
 34.3036  8790.05  92.7986
 34.3456  8695.72  92.0549
 34.3876  8690.29  92.0013
 34.4296  8792.75  92.2304
 34.4716  8780.63  92.2711
 34.5136  8711.76  92.1462
 34.5556  8595.62  91.7952
 34.5976  8760.12  92.4768
 34.6396  8605.28  91.4829
 34.6816  8720.27  92.0726
 34.7236  8678.28  91.6375
 34.7656  8761.47  92.2878
 34.8076  8621.35  91.8767
 34.8496  8574.08  91.5447
 34.8916  8694.64  91.9747
 34.9336  8695.85  91.9631
 34.9756  8665.57  91.7251
 35.0176  8685.24  92.3602
 35.0596  8759.07  92.5611
 35.1016  8655.91  91.7806
 35.1436  8930.12  92.8992
 35.1856  8673.22  91.6767
 35.2276  8661.59  91.7952
 35.2696  8593.12  91.6242
 35.3116  8576.96  91.6313
 35.3536  8527.41  91.0829
 35.3956  8564.71  90.9879
 35.4376  8542.29  91.4384
 35.4796  8586.1  91.7129
 35.5216  8537.68  91.4163
 35.5636  8333.32  91.0542
 35.6056  8407.49  90.4794
 35.6476  8598.21  91.404
 35.6896  8577.1  91.3874
 35.7316  8414.23  90.4854
 35.7736  8610.73  91.7176
 35.8156  8597.1  91.6588
 35.8576  8478.82  91.2628
 35.8996  8579.52  91.7811
 35.9416  8525.22  90.9908
 35.9836  8488.41  91.1373
 36.0256  8728.6  92.4263
 36.0676  8643.88  91.7326
 36.1096  8487.45  91.0504
 36.1516  8610.71  91.6017
 36.1936  8515.69  90.9237
 36.2356  8481.39  91.4028
 36.2776  8421.54  90.5579
 36.3196  8480.03  90.5373
 36.3616  8528.89  90.8676
 36.4036  8422.62  90.4311
 36.4456  8557.56  91.3594
 36.4876  8351.61  90.1974
 36.5296  8414.61  90.575
 36.5716  8259.33  90.2715
 36.6136  8209.86  89.0295
 36.6556  8335.3  89.9054
 36.6976  8230.65  89.8375
 36.7396  8079.56  88.9077
 36.7816  8105.89  89.2586
 36.8236  8178.18  89.5741
 36.8656  8137.98  89.4306
 36.9076  8049.03  88.8217
 36.9496  8119.41  89.1904
 36.9916  8108.88  88.7594
 37.0336  8156.5  89.3397
 37.0756  8173.24  89.2259
 37.1176  7980.17  88.4327
 37.1596  8175.39  89.5117
 37.2016  8086.53  89.2486
 37.2436  8063.55  88.4435
 37.2856  8041.59  88.5784
 37.3276  8115.85  88.5064
 37.3696  8061.58  88.929
 37.4116  8132.62  89.2189
 37.4536  7991.3  88.1581
 37.4956  7904.2  88.0751
 37.5376  8197.9  91.0843
 37.5796  8088.56  90.4019
 37.6216  8060.67  88.514
 37.6636  8366.29  90.0629
 37.7056  8083.39  88.7214
 37.7476  8321.5  89.5503
 37.7896  8146.15  89.1145
 37.8316  8086  88.9378
 37.8736  8064.7  88.3458
 37.9156  8083.72  88.4495
 37.9576  8256.98  89.3024
 37.9996  8137.45  88.3647
 38.0416  8058.95  88.743
 38.0836  8155.13  89.1751
 38.1256  8118.17  88.9445
 38.1676  7973.2  88.2619
 38.2096  8184.07  89.0387
 38.2516  8110.57  88.8551
 38.2936  8277.05  89.557
 38.3356  8073.05  88.3794
 38.3776  7958.73  87.9928
 38.4196  8064.38  88.4354
 38.4616  8102.72  88.8961
 38.5036  8237.7  89.4738
 38.5456  7997.73  88.9947
 38.5876  8040.93  89.4248
 38.6296  7902.33  87.4479
 38.6716  8140.2  88.5758
 38.7136  8122.61  88.4163
 38.7556  8005.87  88.2933
 38.7976  7924.54  87.7651
 38.8396  8012.12  88.5216
 38.8816  8090.44  88.9402
 38.9236  8038.4  88.4432
 38.9656  8025.92  88.2876
 39.0076  8177.56  88.5096
 39.0496  8149.2  88.9223
 39.0916  8032.85  87.928
 39.1336  8117.14  88.7961
 39.1756  8014.77  88.3004
 39.2176  8019.49  88.8697
 39.2596  8035.11  88.8818
 39.3016  7942.13  87.8826
 39.3436  7835.1  87.7597
 39.3856  8055.18  88.4079
 39.4276  8174.45  89.5926
 39.4696  8033.68  88.4388
 39.5116  8158.18  89.6394
 39.5536  8056.63  89.5047
 39.5956  7991.84  88.2441
 39.6376  8028.34  88.4477
 39.6796  7953.11  87.7773
 39.7216  8007.66  88.1728
 39.7636  8044.8  88.9495
 39.8056  8045.91  88.7318
 39.8476  7988.56  88.6737
 39.8896  8010.25  88.4243
 39.9316  7953.74  88.3594
 39.9736  8119.94  88.9322
 40.0156  8031.81  88.196
 40.0576  7961.25  88.1614
 40.0996  7950.29  87.2858
 40.1416  8008.99  88.4128
 40.1836  8019.89  88.3515
 40.2256  8039.15  88.492
 40.2676  8029.65  88.5429
 40.3096  8019.59  88.4251
 40.3516  8055.12  88.7288
 40.3936  8110.23  88.5735
 40.4356  7952.08  87.923
 40.4776  8108.51  89.1821
 40.5196  8085.26  89.1141
 40.5616  8176.48  89.3289
 40.6036  7916.44  88.1529
 40.6456  8008.04  88.2593
 40.6876  8079.79  88.646
 40.7296  8076.97  88.6479
 40.7716  8074.97  88.8921
 40.8136  7957.35  88.1794
 40.8556  8126.51  89.2448
 40.8976  8109.76  89.0749
 40.9396  7980.23  88.7062
 40.9816  7973.47  87.9625
 41.0236  7999.45  87.8852
 41.0656  8149.35  89.2493
 41.1076  7975.07  88.0594
 41.1496  8077.5  88.5329
 41.1916  8029.52  88.5881
 41.2336  8037.06  88.6303
 41.2756  8020.24  88.1381
 41.3176  8060.82  88.9698
 41.3596  8018.53  88.4756
 41.4016  7927.52  88.2273
 41.4436  8098.23  88.9595
 41.4856  7944.53  88.2817
 41.5276  7915.72  88.1271
 41.5696  7963.36  88.0294
 41.6116  8091.36  89.1233
 41.6536  8013.61  88.5537
 41.6956  8104.21  89.115
 41.7376  7921.98  88.1303
 41.7796  7889.53  87.8317
 41.8216  8040.37  88.8962
 41.8636  7973.72  88.4819
 41.9056  7938.24  88.0737
 41.9476  7907.46  88.0294
 41.9896  8093.2  88.8218
 42.0316  8122.58  89.0755
 42.0736  8043.64  88.7415
 42.1156  8006.34  88.3727
 42.1576  8078.82  88.8551
 42.1996  8006.09  88.6032
 42.2416  8139.1  88.843
 42.2836  7987.47  88.2112
 42.3256  7988.83  88.3289
 42.3676  8116.01  88.8228
 42.4096  8000.33  88.1624
 42.4516  8012.25  88.3683
 42.4936  7863.13  87.5595
 42.5356  7894.53  87.8731
 42.5776  7934.67  88.0274
 42.6196  8014.76  88.5356
 42.6616  7869.87  87.8975
 42.7036  7909.63  87.4948
 42.7456  8011.6  88.4167
 42.7876  7904.03  87.912
 42.8296  7927.12  87.8843
 42.8716  7844.24  87.5914
 42.9136  7866.07  87.4974
 42.9556  7945.07  88.0728
 42.9976  7931.61  87.959
 43.0396  7811.82  87.0203
 43.0816  7906.93  87.9331
 43.1236  7823.04  87.5161
 43.1656  7901.34  87.772
 43.2076  7883.65  87.7864
 43.2496  7826.27  87.2943
 43.2916  7888.38  88.0014
 43.3336  7892  87.8462
 43.3756  7960.62  87.9888
 43.4176  7853.34  87.4787
 43.4596  7779.91  86.9167
 43.5016  7858.93  87.7697
 43.5436  7787.27  87.2745
 43.5856  7774.14  87.2266
 43.6276  7798.69  87.255
 43.6696  7763.89  87.2649
 43.7116  7923.24  87.7025
 43.7536  7841.71  87.7517
 43.7956  7728.75  88.3294
 43.8376  7667.18  86.5
 43.8796  7667.17  86.5812
 43.9216  7676.5  86.549
 43.9636  7885.14  87.826
 44.0056  7650.11  86.744
 44.0476  7612.84  86.2793
 44.0896  7569.4  86.2552
 44.1316  7661.05  86.3003
 44.1736  7643.04  86.326
 44.2156  7781.39  86.9603
 44.2576  7655.62  86.5757
 44.2996  7629.45  86.3991
 44.3416  7659.66  86.319
 44.3836  7400.39  85.1832
 44.4256  7508.88  85.4435
 44.4676  7388.07  84.9107
 44.5096  7552.99  85.9963
 44.5516  7540.28  85.889
 44.5936  7499.65  85.6117
 44.6356  7583.8  85.8269
 44.6776  7717.32  86.8209
 44.7196  7642.45  86.7856
 44.7616  7616.15  87.9717
 44.8036  7646.16  86.5504
 44.8456  7842.16  87.8633
 44.8876  7756.89  87.331
 44.9296  7830.57  87.0834
 44.9716  7719.27  86.8982
 45.0136  7707.11  86.7508
 45.0556  7770.69  87.0967
 45.0976  7673  86.6916
 45.1396  7604.14  86.0661
 45.1816  7620.68  86.1009
 45.2236  7879.18  87.4566
 45.2656  7599.28  86.3865
 45.3076  7672.71  86.5754
 45.3496  7578.18  86.3619
 45.3916  7591.11  86.7059
 45.4336  7667.54  86.9825
 45.4756  7581.52  86.3304
 45.5176  7691.89  86.5854
 45.5596  7843.28  87.5521
 45.6016  7646.02  86.8717
 45.6436  7629.64  85.9467
 45.6856  7630.21  86.6153
 45.7276  7587.68  87.7004
 45.7696  7544.43  87.1336
 45.8116  7594.01  86.8467
 45.8536  7553.26  86.5024
 45.8956  7687.31  86.6144
 45.9376  7702.78  86.1538
 45.9796  7674.84  86.6928
 46.0216  7747.44  87.4539
 46.0636  7671.13  86.1431
 46.1056  7688.72  86.2423
 46.1476  7570.42  86.1716
 46.1896  7624.62  86.6191
 46.2316  7586.26  86.2671
 46.2736  7482.6  86.061
 46.3156  7720.64  86.993
 46.3576  7573.17  86.3684
 46.3996  7518.96  86.2177
 46.4416  7586.96  86.1801
 46.4836  7453.49  85.7772
 46.5256  7493.03  85.9457
 46.5676  7506.68  86.1352
 46.6096  7561.14  86.3657
 46.6516  7702.25  86.2012
 46.6936  7623.33  86.2656
 46.7356  7629.49  86.3996
 46.7776  7462.29  86.3651
 46.8196  7545.6  86.3658
 46.8616  7338.73  85.1244
 46.9036  7407.13  85.1775
 46.9456  7512.74  85.4169
 46.9876  7452.45  85.1597
 47.0296  7551.68  86.3319
 47.0716  7419.34  85.4825
 47.1136  7517.97  85.7235
 47.1556  7508.6  85.5341
 47.1976  7571.94  85.9719
 47.2396  7467.68  85.7881
 47.2816  7442.97  85.3417
 47.3236  7453.42  85.7682
 47.3656  7478.18  85.8485
 47.4076  7512.59  85.8423
 47.4496  7412.52  85.3645
 47.4916  7434.47  85.6761
 47.5336  7583.74  86.3488
 47.5756  7583.99  86.4744
 47.6176  7498.92  85.8806
 47.6596  7353.65  84.7623
 47.7016  7578.79  85.8536
 47.7436  7537.38  85.9684
 47.7856  7551.41  86.0665
 47.8276  7444.91  85.511
 47.8696  7493.71  85.8811
 47.9116  7497.91  85.6157
 47.9536  7499.36  85.5611
 47.9956  7372.09  85.5522
 48.0376  7369.7  85.3071
 48.0796  7498.46  86.1808
 48.1216  7379.64  85.3167
 48.1636  7617.7  86.2373
 48.2056  7452.27  85.5678
 48.2476  7547.84  86.4061
 48.2896  7486.68  85.9824
 48.3316  7507.74  86.0465
 48.3736  7439.58  85.6774
 48.4156  7421.61  85.5428
 48.4576  7436.14  85.8095
 48.4996  7607.33  86.2345
 48.5416  7528.26  86.113
 48.5836  7419.54  85.1568
 48.6256  7519.66  85.942
 48.6676  7424.2  85.9256
 48.7096  7549.5  85.8931
 48.7516  7468.94  85.5828
 48.7936  7330.64  84.9576
 48.8356  7447.07  85.5746
 48.8776  7427.55  86.0498
 48.9196  7542.01  86.0568
 48.9616  7462.82  86.0004
 49.0036  7414.7  86.0748
 49.0456  7421.66  86.0908
 49.0876  7481.56  85.9695
 49.1296  7281.97  84.9768
 49.1716  7283.52  85.0856
 49.2136  7478.42  85.9192
 49.2556  7372.9  85.4476
 49.2976  7372.1  85.3888
 49.3396  7382.61  85.5151
 49.3816  7391.43  85.1344
 49.4236  7510.13  86.0993
 49.4656  7386.8  85.3631
 49.5076  7391.34  85.1799
 49.5496  7373.84  85.1433
 49.5916  7434.38  85.4028
 49.6336  7387.29  85.3428
 49.6756  7457.21  85.9887
 49.7176  7451.39  85.892
 49.7596  7400.74  85.3546
 49.8016  7476.14  85.7194
 49.8436  7327.41  85.1577
 49.8856  7346.52  85.2722
 49.9276  7270.62  84.9382
 49.9696  7334.86  85.2887
 50.0116  7384.54  85.7068
 50.0536  7353.38  85.4746
 50.0956  7264.01  85.0195
 50.1376  7315  85.0091
 50.1796  7343.95  85.4598
 50.2216  7387.78  85.7138
 50.2636  7208.61  84.2778
 50.3056  7174.59  84.2601
 50.3476  7279.62  84.8883
 50.3896  7249.84  84.6956
 50.4316  7307.59  84.8568
 50.4736  7255.2  84.7783
 50.5156  7348.92  85.3126
 50.5576  7322.41  84.913
 50.5996  7297.61  85.1768
 50.6416  7281.09  84.894
 50.6836  7315.2  85.1468
 50.7256  7384.29  85.4702
 50.7676  7355.25  85.6371
 50.8096  7381.31  85.3078
 50.8516  7317  85.3584
 50.8936  7165.8  84.2446
 50.9356  7311  85.2095
 50.9776  7216.29  84.8188
 51.0196  7012.71  83.7407
 51.0616  7107.52  83.621
 51.1036  7220.23  84.6455
 51.1456  7252.36  84.743
 51.1876  7157.72  83.5102
 51.2296  7189.16  84.4698
 51.2716  7049.05  83.22
 51.3136  7121.1  84.1178
 51.3556  7068.16  83.4181
 51.3976  7133.4  83.9558
 51.4396  6972.23  83.3189
 51.4816  7049.28  83.6293
 51.5236  7115.17  84.1271
 51.5656  7011  83.069
 51.6076  7189.23  84.2153
 51.6496  7112.04  83.955
 51.6916  6995.07  83.6286
 51.7336  7054.76  84.0754
 51.7756  7082.86  83.9324
 51.8176  6987.22  83.4765
 51.8596  7063.91  83.9484
 51.9016  7241.2  84.5866
 51.9436  7112.95  85.3609
 51.9856  7140.51  85.9383
 52.0276  7294.47  85.2964
 52.0696  7270.33  85.2334
 52.1116  7010.59  83.8181
 52.1536  7158.92  84.5715
 52.1956  7080.71  83.5678
 52.2376  7267.12  84.8339
 52.2796  7227.54  84.4228
 52.3216  6947.41  83.4665
 52.3636  7163.87  84.3073
 52.4056  6964.93  82.9967
 52.4476  6946.26  83.2496
 52.4896  6961  83.3849
 52.5316  7167.09  84.6533
 52.5736  6934.8  82.9962
 52.6156  7131.9  84.5785
 52.6576  7006.81  83.2533
 52.6996  6962.65  84.0021
 52.7416  7134.03  84.9454
 52.7836  6924.48  83.5063
 52.8256  7018.96  83.2676
 52.8676  6998.33  83.7227
 52.9096  6986.42  83.7382
 52.9516  7030.88  84.4074
 52.9936  6914.96  84.0871
 53.0356  7072.66  84.009
 53.0776  7065.45  84.2571
 53.1196  7004.31  84.002
 53.1616  7135.93  84.8468
 53.2036  6921.96  83.5313
 53.2456  6918.45  83.6169
 53.2876  6928.29  83.357
 53.3296  6919.67  83.645
 53.3716  7151.91  84.7615
 53.4136  7139.39  84.8606
 53.4556  6967.91  83.8618
 53.4976  6993.17  83.8455
 53.5396  6952.92  84.0137
 53.5816  6988.13  83.8518
 53.6236  7004.26  84.2427
 53.6656  6964.01  83.6694
 53.7076  6975.14  83.691
 53.7496  7110.17  84.6272
 53.7916  7036.83  84.3338
 53.8336  6943.91  83.6436
 53.8756  6890.66  83.9065
 53.9176  6950.88  83.5911
 53.9596  6677.14  82.6824
 54.0016  6725.72  82.2956
 54.0436  6675.35  82.222
 54.0856  6815.04  82.5109
 54.1276  6873.58  83.0483
 54.1696  6704.31  82.187
 54.2116  6911.12  83.2028
 54.2536  6783.26  82.2293
 54.2956  6837.82  82.54
 54.3376  6700.17  82.2764
 54.3796  6742.87  82.4263
 54.4216  6663.15  81.8239
 54.4636  6688.54  82.1808
 54.5056  6741.54  82.2393
 54.5476  6506.91  81.1376
 54.5896  6774.7  82.6318
 54.6316  6724.1  82.1645
 54.6736  6677.6  81.9635
 54.7156  6612.08  81.579
 54.7576  6526.49  81.0313
 54.7996  6728.24  82.4177
 54.8416  6654.54  81.9446
 54.8836  6536.14  81.3944
 54.9256  6574.52  81.3873
 54.9676  6564.78  81.1924
 55.0096  6640.32  81.6932
 55.0516  6504.56  81.0968
 55.0936  6554.19  81.0576
 55.1356  6538.08  81.0115
 55.1776  6691.41  82.1896
 55.2196  6574.94  81.3263
 55.2616  6682.29  82.1509
 55.3036  6512.92  81.2759
 55.3456  6520.81  81.4683
 55.3876  6653.15  81.9909
 55.4296  6441.84  80.7257
 55.4716  6540.38  81.3279
 55.5136  6595.04  81.4429
 55.5556  6660.86  81.8878
 55.5976  6603.53  81.6108
 55.6396  6649.35  81.845
 55.6816  6547.12  81.0815
 55.7236  6451.27  80.5417
 55.7656  6505.59  80.6002
 55.8076  6438.83  80.1945
 55.8496  6484.89  80.7983
 55.8916  6398.2  80.4641
 55.9336  6636.82  81.7802
 55.9756  6486.66  80.7286
 56.0176  6438.93  80.5598
 56.0596  6456.91  80.6935
 56.1016  6306.13  79.7526
 56.1436  6368.08  80.3989
 56.1856  6422.28  80.4828
 56.2276  6595.86  81.6187
 56.2696  6314.58  79.874
 56.3116  6568.6  81.8069
 56.3536  6440.83  80.6612
 56.3956  6535.73  81.2517
 56.4376  6373.82  80.2853
 56.4796  6282.68  79.5179
 56.5216  6331.71  80.2052
 56.5636  6364.23  79.9789
 56.6056  6529.69  81.2502
 56.6476  6457.52  80.4328
 56.6896  6619.56  81.8837
 56.7316  6373.3  80.2739
 56.7736  6341.79  80.0408
 56.8156  6297.69  79.7953
 56.8576  6277.96  79.6208
 56.8996  6359.24  80.0167
 56.9416  6284.84  79.8906
 56.9836  6402.18  80.1502
 57.0256  6237.99  79.4259
 57.0676  6427.48  80.7261
 57.1096  6352.96  80.0526
 57.1516  6375.44  80.2348
 57.1936  6410.3  80.2118
 57.2356  6317.23  79.9641
 57.2776  6341.35  80.0765
 57.3196  6279.71  79.8355
 57.3616  6286  79.5667
 57.4036  6269.7  79.5303
 57.4456  6475.42  80.8077
 57.4876  6379.61  80.0666
 57.5296  6272.8  79.7155
 57.5716  6263.56  79.6762
 57.6136  6209.6  79.1694
 57.6556  6309.27  79.9154
 57.6976  6321.88  79.7393
 57.7396  6123.32  78.9133
 57.7816  6246.77  80.0843
 57.8236  6213.82  79.7014
 57.8656  6172.4  79.0607
 57.9076  6315.57  79.9939
 57.9496  6218.25  79.7367
 57.9916  6281.31  79.6452
 58.0336  6218.4  79.523
 58.0756  6316.49  79.7749
 58.1176  6209.03  79.0835
 58.1596  6213.44  79.7092
 58.2016  6147.9  78.5039
 58.2436  6089.46  78.5417
 58.2856  5913.8  77.3201
 58.3276  6036.23  78.4836
 58.3696  5943.44  77.6409
 58.4116  6036.51  78.1112
 58.4536  6124.39  78.562
 58.4956  5934.02  77.5102
 58.5376  6137.73  78.5267
 58.5796  6030.14  78.1294
 58.6216  5942.19  77.3812
 58.6636  6068.37  78.4074
 58.7056  5997.68  77.8002
 58.7476  5958.31  77.9928
 58.7896  5937.05  77.5008
 58.8316  6003.54  78.0338
 58.8736  6111.98  78.6416
 58.9156  5975.95  77.7996
 58.9576  5932.21  77.8311
 58.9996  6100.35  78.1801
 59.0416  6118.2  78.6567
 59.0836  6041.96  78.0663
 59.1256  5983.38  78.4016
 59.1676  5940.06  78.4277
 59.2096  5941.48  77.7411
 59.2516  6134.63  78.5724
 59.2936  5900.11  77.3802
 59.3356  6041.11  78.1771
 59.3776  5927.51  77.606
 59.4196  6035.69  78.2473
 59.4616  5890.27  77.1603
 59.5036  5850.37  76.9331
 59.5456  6154.46  78.5979
 59.5876  6006.44  77.8375
 59.6296  5988.87  77.7925
 59.6716  5929.62  77.4641
 59.7136  6017.36  78.0235
 59.7556  6084.04  78.5915
 59.7976  5937.97  77.3867
 59.8396  5865.64  76.8097
 59.8816  5997.57  78.2121
 59.9236  5775.96  76.4052
 59.9656  5981.72  78.0137
 60.0076  5881.8  76.7251
 60.0496  5795.2  76.1825
 60.0916  6029.72  77.606
 60.1336  5847.79  77.5157
 60.1756  6001.63  79.7092
 60.1996  5899.33  81.2371