File: docs/examples/opeando_xrd/IS17_D/Data/IS17_D/17_Da_f00037.xye
# /beamlines/bl04/projects/cycle2025-II/20250340211-lsimonelli/DATA/IS17_D/17_Da_f00037.xye : mythproc.py merge -s 0.006 -l 0.5 -f /beamlines/bl04/inhouse/ff/FlatField/ff_20Nov2024rod8mm60s_17keV.raw -b True -c true -o xye /beamlines/bl04/projects/cycle2025-II/20250340211-lsimonelli/DATA/IS17_D/17_Da_00037.dat
# IsMon = [6755016, 6756327, 6757396]  IsPos = [-1.4999, -2.4885, -3.4988]
# Wave = 0.4962  CalPath /beamlines/bl04/projects/cycle2025-II/20250340211-lsimonelli/DATA/Align/Si_Pos1_25keV_f00001.cal
# Date = 2025-09-24_03:52:12 Dt = 4.8000  Bin = 0.0060  <imon> = 6756246 +/- 973 (Min/Max) 6755016 / 6757396
# icurr 249.7356  mocoIn 1.7043E-05  mocoOut 0.7998  i15 7.0729e+06  imon 6.75625e+06  i7 5.0000  iEMpd_timer 4.8000  iEMpd_1 3.3081E-08  iEMpd_2 7.7577E-08  iEMpd_3 1.6436E-08  iEMpd_4 4.7478E-08  iEMhp_timer 4.8000  iEMhp_1 4.8802E-06  iEMhp_2 -2.4200E-08  iEMhp_3 -2.3026E-08  iEMhp_4 -2.1787E-08
#      9776
 1.5856  40737.6  207.272
 1.6276  47356.4  219.642
 1.6696  54405.2  234.591
 1.7116  62716  252.365
 1.7536  72024.8  269.294
 1.7956  77129  279.369
 1.8376  73465.8  273.086
 1.8796  61939.4  248.907
 1.9216  49475.3  223.343
 1.9636  41665.9  204.12
 2.0056  37461.3  192.797
 2.0476  34563  187.218
 2.0896  33132.4  182.228
 2.1316  32421.3  179.395
 2.1736  31234.5  177.478
 2.2156  31345.7  176.367
 2.2576  30141.1  173.563
 2.2996  28985.3  170.829
 2.3416  29267.9  170.291
 2.3836  28869.7  169.232
 2.4256  27925.1  166.982
 2.4676  27662.8  165.961
 2.5096  27424.8  165.3
 2.5516  26569.7  166.457
 2.5936  26669.8  163.41
 2.6356  26058.3  162.207
 2.6776  26124.1  161.314
 2.7196  25689.3  160.471
 2.7616  25731.2  160.383
 2.8036  25234.1  158.995
 2.8456  25136.2  159.299
 2.8876  24673.9  157.676
 2.9296  24338.8  156.753
 2.9716  24245.5  155.95
 3.0136  24045.4  155.37
 3.0556  24094.7  155.923
 3.0976  23857.6  154.094
 3.1396  23648  154.13
 3.1816  23446.8  153.404
 3.2236  23253.8  152.758
 3.2656  23298.8  151.965
 3.3076  22820.2  151.828
 3.3496  23148.9  152.113
 3.3916  23591.8  153.144
 3.4336  24132.6  155.463
 3.4756  24342.5  156.065
 3.5176  25489.4  159.495
 3.5596  25301.5  161.325
 3.6016  25531.9  159.677
 3.6436  24551.6  157.669
 3.6856  24052.7  154.379
 3.7276  23146.9  152.521
 3.7696  22981  152.161
 3.8116  22664.6  151.003
 3.8536  22511.3  150.424
 3.8956  22636.6  150.67
 3.9376  22329.6  149.894
 3.9796  22193.8  148.953
 4.0216  22371.3  148.597
 4.0636  22506  150.506
 4.1056  22343.2  149.605
 4.1476  22653.4  150.956
 4.1896  22746  151.123
 4.2316  23058.9  151.981
 4.2736  23338.6  152.69
 4.3156  23608.9  153.802
 4.3576  24359.6  156.16
 4.3996  24723.1  157.575
 4.4416  25099.6  158.357
 4.4836  25791.6  160.676
 4.5256  25988.3  161.898
 4.5676  26080.8  162.436
 4.6096  26514  162.447
 4.6516  26830.9  163.124
 4.6936  27163.2  164.937
 4.7356  27298.5  165.182
 4.7776  27173  164.633
 4.8196  26924.6  164.523
 4.8616  26346.7  162.365
 4.9036  26246.2  161.676
 4.9456  25970.4  161.465
 4.9876  25635.8  160.322
 5.0296  25721.7  160.412
 5.0716  25736.3  161.082
 5.1136  25742.5  160.958
 5.1556  26196.9  161.839
 5.1976  26489  162.735
 5.2396  26697.3  163.07
 5.2816  26438.3  162.737
 5.3236  26639.6  163.061
 5.3656  26031.6  162.097
 5.4076  25956.9  162.014
 5.4496  26175.4  162.179
 5.4916  26075.5  161.636
 5.5336  26205.3  162.04
 5.5756  25833.2  160.918
 5.6176  26035.9  160.993
 5.6596  26115.3  162.199
 5.7016  26309.5  162.074
 5.7436  26500.6  162.927
 5.7856  26453.3  162.841
 5.8276  26759.6  163.509
 5.8696  26830  163.891
 5.9116  26868.5  164.608
 5.9536  27068.5  164.976
 5.9956  27313.9  165.097
 6.0376  27429.5  166.072
 6.0796  27569  166.328
 6.1216  27715  166.966
 6.1636  27802.9  166.306
 6.2056  27873.2  167.173
 6.2476  28076.6  167.657
 6.2896  28340  168.127
 6.3316  28046.7  167.427
 6.3736  28223.2  167.847
 6.4156  28522.4  168.635
 6.4576  28616.4  168.521
 6.4996  28750.2  169.387
 6.5416  28717.3  169.425
 6.5836  28807.1  169.916
 6.6256  28917.7  169.81
 6.6676  29330  170.59
 6.7096  29228.9  171.139
 6.7516  29689.4  172.138
 6.7936  29683.3  171.559
 6.8356  29728.3  171.761
 6.8776  30310.9  174.234
 6.9196  30282.7  174.55
 6.9616  30789.1  175.425
 7.0036  31119.6  176.046
 7.0456  31144  175.416
 7.0876  30813.3  176.15
 7.1296  31081.8  176.061
 7.1716  31040.3  175.484
 7.2136  30757.9  174.471
 7.2556  31035.5  175.413
 7.2976  30902.5  175.532
 7.3396  30720.3  175.223
 7.3816  30691.9  175.352
 7.4236  31006.2  175.55
 7.4656  31134.5  175.407
 7.5076  31411.8  176.316
 7.5496  31368.5  176.722
 7.5916  31436.3  176.946
 7.6336  31765.2  177.77
 7.6756  31695  177.422
 7.7176  32145.5  178.988
 7.7596  32087.6  180.058
 7.8016  32321.8  182.852
 7.8436  32972.2  181.396
 7.8856  32925.4  180.882
 7.9276  33759.3  183.55
 7.9696  33688.5  183.668
 8.0116  34830.1  185.303
 8.0536  34913.9  185.78
 8.0956  34721  186.429
 8.1376  35434.6  187.808
 8.1796  35521.8  188.577
 8.2216  36358.5  189.533
 8.2636  36659.6  190.559
 8.3056  36178.4  190.066
 8.3476  36975.4  191.486
 8.3896  36588.3  190.558
 8.4316  36522.4  190.55
 8.4736  36564.3  190.129
 8.5156  36577.3  190.44
 8.5576  36167.4  190.329
 8.5996  35953  188.654
 8.6416  35895.6  189.75
 8.6836  35647.2  188.922
 8.7256  36068.6  189.492
 8.7676  35460.3  190.733
 8.8096  35590.1  188.433
 8.8516  35248.9  187.154
 8.8936  35073.2  186.589
 8.9356  35014.6  186.77
 8.9776  35143.6  187.205
 9.0196  34661.6  185.601
 9.0616  34922.4  185.783
 9.1036  34113.3  184.768
 9.1456  34657.4  185.597
 9.1876  34605  185.412
 9.2296  34582.5  184.761
 9.2716  34093.6  183.516
 9.3136  33829.6  182.79
 9.3556  34262.1  183.934
 9.3976  32866.7  180.672
 9.4396  33514.3  182.337
 9.4816  32651.7  179.836
 9.5236  32780.6  180.103
 9.5656  32798.8  180.478
 9.6076  32274.2  179.541
 9.6496  31923.5  178.488
 9.6916  32410.1  179.811
 9.7336  32066.1  178.643
 9.7756  32440  180.998
 9.8176  31573.5  177.997
 9.8596  31580.1  176.499
 9.9016  31159.4  175.313
 9.9436  30754.4  174.084
 9.9856  30468.5  173.485
 10.0276  30343.7  174.219
 10.0696  30450  173.586
 10.1116  29641.1  171.519
 10.1536  29446.9  171.119
 10.1956  28809.8  168.867
 10.2376  28707.7  168.092
 10.2796  28871.1  168.687
 10.3216  28600.9  168.163
 10.3636  28130.1  166.803
 10.4056  27879.9  166.44
 10.4476  28006.4  166.456
 10.4896  28099.6  166.201
 10.5316  27441.8  164.931
 10.5736  27294.2  164.881
 10.6156  26974.7  163.69
 10.6576  27128.1  162.762
 10.6996  26955  162.878
 10.7416  26444.3  161.565
 10.7836  26677.9  162.947
 10.8256  26128.1  161.678
 10.8676  26318.3  161.808
 10.9096  25838.9  160.369
 10.9516  25864.4  159.4
 10.9936  25730.6  159.186
 11.0356  25664.6  159.601
 11.0776  25379.3  158.044
 11.1196  25047.3  157.737
 11.1616  24790.7  156.622
 11.2036  25003.4  157.152
 11.2456  24874.7  157.427
 11.2876  24770.9  156.845
 11.3296  24488.2  155.844
 11.3716  24859.7  156.716
 11.4136  24775.6  157.325
 11.4556  24845.5  157.225
 11.4976  25215.1  157.383
 11.5396  25523.9  158.513
 11.5816  25964.1  160.333
 11.6236  25930.9  160.665
 11.6656  25527.5  158.359
 11.7076  24825.6  156.987
 11.7496  24362.1  159.365
 11.7916  24197.5  154.273
 11.8336  23950.1  154.37
 11.8756  23943  153.872
 11.9176  23846.1  153.224
 11.9596  23319.3  151.702
 12.0016  23642.8  153.527
 12.0436  23558  152.689
 12.0856  23355  152.54
 12.1276  23363.3  152.48
 12.1696  23139  150.909
 12.2116  23622.5  152.476
 12.2536  23271.7  152.152
 12.2956  23225  151.344
 12.3376  22977.8  150.747
 12.3796  23150.2  151.755
 12.4216  23195.8  151.141
 12.4636  22781.3  150.672
 12.5056  22984.5  150.631
 12.5476  23197.8  150.869
 12.5896  23166  151.382
 12.6316  22893.8  150.657
 12.6736  22986.7  151.429
 12.7156  22704.4  150.367
 12.7576  23026.9  151.667
 12.7996  22981  150.19
 12.8416  22727.6  150.383
 12.8836  23365.6  152.31
 12.9256  23359.5  151.333
 12.9676  23424.6  151.949
 13.0096  23227.1  152.388
 13.0516  23610.9  152.694
 13.0936  23681.9  153.311
 13.1356  23831.1  152.798
 13.1776  23719.7  153.412
 13.2196  23608.9  152.716
 13.2616  23706  153.334
 13.3036  23819.9  153.677
 13.3456  23699.6  153.437
 13.3876  23443.7  152.117
 13.4296  23592.1  152.743
 13.4716  23677.9  152.637
 13.5136  23704  152.873
 13.5556  23746.3  153.605
 13.5976  23840.2  154.045
 13.6396  23805.5  153.322
 13.6816  23693  153.446
 13.7236  24250.2  154.891
 13.7656  23436.6  152.791
 13.8076  23537.1  151.93
 13.8496  23404.1  152.087
 13.8916  23541.4  153.516
 13.9336  23379.8  152.223
 13.9756  23251.9  151.177
 14.0176  23025.6  151.107
 14.0596  23162.1  151.518
 14.1016  22836.7  150.839
 14.1436  22741.4  149.674
 14.1856  22404.9  148.851
 14.2276  22293.9  148.956
 14.2696  22535.1  149.601
 14.3116  22245.1  148.539
 14.3536  22018.9  147.959
 14.3956  21775.5  146.872
 14.4376  21916.7  147.126
 14.4796  21836.9  146.848
 14.5216  21437.2  146.286
 14.5636  21245.9  145.203
 14.6056  21499.6  145.652
 14.6476  21376.9  144.485
 14.6896  21082.2  144.015
 14.7316  20642.9  143.513
 14.7736  20670  142.772
 14.8156  20596.7  142.552
 14.8576  20392  141.694
 14.8996  19926.2  141.244
 14.9416  19775.4  140.711
 14.9836  19765.4  140.641
 15.0256  19573.4  138.896
 15.0676  19700.9  139.658
 15.1096  19492.7  138.659
 15.1516  19308.5  138.555
 15.1936  19047.7  137.052
 15.2356  18844.3  136.592
 15.2776  18885.8  136.335
 15.3196  18474.8  135.826
 15.3616  18438.4  135.45
 15.4036  18309.6  134.834
 15.4456  18546.7  135.365
 15.4876  18354.9  134.347
 15.5296  18092.6  133.662
 15.5716  17592  131.416
 15.6136  17761.7  132.366
 15.6556  17865.4  132.005
 15.6976  17746  131.638
 15.7396  17709.9  132.101
 15.7816  17319.2  130.156
 15.8236  17131.2  130.131
 15.8656  17272  130.461
 15.9076  16903  128.884
 15.9496  17084.2  132.329
 15.9916  16926.1  132.145
 16.0336  16609.4  127.87
 16.0756  16812.7  128.952
 16.1176  16635.1  128.336
 16.1596  16337.1  128.336
 16.2016  16558.4  127.97
 16.2436  16274.9  127.248
 16.2856  16153.5  126.32
 16.3276  15901.2  125.74
 16.3696  16147.9  126.534
 16.4116  15901.1  126.013
 16.4536  16118.6  126.653
 16.4956  16003.1  125.95
 16.5376  15955.7  125.948
 16.5796  15868.7  124.974
 16.6216  15766.5  124.867
 16.6636  15771.2  125.036
 16.7056  15736.3  124.771
 16.7476  15942.1  125.123
 16.7896  15752  125.105
 16.8316  15757.3  125.086
 16.8736  15726.9  125.234
 16.9156  15896.9  126.232
 16.9576  15555  125.653
 16.9996  15627.8  126.427
 17.0416  15873.7  125.79
 17.0836  15696.1  124.847
 17.1256  15448.8  123.861
 17.1676  15634.4  124.608
 17.2096  15311  123.191
 17.2516  15437.7  123.478
 17.2936  15343.8  123.409
 17.3356  14938.1  121.791
 17.3776  15005.5  122.248
 17.4196  14989.6  121.882
 17.4616  14911.4  121.487
 17.5036  14677.3  120.887
 17.5456  14527.5  120.896
 17.5876  14520.6  119.935
 17.6296  14535.7  119.824
 17.6716  14334.7  119.546
 17.7136  14237.1  119.278
 17.7556  14178.8  119.316
 17.7976  14204.6  119.039
 17.8396  14073.7  118.136
 17.8816  14118.2  118.85
 17.9236  14092.9  118.561
 17.9656  14186.9  119.638
 18.0076  14079.7  118.617
 18.0496  14037.8  117.596
 18.0916  13962.5  117.802
 18.1336  13939.9  117.803
 18.1756  14137.6  118.175
 18.2176  13762.5  116.815
 18.2596  13842.2  116.896
 18.3016  14014  117.866
 18.3436  14105.6  118.491
 18.3856  13679.4  116.593
 18.4276  13971.4  117.517
 18.4696  13776.8  116.784
 18.5116  13773  117.048
 18.5536  13901  117.932
 18.5956  13719.4  116.726
 18.6376  13731.7  117.172
 18.6796  13583.4  115.879
 18.7216  13749.1  117.139
 18.7636  13429.4  115.682
 18.8056  13426.8  115.619
 18.8476  13461.9  116.379
 18.8896  13435.6  115.619
 18.9316  13695.9  116.555
 18.9736  13544.6  115.775
 19.0156  13422.1  115.641
 19.0576  13471.1  114.752
 19.0996  13590.5  115.954
 19.1416  13247.9  114.861
 19.1836  13256.5  114.51
 19.2256  13266.8  114.767
 19.2676  13449.1  115.637
 19.3096  13452.4  115.896
 19.3516  13248.4  114.974
 19.3936  13408.9  115.569
 19.4356  13494.3  115.812
 19.4776  13393.4  115.471
 19.5196  13503.9  115.799
 19.5616  13322.7  115.272
 19.6036  13310.5  114.718
 19.6456  13324.2  114.906
 19.6876  13528.3  115.434
 19.7296  13377.1  115.235
 19.7716  13297.5  114.895
 19.8136  13394.4  115.668
 19.8556  13631.9  116.176
 19.8976  13499.9  115.676
 19.9396  13747.6  116.321
 19.9816  13832.8  116.908
 20.0236  13948.8  117.621
 20.0656  14162  118.511
 20.1076  14174.4  119.022
 20.1496  14311.6  119.609
 20.1916  14377.9  119.391
 20.2336  13976.4  117.644
 20.2756  13835.9  117.483
 20.3176  13489.4  115.753
 20.3596  13402.3  115.352
 20.4016  13355.9  114.963
 20.4436  13274.8  115.167
 20.4856  13057.6  114.013
 20.5276  12983.4  114.125
 20.5696  13015.2  113.75
 20.6116  13060.3  114.213
 20.6536  12914.1  113.147
 20.6956  12951.3  113.369
 20.7376  12955.6  113.622
 20.7796  12777.4  112.531
 20.8216  12935.5  112.939
 20.8636  12657.4  112.074
 20.9056  12789.4  112.61
 20.9476  12492.3  111.133
 20.9896  12786.2  112.307
 21.0316  12882.8  112.628
 21.0736  12577.8  111.794
 21.1156  12617.9  112.13
 21.1576  12685.5  112.477
 21.1996  12593.3  112.049
 21.2416  12586.4  111.85
 21.2836  12602  111.882
 21.3256  12365  110.912
 21.3676  12557  111.327
 21.4096  12433.3  111.08
 21.4516  12419.5  110.901
 21.4936  12243  110.353
 21.5356  12481.2  111.372
 21.5776  12560.2  111.558
 21.6196  12218.5  110.06
 21.6616  12332.8  110.663
 21.7036  12357.3  110.559
 21.7456  12399.9  110.822
 21.7876  12283  110.052
 21.8296  12204.7  109.563
 21.8716  12282  110.137
 21.9136  12516.1  111.374
 21.9556  12298.1  110.084
 21.9976  12213.4  109.716
 22.0396  12196.2  109.887
 22.0816  12206.7  110.466
 22.1236  12365.2  110.636
 22.1656  12312.6  110.577
 22.2076  12391.3  110.361
 22.2496  12300.4  109.984
 22.2916  12310.5  109.9
 22.3336  12386.9  110.952
 22.3756  12351.6  110.536
 22.4176  12156.1  109.514
 22.4596  12092.6  109.806
 22.5016  12272.3  110.118
 22.5436  12283.4  110.053
 22.5856  12357.5  110.623
 22.6276  12207.6  110.09
 22.6696  12212.1  110.449
 22.7116  12145.3  109.678
 22.7536  12342.5  110.539
 22.7956  12165.5  109.082
 22.8376  12236.6  109.917
 22.8796  12136.6  109.274
 22.9216  12323.3  110.649
 22.9636  12063.7  108.649
 23.0056  12032.1  108.637
 23.0476  12428.9  110.984
 23.0896  12457.5  110.493
 23.1316  12223.1  109.878
 23.1736  12284.1  113.068
 23.2156  12383.2  110.914
 23.2576  12277.9  110.58
 23.2996  12408.5  110.949
 23.3416  12229.5  110.649
 23.3836  12339.4  110.398
 23.4256  12366.8  110.638
 23.4676  12235.5  109.75
 23.5096  12140.6  109.985
 23.5516  11982.5  108.569
 23.5936  12228.8  110.557
 23.6356  12495.3  111.431
 23.6776  12153.3  110.108
 23.7196  11916.3  108.608
 23.7616  12287.7  110.208
 23.8036  12159.6  109.677
 23.8456  12193.2  109.402
 23.8876  11959  108.697
 23.9296  11860.1  108.722
 23.9716  11989.6  108.52
 24.0136  12084.4  109.836
 24.0556  11860.2  108.554
 24.0976  11777.4  107.984
 24.1396  11768.8  110.554
 24.1816  11890.5  109.889
 24.2236  11712.7  108.359
 24.2656  11586.2  107.255
 24.3076  11515.8  107.178
 24.3496  11532.2  107.143
 24.3916  11585.6  107.443
 24.4336  11229.1  105.975
 24.4756  11435.9  106.825
 24.5176  11463  106.6
 24.5596  11322.4  106.071
 24.6016  11352  106.488
 24.6436  11190  105.227
 24.6856  11285.7  105.444
 24.7276  11314.9  105.891
 24.7696  11251.1  105.706
 24.8116  11190.7  105.597
 24.8536  11050.4  104.927
 24.8956  11037.5  104.611
 24.9376  11158.9  105.127
 24.9796  11013.5  104.786
 25.0216  10851  104.122
 25.0636  10974.6  104.368
 25.1056  10840.8  104.149
 25.1476  10969.1  106.691
 25.1896  10906.6  104.876
 25.2316  10953.3  104.376
 25.2736  10985.3  104.196
 25.3156  10782.6  103.302
 25.3576  10800.8  103.801
 25.3996  10782.3  103.688
 25.4416  10718.8  103.374
 25.4836  10597.4  103.298
 25.5256  10657.3  102.966
 25.5676  10844  103.595
 25.6096  10572.5  102.853
 25.6516  10693.6  102.947
 25.6936  10600.6  102.805
 25.7356  10575.5  102.818
 25.7776  10692.2  102.995
 25.8196  10585.8  102.704
 25.8616  10629  102.84
 25.9036  10644.7  102.398
 25.9456  10652.4  103.022
 25.9876  10408.8  101.9
 26.0296  10707.1  102.953
 26.0716  10506.9  102.314
 26.1136  10589.8  102.663
 26.1556  10648.1  102.33
 26.1976  10424.8  102.161
 26.2396  10541.8  102.149
 26.2816  10497.1  102.288
 26.3236  10530.8  102.606
 26.3656  10484.7  102.11
 26.4076  10555.6  102.654
 26.4496  10947.5  104.099
 26.4916  10679.5  102.768
 26.5336  10493.4  102.182
 26.5756  10890.7  103.942
 26.6176  10440.6  101.839
 26.6596  10423.9  102.056
 26.7016  10444.4  101.922
 26.7436  10242  101.059
 26.7856  10232  100.991
 26.8276  10238  100.971
 26.8696  10302.9  101.174
 26.9116  10249.1  100.852
 26.9536  10196.6  100.639
 26.9956  10193.1  100.647
 27.0376  10072.1  100.266
 27.0796  10199.9  100.711
 27.1216  10083.5  100.133
 27.1636  9907.97  99.419
 27.2056  10120.3  100.363
 27.2476  10101.5  100.269
 27.2896  10123.1  100.484
 27.3316  9898.4  99.0837
 27.3736  10037.6  100.039
 27.4156  9962.73  99.5106
 27.4576  10115.6  100.501
 27.4996  9933.36  99.191
 27.5416  9997.91  99.8267
 27.5836  9872.8  99.0259
 27.6256  10158.8  100.621
 27.6676  10188.7  100.781
 27.7096  9870.65  99.0594
 27.7516  9895.33  99.3352
 27.7936  9904.79  99.55
 27.8356  9835.91  98.8298
 27.8776  9908.81  99.237
 27.9196  9636.75  97.724
 27.9616  9955.06  99.5126
 28.0036  9789.59  98.656
 28.0456  9719.11  98.4279
 28.0876  9690.8  98.3748
 28.1296  9703.71  98.2838
 28.1716  9755.26  98.5533
 28.2136  9773.76  98.6102
 28.2556  9521.85  97.4396
 28.2976  9639.96  98.0363
 28.3396  9658.18  97.9284
 28.3816  9751.57  98.3884
 28.4236  9677.79  98.1608
 28.4656  9498.8  97.2879
 28.5076  9689.06  97.8974
 28.5496  9465.66  97.0194
 28.5916  9647.29  97.7577
 28.6336  9378.75  96.7137
 28.6756  9651.77  97.3286
 28.7176  9550.67  97.3534
 28.7596  9486.38  96.9284
 28.8016  9576.42  97.4199
 28.8436  9333.85  96.4143
 28.8856  9615.31  97.7112
 28.9276  9487.43  97.3001
 28.9696  9388.28  96.458
 29.0116  9456.95  96.9911
 29.0536  9220.02  95.9582
 29.0956  9414.6  96.6933
 29.1376  9410.46  96.6336
 29.1796  9309.55  96.1545
 29.2216  9315.75  96.0326
 29.2636  9331.75  96.1121
 29.3056  9373.03  96.201
 29.3476  9431.89  97.0184
 29.3896  9468.21  97.2882
 29.4316  9469.66  96.6529
 29.4736  9287.07  95.7764
 29.5156  9586.72  97.2353
 29.5576  9344  96.7228
 29.5996  9372.12  96.137
 29.6416  9285.1  95.8015
 29.6836  9341.09  96.0223
 29.7256  9281.16  96.2703
 29.7676  9212.31  95.5791
 29.8096  9352.42  96.248
 29.8516  9137.01  95.457
 29.8936  9250.76  96.1419
 29.9356  9412.98  96.7381
 29.9776  9250.37  96.0497
 30.0196  9240.22  95.3963
 30.0616  9285.02  95.9965
 30.1036  9324.06  96.0235
 30.1456  9265.9  95.9543
 30.1876  9201.22  95.5988
 30.2296  9165.73  95.3603
 30.2716  9269.57  95.5435
 30.3136  9169.32  95.8665
 30.3556  9254.65  96.3252
 30.3976  9108.09  97.0476
 30.4396  9200.05  94.9285
 30.4816  9181.28  94.4355
 30.5236  9124.35  94.1651
 30.5656  9077.24  94.5527
 30.6076  9106.49  94.147
 30.6496  9246.94  95.2489
 30.6916  9058.82  94.3658
 30.7336  9032.24  94.3768
 30.7756  9039.76  94.5065
 30.8176  9110.25  94.7914
 30.8596  9176.67  94.9059
 30.9016  8999.21  94.3208
 30.9436  9212.33  95.1867
 30.9856  9078.22  94.5955
 31.0276  9132.56  94.4976
 31.0696  8943.13  94.0731
 31.1116  9062.45  94.6734
 31.1536  9097.98  94.7426
 31.1956  8928.47  93.9432
 31.2376  8966.52  94.1418
 31.2796  8843.6  93.0541
 31.3216  8879.98  93.191
 31.3636  8957.41  94.2747
 31.4056  9023.76  95.9167
 31.4476  8952.47  93.4693
 31.4896  8881.87  93.5902
 31.5316  9004  93.6872
 31.5736  9056.4  93.7367
 31.6156  8963.63  93.2758
 31.6576  8974.2  93.4297
 31.6996  9047.91  93.4878
 31.7416  8755.64  92.9971
 31.7836  8848.16  92.5239
 31.8256  8790.56  92.5621
 31.8676  8876.48  92.9324
 31.9096  8750.8  92.6204
 31.9516  8617.67  92.0616
 31.9936  8751.6  92.6105
 32.0356  8833.18  93.1076
 32.0776  8852.08  93.0935
 32.1196  8895.26  93.4037
 32.1616  8820.29  92.4849
 32.2036  8675.23  92.2069
 32.2456  8627.24  92.3334
 32.2876  8818.12  92.6859
 32.3296  8642.39  91.8895
 32.3716  8698.6  92.2839
 32.4136  8744.38  92.7373
 32.4556  8743.85  92.186
 32.4976  8726.95  91.9463
 32.5396  8680.21  91.771
 32.5816  8610.86  91.5233
 32.6236  8698.53  92.0594
 32.6656  8828.31  93.2707
 32.7076  8587.33  91.6543
 32.7496  8700.11  91.931
 32.7916  8667.43  91.7116
 32.8336  8716.08  92.0638
 32.8756  8773.7  92.0962
 32.9176  8574.61  91.519
 32.9596  8568.62  91.5559
 33.0016  8608.95  91.5745
 33.0436  8648.01  91.946
 33.0856  8571.21  91.6066
 33.1276  8370.99  90.2744
 33.1696  8580.24  91.2394
 33.2116  8608.86  91.6191
 33.2536  8675.8  91.9718
 33.2956  8619.61  91.7565
 33.3376  8560.65  91.1878
 33.3796  8626.81  91.7384
 33.4216  8598.96  91.1909
 33.4636  8518.07  90.9028
 33.5056  8459.93  90.8408
 33.5476  8506.49  91.0757
 33.5896  8659.86  91.635
 33.6316  8481.51  91.0296
 33.6736  8441.46  91.048
 33.7156  8523  91.5357
 33.7576  8573.69  91.4419
 33.7996  8544.9  91.053
 33.8416  8337.04  90.1109
 33.8836  8537.19  90.9778
 33.9256  8447.36  90.5631
 33.9676  8552.73  91.0237
 34.0096  8305.01  89.9988
 34.0516  8356.12  89.9198
 34.0936  8358.89  90.1951
 34.1356  8414.05  90.2407
 34.1776  8399.22  90.1737
 34.2196  8289.02  89.7527
 34.2616  8228.84  89.56
 34.3036  8292.95  90.153
 34.3456  8292.21  89.8926
 34.3876  8306.11  89.9473
 34.4296  8320.95  89.7195
 34.4716  8375.02  90.1586
 34.5136  8352.35  90.2374
 34.5556  8282.06  90.1091
 34.5976  8398.39  90.5399
 34.6396  8169.44  89.0215
 34.6816  8321.62  89.9574
 34.7236  8270.4  89.4687
 34.7656  8171.79  89.1213
 34.8076  8213.66  89.6669
 34.8496  8281.69  89.8953
 34.8916  8330.91  90.0412
 34.9336  8390.44  90.3255
 34.9756  8571.82  91.1947
 35.0176  8372.22  90.6709
 35.0596  8310.11  90.1589
 35.1016  8311.92  89.9377
 35.1436  8308.75  89.6128
 35.1856  8182.35  89.057
 35.2276  8342.99  90.1009
 35.2696  8269.06  89.888
 35.3116  8287.8  90.0787
 35.3536  8220.69  89.4328
 35.3956  8166.97  88.8545
 35.4376  8152.18  89.3184
 35.4796  8300.19  90.1856
 35.5216  8212.74  89.6646
 35.5636  7969.02  89.0493
 35.6056  8257.55  89.6786
 35.6476  8167.27  89.0878
 35.6896  8198.5  89.42
 35.7316  8131.79  88.9475
 35.7736  7993.38  88.3852
 35.8156  8097.35  88.9472
 35.8576  8098.72  89.2125
 35.8996  8193.07  89.6906
 35.9416  8190.8  89.193
 35.9836  8110.32  89.1006
 36.0256  8130.61  89.2281
 36.0676  8147.14  88.8622
 36.1096  8016.55  88.4981
 36.1516  8080.45  88.7407
 36.1936  8126.33  88.8457
 36.2356  8167.26  89.7002
 36.2776  8119.89  88.9284
 36.3196  8050.97  88.2229
 36.3616  8090.23  88.5715
 36.4036  8026.15  88.2683
 36.4456  7985.28  88.2596
 36.4876  7997.18  88.2613
 36.5296  8079.82  88.7559
 36.5716  7983.91  88.991
 36.6136  8210.71  89.0226
 36.6556  8241.96  89.3984
 36.6976  8036.97  88.7691
 36.7396  8057.47  88.6182
 36.7816  7989.55  88.6124
 36.8236  8023.47  88.7222
 36.8656  7948.25  88.3616
 36.9076  7903.09  88.1321
 36.9496  7998.14  88.5209
 36.9916  7966.61  87.9837
 37.0336  8159.15  89.3512
 37.0756  7935.43  87.9152
 37.1176  7872.91  87.8325
 37.1596  7919.62  88.092
 37.2016  7926.07  88.3103
 37.2436  8044.79  88.3417
 37.2856  7879.89  87.6768
 37.3276  8001.53  87.7134
 37.3696  7912.03  88.0952
 37.4116  7861.62  87.7193
 37.4536  7805.95  87.2788
 37.4956  7890.09  87.7853
 37.5376  7973.96  89.7971
 37.5796  7801.21  88.7798
 37.6216  7755.99  86.826
 37.6636  7750.17  86.6945
 37.7056  7780.81  87.0525
 37.7476  7739.98  86.3683
 37.7896  7757.75  86.9575
 37.8316  7635.43  86.4383
 37.8736  7764.64  86.6985
 37.9156  7757.65  86.6618
 37.9576  7871.96  87.1959
 37.9996  7716.36  86.0368
 38.0416  7734.43  86.9457
 38.0836  7867.74  87.5959
 38.1256  7759.06  86.9369
 38.1676  7484.2  85.524
 38.2096  7739.75  86.6061
 38.2516  7854  87.4405
 38.2936  7718.15  86.4852
 38.3356  7804.93  86.8882
 38.3776  7601.95  86.0181
 38.4196  7705.27  86.4565
 38.4616  7644.72  86.3441
 38.5036  7887.84  87.5512
 38.5456  7697.3  87.3084
 38.5876  7721.14  87.4674
 38.6296  7612.16  85.8588
 38.6716  7604.27  85.6134
 38.7136  7491.56  84.9196
 38.7556  7564.54  85.8263
 38.7976  7599.42  85.9634
 38.8396  7630.17  86.5801
 38.8816  7533.29  85.8082
 38.9236  7588.37  85.9431
 38.9656  7621  86.0415
 39.0076  7683.63  85.8114
 39.0496  7624.19  86.0125
 39.0916  7773.63  86.4913
 39.1336  7716.87  86.5888
 39.1756  7641.02  86.2302
 39.2176  7584.79  86.4316
 39.2596  7549.15  86.1493
 39.3016  7597.65  85.9957
 39.3436  7533.08  86.0562
 39.3856  7689.09  86.4018
 39.4276  7625.79  86.5294
 39.4696  7613.31  86.0894
 39.5116  7549.64  86.2317
 39.5536  7777.86  87.9442
 39.5956  7735.93  86.8201
 39.6376  7627.01  86.2111
 39.6796  7674.61  86.2272
 39.7216  7630.69  86.0745
 39.7636  7626  86.6091
 39.8056  7656.88  86.5681
 39.8476  7562.65  86.2819
 39.8896  7646.36  86.3895
 39.9316  7510.63  85.8655
 39.9736  7732.28  86.6971
 40.0156  7660.86  86.1199
 40.0576  7638.66  86.3498
 40.0996  7720.66  86.0169
 40.1416  7733.45  86.859
 40.1836  7715.59  86.659
 40.2256  7726.17  86.7631
 40.2676  7594.01  86.1206
 40.3096  7770.6  87.0452
 40.3516  7704.55  86.7738
 40.3936  7742.89  86.5577
 40.4356  7619.74  86.0595
 40.4776  7752.75  87.2184
 40.5196  7677.83  86.9124
 40.5616  7747.28  86.956
 40.6036  7631.89  86.5524
 40.6456  7723.26  86.6876
 40.6876  7826.59  87.2473
 40.7296  7723.3  86.81
 40.7716  7712.18  86.8759
 40.8136  7770.65  87.1459
 40.8556  7682.52  86.7817
 40.8976  7711.29  86.8619
 40.9396  7650.14  86.8636
 40.9816  7703.43  86.4632
 41.0236  7771.95  86.6263
 41.0656  7797.18  87.304
 41.1076  7771.02  86.9294
 41.1496  7761.76  86.7881
 41.1916  7634.97  86.3932
 41.2336  7723.57  86.8824
 41.2756  7671.54  86.2017
 41.3176  7680.21  86.8544
 41.3596  7541.11  85.8015
 41.4016  7663  86.7437
 41.4436  7728.36  86.9041
 41.4856  7793.47  87.429
 41.5276  7723.69  87.0598
 41.5696  7685.18  86.4618
 41.6116  7663.76  86.7466
 41.6536  7692.63  86.7717
 41.6956  7777.78  87.3015
 41.7376  7594.68  86.2969
 41.7796  7685.25  86.7333
 41.8216  7730.64  87.1811
 41.8636  7731.72  87.126
 41.9056  7626.17  86.3264
 41.9476  7784.78  87.4511
 41.9896  7668.54  86.4703
 42.0316  7718.55  86.8258
 42.0736  7647.96  86.5434
 42.1156  7566.68  85.9218
 42.1576  7637.96  86.4229
 42.1996  7698.55  86.8944
 42.2416  7677.58  86.3703
 42.2836  7589.33  85.9874
 42.3256  7501.73  85.5975
 42.3676  7599.2  85.9634
 42.4096  7616.64  86.0193
 42.4516  7583.68  85.9229
 42.4936  7619.87  86.1989
 42.5356  7616.73  86.3101
 42.5776  7677.36  86.5903
 42.6196  7637.25  86.424
 42.6616  7445.48  85.4946
 42.7036  7569.34  85.5997
 42.7456  7613.42  86.2024
 42.7876  7588.08  86.1572
 42.8296  7596.12  86.0355
 42.8716  7457  85.3959
 42.9136  7606.83  86.0463
 42.9556  7665.26  86.505
 42.9976  7553.43  85.8378
 43.0396  7617.87  85.939
 43.0816  7519.42  85.7456
 43.1236  7512.7  85.7726
 43.1656  7508.7  85.5839
 43.2076  7500.27  85.6353
 43.2496  7494.55  85.4207
 43.2916  7452.03  85.5364
 43.3336  7425.29  85.2234
 43.3756  7461.9  85.1892
 43.4176  7383.78  84.8261
 43.4596  7445.22  85.0368
 43.5016  7437.95  85.3927
 43.5436  7499.62  85.6439
 43.5856  7441.8  85.3406
 43.6276  7348.02  84.7015
 43.6696  7437.03  85.3496
 43.7116  7497.14  85.3159
 43.7536  7558.39  86.1464
 43.7956  7310.75  85.8854
 43.8376  7526.56  85.7035
 43.8796  7421.9  85.1799
 43.9216  7446.96  85.2464
 43.9636  7377.52  84.9525
 44.0056  7321.34  84.856
 44.0476  7443.11  85.1914
 44.0896  7384.54  85.1948
 44.1316  7462.7  85.3035
 44.1736  7448.66  85.2162
 44.2156  7415.95  84.8861
 44.2576  7423.41  85.2468
 44.2996  7305.78  84.5401
 44.3416  7346.4  84.5423
 44.3836  7153.52  83.7458
 44.4256  7180.29  83.5519
 44.4676  7182.77  83.72
 44.5096  7199.58  83.9575
 44.5516  7381.75  84.9739
 44.5936  7233.56  84.0756
 44.6356  7308.27  84.2503
 44.6776  7231  84.1159
 44.7196  7266.39  84.6199
 44.7616  7266.43  85.9258
 44.8036  7097.49  83.3896
 44.8456  7195.97  84.1605
 44.8876  7222.38  84.1773
 44.9296  7335.23  84.2901
 44.9716  7259.98  84.2742
 45.0136  7215.22  83.9528
 45.0556  7233.57  84.0388
 45.0976  7202.91  84.021
 45.1396  7219.65  83.8888
 45.1816  7137.26  83.3361
 45.2236  7137.03  83.238
 45.2656  7040.23  83.1609
 45.3076  7164.64  83.6793
 45.3496  7117.46  83.7014
 45.3916  7128.07  84.0213
 45.4336  7071.99  83.5429
 45.4756  6986.61  82.9015
 45.5176  7196.89  83.7589
 45.5596  7166.52  83.7022
 45.6016  7112.57  83.794
 45.6436  7079.55  82.8012
 45.6856  7107.07  83.6067
 45.7276  7079.86  84.7315
 45.7696  7154.66  84.8514
 45.8116  7150.67  84.2757
 45.8536  6960.44  83.0489
 45.8956  7170.54  83.6548
 45.9376  7076.31  82.5807
 45.9796  7031.2  82.9884
 46.0216  7151.28  84.02
 46.0636  7163.82  83.262
 46.1056  6982.51  82.1861
 46.1476  7033.24  83.0613
 46.1896  7121.41  83.7265
 46.2316  7034.73  83.0911
 46.2736  6969.52  83.0608
 46.3156  6989.55  82.7775
 46.3576  7029.99  83.2144
 46.3996  7049.45  83.4869
 46.4416  7052.6  83.0927
 46.4836  6960.81  82.8955
 46.5256  7063.21  83.4419
 46.5676  6951.84  82.8915
 46.6096  7093.71  83.6624
 46.6516  7122.05  82.8937
 46.6936  7114.92  83.3347
 46.7356  7107.34  83.3997
 46.7776  6950.7  83.2904
 46.8196  7014.58  83.2741
 46.8616  6770.62  81.7606
 46.9036  6852.98  81.9303
 46.9456  6945.38  82.1238
 46.9876  6891.11  81.8862
 47.0296  6875.56  82.4626
 47.0716  6862.34  82.2108
 47.1136  6898.44  82.1168
 47.1556  6882.94  81.8969
 47.1976  6927.16  82.2285
 47.2396  6965.1  82.8472
 47.2816  6832.44  81.7604
 47.3236  6934.58  82.7391
 47.3656  6867.24  82.2624
 47.4076  6785  81.5809
 47.4496  6875.8  82.216
 47.4916  6843.86  82.2113
 47.5336  6986.22  82.8753
 47.5756  6942.79  82.7373
 47.6176  6823.79  81.9285
 47.6596  6867.16  81.9087
 47.7016  6960.55  82.2815
 47.7436  6899.29  82.2446
 47.7856  6966.3  82.6741
 47.8276  6781.9  81.6158
 47.8696  6797.5  81.7905
 47.9116  6866.41  81.9308
 47.9536  6748.28  81.1624
 47.9956  6729.87  81.7409
 48.0376  6821.08  82.0688
 48.0796  6775.49  81.9165
 48.1216  6850.66  82.2007
 48.1636  6985.54  82.5873
 48.2056  6852.16  82.0513
 48.2476  6937.31  82.8629
 48.2896  6813.19  82.03
 48.3316  6772.33  81.7236
 48.3736  6729.08  81.4849
 48.4156  6721.99  81.3021
 48.4576  6697.64  81.4388
 48.4996  6866.28  81.9231
 48.5416  6864.7  82.2343
 48.5836  6825.72  81.682
 48.6256  6854.74  82.0479
 48.6676  6772.98  82.0642
 48.7096  6782.77  81.4156
 48.7516  6729.06  81.2302
 48.7936  6559.19  80.2601
 48.8356  6756.36  81.5121
 48.8776  6637.13  81.2594
 48.9196  6872.89  82.1462
 48.9616  6658.1  81.2234
 49.0036  6798.88  82.4222
 49.0456  6600.54  81.187
 49.0876  6640.8  81.0859
 49.1296  6467.74  80.0833
 49.1716  6509.03  80.2136
 49.2136  6657.23  81.051
 49.2556  6656.22  81.0809
 49.2976  6744.46  81.6794
 49.3396  6641.98  81.1128
 49.3816  6890.15  82.0562
 49.4236  6662.03  81.094
 49.4656  6627.35  80.9003
 49.5076  6690.53  81.0414
 49.5496  6653.36  80.872
 49.5916  6697.28  81.0588
 49.6336  6628.96  80.8442
 49.6756  6639.94  81.1399
 49.7176  6573  80.6666
 49.7596  6631.27  80.8021
 49.8016  6780.98  81.6291
 49.8436  6547.22  80.4995
 49.8856  6572.64  80.6594
 49.9276  6501.07  80.3125
 49.9696  6669.87  81.3329
 50.0116  6643.74  81.3093
 50.0536  6630.03  81.1691
 50.0956  6592.27  81.009
 50.1376  6602.79  80.7711
 50.1796  6525.75  80.5663
 50.2216  6493.08  80.352
 50.2636  6478.31  79.9013
 50.3056  6466.3  79.9899
 50.3476  6503.51  80.2446
 50.3896  6446.37  79.8584
 50.4316  6598.29  80.6319
 50.4736  6508.78  80.297
 50.5156  6521.65  80.3728
 50.5576  6505.29  80.038
 50.5996  6518.44  80.3921
 50.6416  6541.85  80.465
 50.6836  6533.7  80.4702
 50.7256  6570.08  80.63
 50.7676  6565.21  80.8681
 50.8096  6472.55  79.8825
 50.8516  6397.71  79.8206
 50.8936  6455.01  79.963
 50.9356  6491.23  80.294
 50.9776  6454.91  80.2167
 51.0196  6319.82  79.4963
 51.0616  6323.82  78.87
 51.1036  6486.7  80.2265
 51.1456  6485.96  80.1372
 51.1876  6456.11  79.3136
 51.2296  6436.52  79.8103
 51.2716  6376.05  79.1444
 51.3136  6326.15  79.2791
 51.3556  6402.07  79.385
 51.3976  6360  79.2738
 51.4396  6277.72  79.0575
 51.4816  6288.87  78.9864
 51.5236  6358.89  79.5034
 51.5656  6284.12  78.6531
 51.6076  6356.25  79.1845
 51.6496  6359.47  79.3881
 51.6916  6250.97  79.0504
 51.7336  6319.34  79.5704
 51.7756  6304.21  79.1827
 51.8176  6283.9  79.1555
 51.8596  6359.55  79.6499
 51.9016  6412.48  79.598
 51.9436  6271.24  80.1385
 51.9856  6239.06  80.3433
 52.0276  6349.55  79.596
 52.0696  6336.68  79.5783
 52.1116  6279.62  79.3299
 52.1536  6266.03  79.1388
 52.1956  6381.48  79.3328
 52.2376  6398.44  79.6151
 52.2796  6422.87  79.5788
 52.3216  6206.08  78.8957
 52.3636  6332.13  79.2781
 52.4056  6161.63  78.0676
 52.4476  6182.01  78.5498
 52.4896  6168.23  78.511
 52.5316  6220.93  78.8925
 52.5736  6130.76  78.0532
 52.6156  6210.96  78.9242
 52.6576  6364.67  79.3557
 52.6996  5963.92  77.7468
 52.7416  6302.37  79.7775
 52.7836  6273.79  79.4735
 52.8256  6261.27  78.642
 52.8676  6178.19  78.6791
 52.9096  6115.2  78.3586
 52.9516  6253.25  79.6059
 52.9936  6141.2  79.263
 53.0356  6172.98  78.4986
 53.0776  6045.99  77.951
 53.1196  6098.08  78.3965
 53.1616  6065.96  78.2326
 53.2036  6049.95  78.0921
 53.2456  5965.72  77.6397
 53.2876  6126.15  78.3903
 53.3296  6130.48  78.7365
 53.3716  6035.5  77.8803
 53.4136  6018.44  77.9133
 53.4556  6021.26  77.9563
 53.4976  5961.19  77.4205
 53.5396  6072.2  78.522
 53.5816  6052.71  78.0423
 53.6236  5922.8  77.5261
 53.6656  6081.89  78.2017
 53.7076  6198.06  78.9049
 53.7496  6031.22  77.9531
 53.7916  6168.2  78.9555
 53.8336  6024.54  77.9349
 53.8756  5915.99  77.7591
 53.9176  6124.08  78.4768
 53.9596  5998.31  78.4059
 54.0016  6071.17  78.2286
 54.0436  6026.62  78.1477
 54.0856  6076.57  77.9141
 54.1276  5990.98  77.56
 54.1696  6070.6  78.2391
 54.2116  6035.41  77.7728
 54.2536  6086.97  77.9271
 54.2956  6019.1  77.5334
 54.3376  6059.13  78.2652
 54.3796  6075.61  78.2731
 54.4216  6095.89  78.4454
 54.4636  6079.94  78.3065
 54.5056  6109.95  78.3233
 54.5476  5989.39  77.8716
 54.5896  5979.18  77.6444
 54.6316  6002.02  77.6521
 54.6736  6004.04  77.6897
 54.7156  6043.17  78.0113
 54.7576  5935.62  77.3106
 54.7996  6109.04  78.5665
 54.8416  6009.82  77.9775
 54.8836  5847.99  77.0256
 54.9256  6002.41  77.7871
 54.9676  6066.23  78.0643
 55.0096  5948.94  77.3744
 55.0516  5982.79  77.7564
 55.0936  5981.48  77.4526
 55.1356  5875.26  76.8019
 55.1776  5992.45  77.8246
 55.2196  6034.98  77.8872
 55.2616  5990.41  77.8085
 55.3036  5942.66  77.6561
 55.3456  6020.69  78.3045
 55.3876  6025.3  78.0865
 55.4296  5956.52  77.6147
 55.4716  5991.74  77.8776
 55.5136  5993.15  77.6523
 55.5556  5967.87  77.5564
 55.5976  5974.31  77.6573
 55.6396  5972.44  77.5868
 55.6816  6007.31  77.6963
 55.7236  5985.15  77.589
 55.7656  6011.75  77.5264
 55.8076  6025.27  77.5985
 55.8496  5935.84  77.3326
 55.8916  5961.08  77.6614
 55.9336  5927.14  77.2992
 55.9756  5937.76  77.2615
 56.0176  5907.87  77.2124
 56.0596  5948.34  77.4619
 56.1016  5966.14  77.6198
 56.1436  5958.78  77.7981
 56.1856  5934.33  77.3836
 56.2276  5983.46  77.7583
 56.2696  5955.53  77.5537
 56.3116  5938.01  77.8309
 56.3536  5944.47  77.539
 56.3956  5892.5  77.1902
 56.4376  5970.75  77.7315
 56.4796  5918.17  77.194
 56.5216  5839.26  77.0384
 56.5636  5952.65  77.3862
 56.6056  5948.54  77.5836
 56.6476  5887.08  76.8244
 56.6896  5930.63  77.5419
 56.7316  5860.6  76.9878
 56.7736  5922.92  77.3979
 56.8156  5978.1  77.7603
 56.8576  5902.72  77.2106
 56.8996  5893.13  77.0884
 56.9416  5838.25  77.0255
 56.9836  5803.05  76.3135
 57.0256  5827.5  76.7895
 57.0676  5834.17  76.9527
 57.1096  5931.25  77.3848
 57.1516  5935.18  77.4294
 57.1936  5904.45  77.0225
 57.2356  5893.29  77.2619
 57.2776  5901.61  77.2732
 57.3196  5870.08  77.4289
 57.3616  5893.56  77.0881
 57.4036  5885.57  77.0944
 57.4456  5918.74  77.2727
 57.4876  5889.24  76.943
 57.5296  5843.04  76.8781
 57.5716  5895.61  77.3119
 57.6136  5895.71  77.1331
 57.6556  5909.77  77.3564
 57.6976  5859.32  76.8613
 57.7396  5839.55  77.0948
 57.7816  5834.52  77.4131
 57.8236  5826.42  77.1581
 57.8656  5844.17  76.936
 57.9076  5840.14  76.9433
 57.9496  5861.57  77.4228
 57.9916  5863.82  76.9604
 58.0336  5826.09  76.9847
 58.0756  5845.17  76.7465
 58.1176  5884.37  77.0077
 58.1596  5757.76  76.7266
 58.2016  5930.22  77.1006
 58.2436  5794.34  76.6117
 58.2856  5891.28  77.1739
 58.3276  5726.98  76.4512
 58.3696  5858.33  77.0794
 58.4116  5954  77.5707
 58.4536  5816.01  76.5561
 58.4956  5878.45  77.1425
 58.5376  5892.05  76.811
 58.5796  5941.45  77.5506
 58.6216  5876.96  76.9499
 58.6636  5994.7  77.9269
 58.7056  5879.53  77.0281
 58.7476  5819.4  77.063
 58.7896  5876.64  77.0971
 58.8316  5817.85  76.7116
 58.8736  5926.51  77.4332
 58.9156  5897.75  77.2904
 58.9576  6067.41  78.7058
 58.9996  5986.07  77.4391
 59.0416  6037.29  78.1245
 59.0836  5921.63  77.2974
 59.1256  5820.34  77.3228
 59.1676  5874.25  77.9764
 59.2096  5853.16  77.162
 59.2516  5898.35  77.0453
 59.2936  6003.67  78.0572
 59.3356  5781.37  76.4788
 59.3776  5927.64  77.6077
 59.4196  5912.41  77.444
 59.4616  5839.97  76.8309
 59.5036  5895.98  77.2327
 59.5456  6039.07  77.8584
 59.5876  6030.35  77.9931
 59.6296  5879.19  77.0777
 59.6716  5805.29  76.6486
 59.7136  5851.49  76.9414
 59.7556  5915.8  77.4981
 59.7976  5813.21  76.5703
 59.8396  6003.91  77.7106
 59.8816  5894.15  77.5357
 59.9236  5977.86  77.7299
 59.9656  5916.06  77.5849
 60.0076  5900.9  76.8504
 60.0496  6032.33  78.2052
 60.0916  6047.87  77.7235
 60.1336  5753.55  76.8895
 60.1756  5847.85  78.6822
 60.1996  0.0000000E+00  0.0000000E+00