File: docs/examples/opeando_xrd/IS17_D/Data/IS17_D/17_Da_f00059.xye
# /beamlines/bl04/projects/cycle2025-II/20250340211-lsimonelli/DATA/IS17_D/17_Da_f00059.xye : mythproc.py merge -s 0.006 -l 0.5 -f /beamlines/bl04/inhouse/ff/FlatField/ff_20Nov2024rod8mm60s_17keV.raw -b True -c true -o xye /beamlines/bl04/projects/cycle2025-II/20250340211-lsimonelli/DATA/IS17_D/17_Da_00059.dat
# IsMon = [6789390, 6795215, 6792044]  IsPos = [-1.4999, -2.4884, -3.4988]
# Wave = 0.4962  CalPath /beamlines/bl04/projects/cycle2025-II/20250340211-lsimonelli/DATA/Align/Si_Pos1_25keV_f00001.cal
# Date = 2025-09-24_09:58:17 Dt = 4.8000  Bin = 0.0060  <imon> = 6792216 +/- 2381 (Min/Max) 6789390 / 6795215
# icurr 252.9952  mocoIn 1.7258E-05  mocoOut 0.8093  i15 7.11176e+06  imon 6.79222e+06  i7 6.6667  iEMpd_timer 4.8000  iEMpd_1 3.5784E-08  iEMpd_2 7.8166E-08  iEMpd_3 1.5922E-08  iEMpd_4 4.8056E-08  iEMhp_timer 4.8000  iEMhp_1 4.9425E-06  iEMhp_2 -2.6103E-08  iEMhp_3 -2.4108E-08  iEMhp_4 -2.1671E-08
#      9776
 1.5856  41244.3  208.581
 1.6276  48040.3  221.248
 1.6696  55034.2  235.971
 1.7116  63755.5  254.478
 1.7536  73384.3  271.856
 1.7956  78115.4  281.183
 1.8376  73792.5  273.725
 1.8796  62306.8  249.672
 1.9216  50446.6  225.551
 1.9636  42241.4  205.548
 2.0056  38333.3  195.05
 2.0476  34974.6  188.352
 2.0896  33651.3  183.671
 2.1316  33180.9  181.506
 2.1736  31321.1  177.745
 2.2156  32130.5  178.582
 2.2576  30629.5  174.987
 2.2996  29699.7  172.942
 2.3416  29861.1  172.026
 2.3836  29276.9  170.441
 2.4256  28194.2  167.805
 2.4676  27908.5  166.716
 2.5096  27877.2  166.677
 2.5516  27134.3  168.227
 2.5936  26870.2  164.014
 2.6356  26679.7  164.118
 2.6776  26366.1  162.047
 2.7196  26029.9  161.524
 2.7616  26008.9  161.238
 2.8036  25516.4  159.875
 2.8456  25525.3  160.519
 2.8876  25109.5  159.069
 2.9296  24774.3  158.142
 2.9716  24447.5  156.589
 3.0136  24297  156.173
 3.0556  24418.5  156.958
 3.0976  24138.8  154.998
 3.1396  23976.7  155.196
 3.1816  23849.7  154.712
 3.2236  23740.2  154.346
 3.2656  23780.9  153.513
 3.3076  23403.2  153.748
 3.3496  23749.7  153.812
 3.3916  24250.1  155.257
 3.4336  24615.1  157.002
 3.4756  24917.4  157.903
 3.5176  25732.8  160.249
 3.5596  25720.5  162.656
 3.6016  25869.5  160.729
 3.6436  25168.3  159.634
 3.6856  24676.8  156.373
 3.7276  23662.1  154.2
 3.7696  23632.3  154.31
 3.8116  23218.3  152.835
 3.8536  23194.6  152.695
 3.8956  23250.8  152.7
 3.9376  23009  152.155
 3.9796  22961.7  151.51
 4.0216  23099.1  150.985
 4.0636  23002.7  152.157
 4.1056  22954.3  151.629
 4.1476  23253.5  152.945
 4.1896  23408.5  153.306
 4.2316  23678.9  154.023
 4.2736  24235.8  155.594
 4.3156  24314.4  156.088
 4.3576  25077.3  158.444
 4.3996  25347.8  159.536
 4.4416  25823.2  160.622
 4.4836  26337.2  162.358
 4.5256  26663  163.991
 4.5676  26871  164.878
 4.6096  27347  164.987
 4.6516  27566.6  165.347
 4.6936  27836  166.972
 4.7356  27973.2  167.211
 4.7776  27887.4  166.78
 4.8196  27629.6  166.667
 4.8616  27238.1  164.95
 4.9036  27011.6  164.019
 4.9456  26735.5  163.825
 4.9876  26243.8  162.214
 5.0296  26483.8  162.766
 5.0716  26370  163.202
 5.1136  26617.1  163.668
 5.1556  26841.1  163.814
 5.1976  27216.4  164.959
 5.2396  27356.8  165.075
 5.2816  27428.9  165.766
 5.3236  27620.4  166.036
 5.3656  26864.7  164.671
 5.4076  26715.9  164.365
 5.4496  26959  164.591
 5.4916  26813.1  163.904
 5.5336  27106.2  164.802
 5.5756  26718.2  163.66
 5.6176  27074.7  164.172
 5.6596  27161.9  165.419
 5.7016  27296.5  165.086
 5.7436  27668.4  166.481
 5.7856  27350.7  165.586
 5.8276  27774.2  166.576
 5.8696  27802  166.836
 5.9116  27879.4  167.675
 5.9536  28105.6  168.111
 5.9956  28399  168.341
 6.0376  28450.6  169.134
 6.0796  28866.8  170.197
 6.1216  28714.3  169.946
 6.1636  29080.2  170.082
 6.2056  29054.5  170.674
 6.2476  29189  170.947
 6.2896  29232.5  170.754
 6.3316  29278.8  171.069
 6.3736  29432.4  171.405
 6.4156  29427.1  171.292
 6.4576  29455.1  170.972
 6.4996  30035  173.127
 6.5416  29809.7  172.619
 6.5836  30016.6  173.446
 6.6256  30026.7  173.039
 6.6676  30525.3  174.033
 6.7096  30311  174.285
 6.7516  30666.8  174.954
 6.7936  31095.8  175.599
 6.8356  31040.6  175.515
 6.8776  31332.4  177.142
 6.9196  31276.5  177.393
 6.9616  31948.9  178.717
 7.0036  32318.4  179.406
 7.0456  32286.3  178.606
 7.0876  32244.6  180.195
 7.1296  32323.4  179.544
 7.1716  32263.2  178.917
 7.2136  31959.3  177.843
 7.2556  32253.5  178.822
 7.2976  32145.7  179.028
 7.3396  32136.5  179.208
 7.3816  32256.6  179.764
 7.4236  32402.9  179.459
 7.4656  32815  180.07
 7.5076  32936.3  180.544
 7.5496  32863.6  180.889
 7.5916  32950.6  181.156
 7.6336  33366.5  182.194
 7.6756  33278.2  181.802
 7.7176  33725.1  183.331
 7.7596  33802.9  184.807
 7.8016  33965.2  187.447
 7.8436  34505.1  185.554
 7.8856  34849.4  186.085
 7.9276  35311.7  187.721
 7.9696  35335.5  188.093
 8.0116  36454.1  189.563
 8.0536  36601.4  190.204
 8.0956  36774  191.837
 8.1376  37258.1  192.57
 8.1796  37508.4  193.759
 8.2216  37918.4  193.548
 8.2636  38234.4  194.598
 8.3056  38239.4  195.403
 8.3476  39083.3  196.858
 8.3896  38692  195.952
 8.4316  38824.1  196.451
 8.4736  38775  195.788
 8.5156  38637.7  195.722
 8.5576  38142.3  195.439
 8.5996  38204.2  194.462
 8.6416  38215.6  195.762
 8.6836  38067.6  195.227
 8.7256  38653.5  196.142
 8.7676  37919.9  197.239
 8.8096  37622.9  193.761
 8.8516  37441.6  192.908
 8.8936  37170.5  192.077
 8.9356  37073.1  192.199
 8.9776  37250.8  192.751
 9.0196  36927.4  191.59
 9.0616  37115.8  191.551
 9.1036  36724.1  191.72
 9.1456  37035.3  191.88
 9.1876  36745.8  191.083
 9.2296  37147.6  191.52
 9.2716  36234.6  189.209
 9.3136  36514.5  189.918
 9.3556  36452.5  189.751
 9.3976  35235.6  187.089
 9.4396  35594.1  187.929
 9.4816  34946.9  186.07
 9.5236  34898.4  185.854
 9.5656  34921.4  186.233
 9.6076  35002.5  186.988
 9.6496  34717.7  186.155
 9.6916  34621.9  185.867
 9.7336  34654.5  185.733
 9.7756  34857.1  187.535
 9.8176  33671.4  183.807
 9.8596  33929.9  182.94
 9.9016  33114.1  180.719
 9.9436  32949.7  180.183
 9.9856  32767  179.906
 10.0276  32462.8  180.189
 10.0696  32645.2  179.725
 10.1116  31635.3  177.186
 10.1536  31838.6  177.923
 10.1956  31172.9  175.651
 10.2376  30772.5  174.033
 10.2796  31195.9  175.342
 10.3216  30673  174.135
 10.3636  30492.1  173.656
 10.4056  30255.8  173.375
 10.4476  30146.7  172.691
 10.4896  30301.3  172.581
 10.5316  29472.4  170.918
 10.5736  29444.1  171.249
 10.6156  29260.5  170.481
 10.6576  29201.1  168.857
 10.6996  28707  168.1
 10.7416  28677.9  168.247
 10.7836  28748.4  169.142
 10.8256  28282  168.21
 10.8676  28458.6  168.252
 10.9096  27930.1  166.741
 10.9516  27962.6  165.749
 10.9936  27813  165.512
 11.0356  27696.1  165.798
 11.0776  27531.1  164.612
 11.1196  26798.8  163.159
 11.1616  26730.6  162.627
 11.2036  27023.3  163.374
 11.2456  26868.4  163.607
 11.2876  26652.4  162.693
 11.3296  26489.4  162.085
 11.3716  26932.4  163.132
 11.4136  26907.2  163.96
 11.4556  27325.9  164.89
 11.4976  27893.9  165.537
 11.5396  28046.8  166.158
 11.5816  27394.8  164.689
 11.6236  27094.3  163.999
 11.6656  26582.9  161.606
 11.7076  26039.1  160.781
 11.7496  25736.4  163.803
 11.7916  25778.4  159.232
 11.8336  25656  159.75
 11.8756  25305.1  158.181
 11.9176  25441.5  158.254
 11.9596  25196.7  157.696
 12.0016  25091.5  158.161
 12.0436  24870.8  156.891
 12.0856  24777.1  157.113
 12.1276  24871.2  157.328
 12.1696  24729.8  156.011
 12.2116  25047.2  156.993
 12.2536  24819.3  157.131
 12.2956  24789.3  156.358
 12.3376  24552.9  155.833
 12.3796  24736.4  156.868
 12.4216  24560.5  155.524
 12.4636  24301.7  155.618
 12.5056  24644.6  155.983
 12.5476  24772.4  155.909
 12.5896  24624.8  156.082
 12.6316  24409.2  155.565
 12.6736  24189.4  155.337
 12.7156  24253.4  155.417
 12.7576  24412.1  156.152
 12.7996  24686.5  155.662
 12.8416  24384.8  155.771
 12.8836  24991.7  157.517
 12.9256  25124.2  156.935
 12.9676  25230.8  157.697
 13.0096  24882.3  157.721
 13.0516  25175.3  157.663
 13.0936  24965.5  157.419
 13.1356  25399.8  157.746
 13.1776  25062.1  157.688
 13.2196  25187.9  157.743
 13.2616  25195.5  158.076
 13.3036  24964.3  157.325
 13.3456  25044.1  157.927
 13.3876  25047.8  157.237
 13.4296  25099  157.546
 13.4716  25239.3  157.59
 13.5136  24998.5  156.992
 13.5556  25027.4  157.688
 13.5976  25179.1  158.324
 13.6396  25323.3  158.126
 13.6816  24871.9  157.216
 13.7236  25650.6  159.29
 13.7656  24798.2  157.174
 13.8076  25014.1  156.624
 13.8496  24653.9  156.102
 13.8916  24658.9  157.118
 13.9336  24714.2  156.508
 13.9756  24686.3  155.766
 14.0176  24411.3  155.583
 14.0596  24634.2  156.265
 14.1016  24361.7  155.787
 14.1436  24066.3  153.979
 14.1856  23704.2  153.107
 14.2276  23447.4  152.769
 14.2696  23748.5  153.579
 14.3116  23450.7  152.502
 14.3536  23115.2  151.595
 14.3956  23092.1  151.237
 14.4376  23264.6  151.585
 14.4796  22931.6  150.494
 14.5216  22786  150.821
 14.5636  22509.7  149.458
 14.6056  22869.2  150.224
 14.6476  22614.4  148.608
 14.6896  22401.7  148.453
 14.7316  21855.8  147.666
 14.7736  21881.2  146.888
 14.8156  21784.4  146.602
 14.8576  21496.5  145.481
 14.8996  21166.2  145.575
 14.9416  20747.1  144.126
 14.9836  20901.6  144.619
 15.0256  20808.4  143.202
 15.0676  20735.7  143.271
 15.1096  20606.8  142.559
 15.1516  20274.2  141.963
 15.1936  20298.1  141.471
 15.2356  19972  140.61
 15.2776  20087.2  140.594
 15.3196  19432.3  139.292
 15.3616  19484.5  139.235
 15.4036  19242.5  138.226
 15.4456  19696.4  139.489
 15.4876  19203.2  137.407
 15.5296  19296.5  138.026
 15.5716  19015.8  136.619
 15.6136  18684.2  135.746
 15.6556  18710.8  135.081
 15.6976  18549.6  134.793
 15.7396  18595.2  135.361
 15.7816  18405.3  134.169
 15.8236  18178.5  134.051
 15.8656  18258.6  134.128
 15.9076  17898.3  132.624
 15.9496  17940.3  135.604
 15.9916  17868.6  135.785
 16.0336  17635.4  131.775
 16.0756  17681.2  132.254
 16.1176  17643.7  132.187
 16.1596  17087.4  131.262
 16.2016  17416.8  131.255
 16.2436  17271.7  131.099
 16.2856  17054.6  129.813
 16.3276  16887.2  129.588
 16.3696  17222.1  130.69
 16.4116  16971.6  130.201
 16.4536  17044  130.262
 16.4956  16887  129.399
 16.5376  16777.1  129.156
 16.5796  16769.4  128.477
 16.6216  16849.6  129.099
 16.6636  16773.6  128.966
 16.7056  16958.6  129.543
 16.7476  16773.5  128.347
 16.7896  16669.3  128.712
 16.8316  16898.9  129.565
 16.8736  16758.8  129.285
 16.9156  16595.2  128.986
 16.9576  16604.5  129.82
 16.9996  16563.1  130.141
 17.0416  16767  129.266
 17.0836  16751.7  128.973
 17.1256  16436.2  127.76
 17.1676  16213.9  126.895
 17.2096  16295.6  127.084
 17.2516  16122.4  126.181
 17.2936  16051.6  126.23
 17.3356  15834.5  125.399
 17.3776  15954.7  126.054
 17.4196  15933.7  125.652
 17.4616  15712.4  124.702
 17.5036  15526.1  124.319
 17.5456  15335  124.204
 17.5876  15589.8  124.266
 17.6296  15591.5  124.091
 17.6716  15349  123.687
 17.7136  15071.6  122.726
 17.7556  15284.4  123.873
 17.7976  15109.2  122.903
 17.8396  15118.8  122.436
 17.8816  14990.3  122.449
 17.9236  15000  122.311
 17.9656  15080.7  123.175
 18.0076  15070.6  122.721
 18.0496  15157.6  122.196
 18.0916  15041.1  122.275
 18.1336  15144.6  122.788
 18.1756  15172.7  122.417
 18.2176  14920  121.631
 18.2596  14899.1  121.272
 18.3016  14992.4  121.916
 18.3436  14912.9  121.587
 18.3856  14759.2  121.105
 18.4276  14898.1  121.345
 18.4696  14830.8  121.172
 18.5116  14836.2  121.481
 18.5536  15006.4  122.538
 18.5956  14567.8  120.284
 18.6376  14632.8  120.952
 18.6796  14595.9  120.124
 18.7216  14770.2  121.327
 18.7636  14495.7  120.195
 18.8056  14560.9  120.402
 18.8476  14491.6  120.751
 18.8896  14433.9  119.838
 18.9316  14547.5  120.293
 18.9736  14371.8  119.259
 19.0156  14454.3  120.005
 19.0576  14448  118.841
 19.0996  14583.7  120.115
 19.1416  14139  118.667
 19.1836  14336.1  119.084
 19.2256  14176.6  118.632
 19.2676  14354.9  119.471
 19.3096  14311.5  119.537
 19.3516  14153.5  118.836
 19.3936  14276.6  119.245
 19.4356  14279.3  119.128
 19.4776  14406.6  119.761
 19.5196  14283.8  119.099
 19.5616  14183.1  118.933
 19.6036  14354.9  119.144
 19.6456  14216  118.689
 19.6876  14439.5  119.256
 19.7296  14321.4  119.233
 19.7716  14188.4  118.828
 19.8136  14405.8  119.962
 19.8556  14648.7  120.428
 19.8976  14596  120.28
 19.9396  14854.4  120.91
 19.9816  15225.7  122.653
 20.0236  15202.4  122.792
 20.0656  15100.2  122.37
 20.1076  14743.8  121.401
 20.1496  14427.8  120.092
 20.1916  14487.1  119.85
 20.2336  14257.8  118.829
 20.2756  14083.8  118.529
 20.3176  13926.1  117.611
 20.3596  13957.5  117.718
 20.4016  13695  116.412
 20.4436  13989.3  118.211
 20.4856  13679.9  116.698
 20.5276  13778.2  117.573
 20.5696  13770.3  117
 20.6116  13552.7  116.344
 20.6536  13609.4  116.093
 20.6956  13676.4  116.504
 20.7376  13656.4  116.653
 20.7796  13496.9  115.657
 20.8216  13785.4  116.587
 20.8636  13396.2  115.307
 20.9056  13463.9  115.542
 20.9476  13444.8  115.3
 20.9896  13611.1  115.874
 21.0316  13682.1  116.069
 21.0736  13387.3  115.334
 21.1156  13367  115.405
 21.1576  13455.5  115.843
 21.1996  13327.5  115.265
 21.2416  13288.3  114.932
 21.2836  13363.1  115.214
 21.3256  13351  115.251
 21.3676  13357.2  114.817
 21.4096  13194.4  114.427
 21.4516  13230.6  114.463
 21.4936  13088.5  114.099
 21.5356  13161.9  114.368
 21.5776  13152.1  114.156
 21.6196  13061.8  113.798
 21.6616  13103.9  114.071
 21.7036  13154.5  114.073
 21.7456  13138.4  114.075
 21.7876  13002.9  113.233
 21.8296  13124.5  113.611
 21.8716  13099.2  113.739
 21.9136  13162.8  114.219
 21.9556  13096.9  113.602
 21.9976  12948.8  112.962
 22.0396  12886.9  112.959
 22.0816  13008.3  114.036
 22.1236  13064.5  113.73
 22.1656  12985.6  113.503
 22.2076  13263.5  114.172
 22.2496  13027.8  113.176
 22.2916  13038.9  113.106
 22.3336  13040.3  113.847
 22.3756  12800.5  112.519
 22.4176  12899.6  112.806
 22.4596  12764.9  112.815
 22.5016  13005.6  113.35
 22.5436  13039.3  113.388
 22.5856  12900.1  113.023
 22.6276  12918  113.239
 22.6696  12938.8  113.688
 22.7116  12931.6  113.159
 22.7536  13007.8  113.471
 22.7956  12938.7  112.488
 22.8376  12763.4  112.258
 22.8796  12959.6  112.912
 22.9216  12989.6  113.601
 22.9636  12889.8  112.3
 23.0056  12921.4  112.574
 23.0476  12921.7  113.152
 23.0896  13230.3  113.861
 23.1316  13247.1  114.381
 23.1736  12916.3  115.933
 23.2156  13219.6  114.617
 23.2576  12899.2  113.354
 23.2996  12824.8  112.806
 23.3416  12886.8  113.612
 23.3836  12938.6  113.06
 23.4256  12907.6  113.045
 23.4676  12782.2  112.184
 23.5096  12812.9  113.001
 23.5516  12916.2  112.73
 23.5936  12897.3  113.549
 23.6356  12824.6  112.899
 23.6776  12871.2  113.318
 23.7196  12770.2  112.454
 23.7616  13019.2  113.449
 23.8036  12820.1  112.625
 23.8456  12899.4  112.54
 23.8876  12624.4  111.69
 23.9296  12577.5  111.978
 23.9716  12577.9  111.165
 24.0136  12584.8  112.105
 24.0556  12386.8  110.949
 24.0976  12529.6  111.389
 24.1396  12467.8  113.795
 24.1816  12418  111.97
 24.2236  12339.6  111.215
 24.2656  12165.6  109.898
 24.3076  12201.4  110.316
 24.3496  12385.4  111.023
 24.3916  12083.9  109.721
 24.4336  12202  110.468
 24.4756  12087.2  109.81
 24.5176  11869.4  108.47
 24.5596  11873.1  108.61
 24.6016  11811.7  108.619
 24.6436  11862.9  108.344
 24.6856  12065.1  109.02
 24.7276  11848.3  108.35
 24.7696  11697.8  107.776
 24.8116  11728  108.092
 24.8536  11726.1  108.087
 24.8956  11721.4  107.801
 24.9376  11704.3  107.661
 24.9796  11558.1  107.34
 25.0216  11407.4  106.758
 25.0636  11447.5  106.588
 25.1056  11389.2  107.027
 25.1476  11592.6  109.671
 25.1896  11719  108.707
 25.2316  11611.5  107.472
 25.2736  11483.1  106.52
 25.3156  11486.1  106.621
 25.3576  11430.1  106.784
 25.3996  11416.2  106.702
 25.4416  11343.8  106.343
 25.4836  11150.1  105.958
 25.5256  11237.6  105.731
 25.5676  11452.1  106.457
 25.6096  11204.1  105.878
 25.6516  11364.2  106.122
 25.6936  11138.8  105.384
 25.7356  11178  105.705
 25.7776  11251.6  105.658
 25.8196  11146.5  105.399
 25.8616  11230  105.711
 25.9036  11238.6  105.216
 25.9456  11237.2  105.807
 25.9876  11008.1  104.792
 26.0296  11261.5  105.492
 26.0716  11022.9  104.801
 26.1136  11171.8  105.448
 26.1556  11292.4  105.386
 26.1976  11162.8  105.714
 26.2396  11259.9  105.313
 26.2816  11157.8  105.446
 26.3236  11088.9  105.281
 26.3656  11082.9  104.985
 26.4076  11174.8  105.623
 26.4496  11594  107.076
 26.4916  11364.9  106.012
 26.5336  11147.8  105.319
 26.5756  11366.3  106.218
 26.6176  10951.8  104.3
 26.6596  10885.6  104.297
 26.7016  10968.9  104.445
 26.7436  10921.7  104.36
 26.7856  10815.7  103.831
 26.8276  10902.5  104.2
 26.8696  10849.1  103.823
 26.9116  10742.3  103.243
 26.9536  10784.2  103.497
 26.9956  10679.3  103.021
 27.0376  10669.1  103.194
 27.0796  10963.8  104.329
 27.1216  10653.7  102.928
 27.1636  10660  103.12
 27.2056  10668.3  103.04
 27.2476  10533.9  102.391
 27.2896  10615.5  102.897
 27.3316  10642.9  102.741
 27.3736  10581.2  102.711
 27.4156  10461.4  101.976
 27.4576  10536.2  102.57
 27.4996  10443.6  101.715
 27.5416  10470.5  102.161
 27.5836  10596.6  102.583
 27.6256  10838.1  103.921
 27.6676  10741.6  103.475
 27.7096  10466.5  102.005
 27.7516  10466.9  102.158
 27.7936  10396.5  101.996
 27.8356  10581.4  102.508
 27.8776  10309.6  101.232
 27.9196  10329.9  101.176
 27.9616  10367.9  101.556
 28.0036  10283  101.111
 28.0456  10386.9  101.751
 28.0876  10281  101.325
 28.1296  10287.8  101.198
 28.1716  10270.3  101.123
 28.2136  10308.2  101.272
 28.2556  10103.6  100.376
 28.2976  10222  100.957
 28.3396  10282.2  101.009
 28.3816  10339.5  101.31
 28.4236  10210.4  100.827
 28.4656  10051.7  100.078
 28.5076  10064  99.7689
 28.5496  10117.6  100.304
 28.5916  10116.1  100.105
 28.6336  10054.1  100.144
 28.6756  10280.6  100.451
 28.7176  10060.1  99.9149
 28.7596  10139.1  100.208
 28.8016  10129.4  100.189
 28.8436  9938.75  99.4911
 28.8856  10032.1  99.8029
 28.9276  10051.3  100.145
 28.9696  9961.29  99.3581
 29.0116  9907.87  99.2775
 29.0536  9805.8  98.9656
 29.0956  9878.93  99.052
 29.1376  9846.04  98.8427
 29.1796  9864.89  98.985
 29.2216  9934.38  99.1734
 29.2636  9922.49  99.1905
 29.3056  9986.2  99.2981
 29.3476  10010.5  99.9504
 29.3896  9964.43  99.8089
 29.4316  9986.26  99.2471
 29.4736  9952.59  99.1487
 29.5156  9916.2  98.8783
 29.5576  9856.17  99.3271
 29.5996  9901.71  98.8094
 29.6416  9753.74  98.1774
 29.6836  9919.52  98.9432
 29.7256  9898.95  99.4171
 29.7676  9801.38  98.5876
 29.8096  9872.42  98.8805
 29.8516  9687.32  98.2889
 29.8936  9629.93  98.0871
 29.9356  9864.01  99.0223
 29.9776  9723.9  98.468
 30.0196  9770.41  98.0812
 30.0616  9829.9  98.7654
 30.1036  9799.88  98.4356
 30.1456  9753.55  98.4451
 30.1876  9719.82  98.2448
 30.2296  9678.01  97.9874
 30.2716  9717.65  97.8204
 30.3136  9678.5  98.4837
 30.3556  9737.29  98.8076
 30.3976  9694.69  100.142
 30.4396  9824.42  98.1065
 30.4816  9702.84  97.0817
 30.5236  9539.91  96.2895
 30.5656  9604.63  97.2712
 30.6076  9800.24  97.6822
 30.6496  9772.62  97.9314
 30.6916  9596.23  97.1336
 30.7336  9635.59  97.4869
 30.7756  9451.57  96.6466
 30.8176  9628.69  97.4616
 30.8596  9651.07  97.3447
 30.9016  9612.97  97.4949
 30.9436  9627.62  97.3193
 30.9856  9733.61  97.9643
 31.0276  9660.77  97.1938
 31.0696  9449.03  96.7064
 31.1116  9596.81  97.4356
 31.1536  9518.14  96.913
 31.1956  9477.09  96.795
 31.2376  9369.62  96.2488
 31.2796  9470.64  96.307
 31.3216  9577.13  96.7891
 31.3636  9567.2  97.4286
 31.4056  9435.89  98.0861
 31.4476  9384.25  95.6883
 31.4896  9231.63  95.4137
 31.5316  9493.62  96.1414
 31.5736  9519.69  96.1005
 31.6156  9445.3  95.7458
 31.6576  9596.22  96.6061
 31.6996  9459.45  95.5862
 31.7416  9247.55  95.5624
 31.7836  9481.46  95.773
 31.8256  9226.55  94.7544
 31.8676  9395.82  95.6071
 31.9096  9316  95.5619
 31.9516  9199.49  95.1245
 31.9936  9250.63  95.2048
 32.0356  9285.7  95.4476
 32.0776  9392.65  95.8894
 32.1196  9406.79  96.0535
 32.1616  9550.48  96.2298
 32.2036  9123.32  94.5711
 32.2456  9302.91  95.8763
 32.2876  9294.96  95.3266
 32.3296  9008.77  93.8125
 32.3716  9211.6  94.9685
 32.4136  9283.28  95.555
 32.4556  9349.47  95.2588
 32.4976  9336.37  95.1066
 32.5396  9180.21  94.3778
 32.5816  9133.6  94.2639
 32.6236  9282.9  95.0981
 32.6656  9207.68  95.2514
 32.7076  9228.55  95.0159
 32.7496  9127.92  94.1559
 32.7916  9215.2  94.5707
 32.8336  9180.04  94.4792
 32.8756  9203.62  94.3319
 32.9176  8965.91  93.5846
 32.9596  9034.88  94.0161
 33.0016  9207.39  94.7028
 33.0436  9292.26  95.3146
 33.0856  9096.16  94.3759
 33.1276  8983.82  93.5126
 33.1696  9229.18  94.6246
 33.2116  9213.76  94.7775
 33.2536  9219.41  94.8135
 33.2956  9068.08  94.1105
 33.3376  9029.23  93.6531
 33.3796  9202.84  94.7516
 33.4216  9053.78  93.5794
 33.4636  9219.87  94.5834
 33.5056  9034.01  93.8625
 33.5476  8967.57  93.5149
 33.5896  9065.86  93.7899
 33.6316  8944.05  93.4886
 33.6736  8869.75  93.3304
 33.7156  8920.83  93.6495
 33.7576  9001.8  93.7
 33.7996  9111.53  94.028
 33.8416  8815.83  92.6719
 33.8836  8998.78  93.3977
 33.9256  8964.89  93.2972
 33.9676  9023.18  93.4914
 34.0096  8829.38  92.8016
 34.0516  8807.57  92.3163
 34.0936  8795.12  92.5204
 34.1356  8978.46  93.219
 34.1776  8814.38  92.3676
 34.2196  8814.22  92.555
 34.2616  8837.83  92.8053
 34.3036  8731.53  92.5055
 34.3456  8815.95  92.6995
 34.3876  8750.08  92.3259
 34.4296  8917.15  92.8782
 34.4716  8868.44  92.7773
 34.5136  8790.16  92.5707
 34.5556  8734.61  92.5298
 34.5976  8842.67  92.91
 34.6396  8715.41  91.9478
 34.6816  8783.23  92.4224
 34.7236  8832  92.4562
 34.7656  8806.02  92.5165
 34.8076  8741.22  92.4995
 34.8496  8790.34  92.613
 34.8916  8679.33  91.903
 34.9336  8876  92.8986
 34.9756  8798.83  92.4165
 35.0176  8885.23  93.4074
 35.0596  8665.72  92.0716
 35.1016  8672.41  91.8738
 35.1436  8772.99  92.0816
 35.1856  8695.31  91.8036
 35.2276  8722.83  92.1242
 35.2696  8572.96  91.5256
 35.3116  8665.88  92.1133
 35.3536  8598.69  91.4686
 35.3956  8661.65  91.5069
 35.4376  8514.82  91.2793
 35.4796  8799.41  92.8573
 35.5216  8556.19  91.5259
 35.5636  8447.44  91.6864
 35.6056  8577.98  91.3977
 35.6476  8607.3  91.4511
 35.6896  8740.53  92.2381
 35.7316  8557.35  91.2483
 35.7736  8577.87  91.5589
 35.8156  8523.56  91.27
 35.8576  8558.62  91.7092
 35.8996  8691.94  92.3876
 35.9416  9003.25  93.4484
 35.9836  8513.59  91.2813
 36.0256  8596.94  91.7525
 36.0676  8659.55  91.8343
 36.1096  8497.33  91.1136
 36.1516  8476.77  90.8899
 36.1936  8511.92  90.9288
 36.2356  8527.44  91.6585
 36.2776  8509.92  91.0411
 36.3196  8556.71  90.9486
 36.3616  8576.14  91.1915
 36.4036  8526.16  90.9852
 36.4456  8504.94  91.0724
 36.4876  8428.89  90.6132
 36.5296  8516.61  91.1201
 36.5716  8516.94  91.9193
 36.6136  8583.41  91.0199
 36.6556  8621.08  91.4305
 36.6976  8393.36  90.711
 36.7396  8483.73  90.9257
 36.7816  8370.57  90.6957
 36.8236  8448.45  91.0342
 36.8656  8368.33  90.6784
 36.9076  8363.9  90.5271
 36.9496  8369.08  90.5477
 36.9916  8276.57  89.6695
 37.0336  8576.16  91.6084
 37.0756  8416.25  90.5349
 37.1176  8348.45  90.4409
 37.1596  8340.08  90.3987
 37.2016  8378.26  90.8376
 37.2436  8389.04  90.2069
 37.2856  8395.67  90.4999
 37.3276  8447.4  90.1137
 37.3696  8311.73  90.2833
 37.4116  8518.5  91.3078
 37.4536  8304.04  90.0142
 37.4956  8283.6  89.9489
 37.5376  8425.96  92.2989
 37.5796  8318.82  91.6778
 37.6216  8247.85  89.5362
 37.6636  8276.56  89.599
 37.7056  8198.31  89.3668
 37.7476  8303.56  89.4706
 37.7896  8319.18  90.0639
 37.8316  8142.92  89.2758
 37.8736  8445.3  90.4277
 37.9156  8180.67  89.0034
 37.9576  8293.49  89.4869
 37.9996  8110.15  88.2258
 38.0416  8144.52  89.229
 38.0836  8238  89.6409
 38.1256  8282.35  89.8381
 38.1676  8072.8  88.8349
 38.2096  8142.66  88.8381
 38.2516  8280.75  89.7957
 38.2936  8253.03  89.4465
 38.3356  8183.1  88.9748
 38.3776  8066.9  88.6196
 38.4196  8257.99  89.5129
 38.4616  8220.74  89.5472
 38.5036  8190.73  89.2295
 38.5456  8111.14  89.6288
 38.5876  8130.05  89.7572
 38.6296  7955.56  87.7717
 38.6716  7951.35  87.5395
 38.7136  8065.89  88.1107
 38.7556  8086.45  88.731
 38.7976  8221.47  89.4036
 38.8396  7996  88.6273
 38.8816  8030.67  88.5975
 38.9236  8070.39  88.6234
 38.9656  8045.37  88.4014
 39.0076  8074.24  87.961
 39.0496  7982.37  88.0065
 39.0916  8125.44  88.4164
 39.1336  8007.15  88.201
 39.1756  8074.95  88.6414
 39.2176  7991.75  88.7103
 39.2596  7965.77  88.4926
 39.3016  7998.43  88.2415
 39.3436  8009.55  88.7336
 39.3856  8150.83  88.9539
 39.4276  8051.35  88.916
 39.4696  7937.21  87.9015
 39.5116  8034.85  88.9636
 39.5536  8175.94  90.1701
 39.5956  8104.58  88.8585
 39.6376  8062.22  88.6386
 39.6796  8147.1  88.8329
 39.7216  8072.1  88.5237
 39.7636  8134.82  89.4563
 39.8056  8028.05  88.6403
 39.8476  8038.04  88.9493
 39.8896  8032.48  88.547
 39.9316  8043.01  88.8581
 39.9736  8235.86  89.4688
 40.0156  8111.6  88.6196
 40.0576  7970.95  88.2075
 40.0996  8079.34  87.9923
 40.1416  8224.05  89.5743
 40.1836  8086.75  88.721
 40.2256  8119  88.9394
 40.2676  8110.72  89.0051
 40.3096  8216.79  89.5038
 40.3516  8137.49  89.18
 40.3936  8221.91  89.1987
 40.4356  8091.3  88.679
 40.4776  8167.49  89.5198
 40.5196  8245.39  90.0671
 40.5616  8087.23  88.8426
 40.6036  8204.03  89.7427
 40.6456  8163.13  89.1151
 40.6876  8254.38  89.6023
 40.7296  8148.29  89.1604
 40.7716  8170.03  89.4102
 40.8136  8013.1  88.4828
 40.8556  8112.32  89.1787
 40.8976  8165.92  89.3867
 40.9396  8042.26  89.0642
 40.9816  8157.27  88.9701
 41.0236  8198.35  88.9746
 41.0656  8183.26  89.4389
 41.1076  8188.38  89.2277
 41.1496  8242.1  89.435
 41.1916  8066.91  88.801
 41.2336  7991.03  88.3765
 41.2756  8134.52  88.758
 41.3176  7968.52  88.4713
 41.3596  8152.31  89.2111
 41.4016  8155.45  89.487
 41.4436  8060.74  88.7531
 41.4856  8118.9  89.2333
 41.5276  8059.9  88.9349
 41.5696  8159.99  89.106
 41.6116  8026.51  88.7803
 41.6536  8127.36  89.1879
 41.6956  8017.1  88.6374
 41.7376  8059.49  88.9016
 41.7796  8117.72  89.1023
 41.8216  8124.53  89.3772
 41.8636  8166.1  89.5375
 41.9056  8099.3  88.9639
 41.9476  8093.28  89.1683
 41.9896  8095.92  88.8521
 42.0316  8090.39  88.895
 42.0736  8054.13  88.812
 42.1156  8030.19  88.5094
 42.1576  8039.36  88.6588
 42.1996  8122.46  89.2637
 42.2416  8082.75  88.6217
 42.2836  7925.53  87.8734
 42.3256  7988.2  88.3346
 42.3676  8042.76  88.4367
 42.4096  8136.04  88.9106
 42.4516  8034.3  88.4437
 42.4936  8021.02  88.4393
 42.5356  7924.08  88.032
 42.5776  8066.39  88.7617
 42.6196  8076.1  88.8675
 42.6616  7937.55  88.2787
 42.7036  7938.69  87.6641
 42.7456  7920.99  87.927
 42.7876  7922.76  88.0296
 42.8296  7959.37  88.0724
 42.8716  7840.28  87.5673
 42.9136  7935.79  87.885
 42.9556  7978.73  88.259
 42.9976  8003.91  88.3524
 43.0396  7922.21  87.6339
 43.0816  8021.45  88.563
 43.1236  7745.72  87.0919
 43.1656  7983.64  88.2477
 43.2076  7924.57  88.0276
 43.2496  7848.49  87.4124
 43.2916  7831.73  87.6896
 43.3336  7889.06  87.8451
 43.3756  7841.2  87.3263
 43.4176  7848.58  87.4552
 43.4596  7747.2  86.7419
 43.5016  7811.15  87.5074
 43.5436  7843.25  87.5888
 43.5856  7790.34  87.3212
 43.6276  7762.07  87.054
 43.6696  7795.18  87.4993
 43.7116  7912.2  87.6464
 43.7536  7815.27  87.5993
 43.7956  7790.65  88.6574
 43.8376  7809.2  87.2832
 43.8796  7835.14  87.515
 43.9216  7763.97  87.0331
 43.9636  7869.03  87.732
 44.0056  7841.05  87.8108
 44.0476  7682.41  86.5487
 44.0896  7767.2  87.3683
 44.1316  7740.31  86.7374
 44.1736  7674.5  86.4876
 44.2156  7825.93  87.1898
 44.2576  7584.03  86.1619
 44.2996  7782.63  87.2516
 44.3416  7738.48  86.7603
 44.3836  7576.79  86.1776
 44.4256  7543.23  85.6369
 44.4676  7718.45  86.78
 44.5096  7668.79  86.6423
 44.5516  7699.09  86.7745
 44.5936  7611.92  86.238
 44.6356  7677.77  86.349
 44.6776  7664.43  86.5903
 44.7196  7596.55  86.5229
 44.7616  7697.73  88.4317
 44.8036  7479.5  85.6177
 44.8456  7575.26  86.3708
 44.8876  7636.72  86.5629
 44.9296  7644.95  86.0635
 44.9716  7584.98  86.1649
 45.0136  7618.02  86.2794
 45.0556  7636.7  86.3556
 45.0976  7543.86  86.0011
 45.1396  7487.09  85.4212
 45.1816  7506.97  85.4762
 45.2236  7624.18  86.0355
 45.2656  7555.88  86.1563
 45.3076  7507.44  85.6672
 45.3496  7558.63  86.2617
 45.3916  7413.21  85.6954
 45.4336  7490.23  85.9908
 45.4756  7471.05  85.7306
 45.5176  7497.68  85.502
 45.5596  7581.95  86.1033
 45.6016  7434.55  85.6787
 45.6436  7492.59  85.1913
 45.6856  7463.41  85.6848
 45.7276  7349.18  86.3274
 45.7696  7469.02  86.6893
 45.8116  7462.49  86.0824
 45.8536  7527.17  86.3586
 45.8956  7481.9  85.4481
 45.9376  7497.31  84.9976
 45.9796  7465.9  85.4976
 46.0216  7555.39  86.3644
 46.0636  7466.48  84.9982
 46.1056  7495.28  85.1447
 46.1476  7508.37  85.8148
 46.1896  7462.63  85.7059
 46.2316  7391.09  85.1584
 46.2736  7276.97  84.869
 46.3156  7502.76  85.7577
 46.3576  7449.99  85.6584
 46.3996  7374.04  85.3807
 46.4416  7411.95  85.17
 46.4836  7350.8  85.1721
 46.5256  7529.43  86.1467
 46.5676  7328.63  85.1046
 46.6096  7399.34  85.445
 46.6516  7507.12  85.0983
 46.6936  7416.96  85.0773
 46.7356  7523.23  85.7924
 46.7776  7326.67  85.5139
 46.8196  7263.92  84.741
 46.8616  7246.49  84.5897
 46.9036  7196.58  83.953
 46.9456  7347.11  84.4698
 46.9876  7330.82  84.4595
 47.0296  7251.93  84.69
 47.0716  7279.5  84.6735
 47.1136  7264.86  84.2719
 47.1556  7306.75  84.3775
 47.1976  7434.38  85.187
 47.2396  7304  84.8391
 47.2816  7303.97  84.5351
 47.3236  7303.79  84.9083
 47.3656  7372.89  85.2294
 47.4076  7213.35  84.1151
 47.4496  7127.73  83.6931
 47.4916  7156.66  84.0693
 47.5336  7329.78  84.8959
 47.5756  7308.59  84.8843
 47.6176  7190.08  84.095
 47.6596  7189.7  83.8045
 47.7016  7322.94  84.392
 47.7436  7258.53  84.3542
 47.7856  7287.19  84.5552
 47.8276  7247.7  84.3695
 47.8696  7202.73  84.2
 47.9116  7247.39  84.1724
 47.9536  7275.45  84.2737
 47.9956  7105.44  83.9908
 48.0376  7056.27  83.4686
 48.0796  7229.58  84.6147
 48.1216  7316.24  84.9414
 48.1636  7307.93  84.4731
 48.2056  7228.57  84.275
 48.2476  7178.8  84.288
 48.2896  7113.95  83.8121
 48.3316  7144.12  83.9419
 48.3736  7066.87  83.5074
 48.4156  7088.94  83.4893
 48.4576  7075.7  83.7053
 48.4996  7162.8  83.6722
 48.5416  7192.24  84.1742
 48.5836  7029.16  82.8943
 48.6256  7138.02  83.7308
 48.6676  7152.22  84.3363
 48.7096  7163.38  83.665
 48.7516  7113.37  83.5238
 48.7936  6961.39  82.6865
 48.8356  7136.73  83.7757
 48.8776  7062.88  83.907
 48.9196  7195.54  84.0577
 48.9616  7064.86  83.6715
 49.0036  7123.74  84.3714
 49.0456  7036.73  83.8225
 49.0876  7099.92  83.7491
 49.1296  6894.04  82.6735
 49.1716  6908.95  82.6402
 49.2136  7057.34  83.4588
 49.2556  7074.31  83.582
 49.2976  7175.26  84.2517
 49.3396  6961.41  83.0408
 49.3816  7158.03  83.6358
 49.4236  7150.54  84.0162
 49.4656  6917.41  82.6474
 49.5076  7012.43  82.9676
 49.5496  6957.82  82.7023
 49.5916  7052.03  83.1792
 49.6336  6911.49  82.549
 49.6756  7030.32  83.49
 49.7176  6951.97  82.9631
 49.7596  6965.62  82.8156
 49.8016  7005.13  82.9682
 49.8436  6938.19  82.8628
 49.8856  6897.31  82.6232
 49.9276  6908.97  82.7899
 49.9696  7062.85  83.6983
 50.0116  6886.55  82.7812
 50.0536  7015.17  83.4952
 50.0956  6941.79  83.118
 50.1376  6867.65  82.3853
 50.1796  6736.74  81.86
 50.2216  6824.33  82.3767
 50.2636  6923.27  82.5952
 50.3056  6832.64  82.2233
 50.3476  6879.86  82.5339
 50.3896  6833.25  82.2237
 50.4316  6846.29  82.1411
 50.4736  6851.88  82.3921
 50.5156  6906.79  82.7097
 50.5576  6936.78  82.6512
 50.5996  6859.49  82.4689
 50.6416  6786.21  81.9544
 50.6836  6887.81  82.6265
 50.7256  6889.89  82.553
 50.7676  6826.11  82.4891
 50.8096  6820.87  81.9928
 50.8516  6752.57  82.0044
 50.8936  6850.25  82.3756
 50.9356  6916.45  82.8798
 50.9776  6834.23  82.5398
 51.0196  6681.47  81.7342
 51.0616  6702.61  81.1901
 51.1036  6787.77  82.0616
 51.1456  6783.92  81.9492
 51.1876  6813.37  81.4715
 51.2296  6795.38  81.9997
 51.2716  6713.82  81.2137
 51.3136  6685.34  81.4898
 51.3556  6773.79  81.6594
 51.3976  6652.03  81.0695
 51.4396  6567.44  80.8534
 51.4816  6650.72  81.2233
 51.5236  6759.52  81.9608
 51.5656  6640.78  80.8485
 51.6076  6686.53  81.2048
 51.6496  6753.69  81.8102
 51.6916  6654.05  81.5473
 51.7336  6737.8  82.1608
 51.7756  6730.55  81.8151
 51.8176  6724.55  81.8759
 51.8596  6610.75  81.1944
 51.9016  6878.23  82.4321
 51.9436  6622.56  82.352
 51.9856  6568.68  82.4411
 52.0276  6569.43  80.971
 52.0696  6695.71  81.8117
 52.1116  6773.14  82.4
 52.1536  6660.31  81.5964
 52.1956  6753.18  81.6273
 52.2376  6760.9  81.8462
 52.2796  6676.12  81.1379
 52.3216  6510.59  80.8134
 52.3636  6606.97  80.9901
 52.4056  6555.42  80.5311
 52.4476  6606.21  81.2058
 52.4896  6423.38  80.1242
 52.5316  6597.03  81.2474
 52.5736  6600.72  80.9954
 52.6156  6632.52  81.5738
 52.6576  6661.54  81.19
 52.6996  6525.65  81.332
 52.7416  6551.58  81.3435
 52.7836  6617.68  81.6333
 52.8256  6636.61  80.9684
 52.8676  6490.83  80.6496
 52.9096  6672.11  81.8559
 52.9516  6551.45  81.4679
 52.9936  6487.27  81.4617
 53.0356  6434.76  80.1394
 53.0776  6366.33  79.972
 53.1196  6513.16  81.0166
 53.1616  6385.62  80.2668
 53.2036  6474.94  80.7827
 53.2456  6371.15  80.236
 53.2876  6418.17  80.233
 53.3296  6424.35  80.596
 53.3716  6467.92  80.6237
 53.4136  6421.42  80.4741
 53.4556  6381.11  80.2511
 53.4976  6306.57  79.6241
 53.5396  6477.52  81.0929
 53.5816  6398.58  80.2291
 53.6236  6344.91  80.2379
 53.6656  6318.4  79.706
 53.7076  6471.66  80.6268
 53.7496  6367.21  80.0957
 53.7916  6406.23  80.4636
 53.8336  6326.41  79.8631
 53.8756  6384.99  80.7786
 53.9176  6500.8  80.838
 53.9596  6454.99  81.3316
 54.0016  6382.5  80.2026
 54.0436  6357.89  80.2698
 54.0856  6469.15  80.3914
 54.1276  6423.89  80.3119
 54.1696  6430.89  80.5256
 54.2116  6318.74  79.5805
 54.2536  6375.71  79.7507
 54.2956  6466.94  80.361
 54.3376  6426.72  80.6029
 54.3796  6388.4  80.2561
 54.4216  6513.95  81.0959
 54.4636  6422.67  80.4834
 54.5056  6513.97  80.8747
 54.5476  6359.41  80.239
 54.5896  6367.93  80.1307
 54.6316  6363.56  79.9571
 54.6736  6358.4  79.997
 54.7156  6318.53  79.7741
 54.7576  6328.56  79.8257
 54.7996  6432  80.6166
 54.8416  6395.78  80.4356
 54.8836  6252.32  79.6487
 54.9256  6299.15  79.6909
 54.9676  6447.51  80.4783
 55.0096  6224.06  79.1418
 55.0516  6409.95  80.5462
 55.0936  6391.95  80.0657
 55.1356  6203.23  78.9145
 55.1776  6342.73  80.0695
 55.2196  6346.06  79.8702
 55.2616  6375.48  80.2729
 55.3036  6257.73  79.6848
 55.3456  6362.36  80.4979
 55.3876  6357.21  80.2085
 55.4296  6362.97  80.2172
 55.4716  6277.12  79.7119
 55.5136  6343.59  79.8806
 55.5556  6352.83  80.0225
 55.5976  6331.32  79.9367
 55.6396  6233.76  79.2683
 55.6816  6313.37  79.6523
 55.7236  6357.08  79.9718
 55.7656  6365.1  79.7761
 55.8076  6404.01  79.9942
 55.8496  6275.06  79.5125
 55.8916  6336.43  80.1041
 55.9336  6238.65  79.2939
 55.9756  6242.94  79.2185
 56.0176  6258.35  79.4698
 56.0596  6276.05  79.5653
 56.1016  6289.16  79.6587
 56.1436  6195.34  79.3282
 56.1856  6349.02  80.0393
 56.2276  6233  79.3659
 56.2696  6307.64  79.8074
 56.3116  6197.63  79.5125
 56.3536  6225.55  79.3501
 56.3956  6202.66  79.1956
 56.4376  6224.38  79.3607
 56.4796  6297.84  79.634
 56.5216  6272.52  79.8449
 56.5636  6329.29  79.7939
 56.6056  6233.72  79.4192
 56.6476  6270.3  79.2818
 56.6896  6332.54  80.1272
 56.7316  6275.08  79.6769
 56.7736  6263.64  79.5975
 56.8156  6366.73  80.2512
 56.8576  6297.05  79.7496
 56.8996  6255.58  79.421
 56.9416  6220.72  79.4983
 56.9836  6239.96  79.1434
 57.0256  6194.18  79.1678
 57.0676  6138.96  78.94
 57.1096  6154.67  78.8244
 57.1516  6284.74  79.7209
 57.1936  6270.52  79.3735
 57.2356  6256.48  79.6028
 57.2776  6219.56  79.3296
 57.3196  6278.59  80.0788
 57.3616  6266.72  79.4907
 57.4036  6296.25  79.7392
 57.4456  6167.98  78.8934
 57.4876  6371.66  80.0355
 57.5296  6231.17  79.4951
 57.5716  6208.04  79.3302
 57.6136  6316.43  79.8355
 57.6556  6203.19  79.2567
 57.6976  6255.3  79.4128
 57.7396  6221.75  79.5755
 57.7816  6081.07  79.0193
 57.8236  6199.23  79.5854
 57.8656  6151.49  78.9386
 57.9076  6313.2  79.9992
 57.9496  6243.56  79.9083
 57.9916  6217.17  79.245
 58.0336  6224.74  79.573
 58.0756  6152.15  78.7457
 58.1176  6318.69  79.7934
 58.1596  6099.12  78.9697
 58.2016  6264.66  79.2417
 58.2436  6341.5  80.1457
 58.2856  6243.35  79.4432
 58.3276  6170.48  79.3519
 58.3696  6183.49  79.1762
 58.4116  6330.72  79.9815
 58.4536  6260.44  79.4189
 58.4956  6164.07  78.9873
 58.5376  6337.78  79.6567
 58.5796  6232.38  79.4242
 58.6216  6283.29  79.557
 58.6636  6269.72  79.6902
 58.7056  6094.67  78.4237
 58.7476  6149.18  79.2228
 58.7896  6207.23  79.2358
 58.8316  6170.64  78.9937
 58.8736  6281.27  79.7111
 58.9156  6142.5  78.8698
 58.9576  6263.99  79.9733
 58.9996  6300.97  79.4312
 59.0416  6401.36  80.4455
 59.0836  6262.85  79.4944
 59.1256  6130.58  79.3518
 59.1676  6216.98  80.2137
 59.2096  6222.9  79.5696
 59.2516  6357.52  79.9958
 59.2936  6352.62  80.3015
 59.3356  6288.51  79.7704
 59.3776  6361.78  80.4073
 59.4196  6332.2  80.155
 59.4616  6404.94  80.4694
 59.5036  6231.65  79.409
 59.5456  6376.93  80.0145
 59.5876  6245.63  79.3809
 59.6296  6062.4  78.2771
 59.6716  6202.61  79.2358
 59.7136  6366.55  80.2641
 59.7556  6239.98  79.601
 59.7976  6187.1  79.002
 59.8396  6420.6  80.3699
 59.8816  6270.28  79.9795
 59.9236  6253.05  79.5067
 59.9656  6212  79.5099
 60.0076  6375.58  79.8894
 60.0496  6211.15  79.3588
 60.0916  6264.27  79.1095
 60.1336  6248.02  80.1332
 60.1756  6277.77  81.5312
 60.1996  0.0000000E+00  0.0000000E+00