File: docs/examples/opeando_xrd/IS17_D/Data/IS17_D/17_Db_f00139.xye
# /beamlines/bl04/projects/cycle2025-II/20250340211-lsimonelli/DATA/IS17_D/17_Db_f00139.xye : mythproc.py merge -s 0.006 -l 0.5 -f /beamlines/bl04/inhouse/ff/FlatField/ff_20Nov2024rod8mm60s_17keV.raw -b True -c true -o xye /beamlines/bl04/projects/cycle2025-II/20250340211-lsimonelli/DATA/IS17_D/17_Db_00139.dat
# IsMon = [6763338, 6761517, 6762868]  IsPos = [-1.4999, -2.4883, -3.4988]
# Wave = 0.4962  CalPath /beamlines/bl04/projects/cycle2025-II/20250340211-lsimonelli/DATA/Align/Si_Pos1_25keV_f00001.cal
# Date = 2025-09-25_08:27:47 Dt = 4.8000  Bin = 0.0060  <imon> = 6762574 +/- 772 (Min/Max) 6761517 / 6763338
# icurr 250.7968  mocoIn 1.7109E-05  mocoOut 0.8026  i15 7.08408e+06  imon 6.76257e+06  i7 6.3333  iEMpd_timer 4.8000  iEMpd_1 3.4464E-08  iEMpd_2 7.8165E-08  iEMpd_3 1.6451E-08  iEMpd_4 4.7951E-08  iEMhp_timer 4.8000  iEMhp_1 4.8990E-06  iEMhp_2 -2.5640E-08  iEMhp_3 -2.4157E-08  iEMhp_4 -2.2136E-08
#      9776
 1.5856  44362.3  216.265
 1.6276  51070  228.058
 1.6696  56393.1  238.804
 1.7116  63456.8  253.814
 1.7536  71207  267.722
 1.7956  74923.8  275.306
 1.8376  72396.8  271.052
 1.8796  62069.5  249.123
 1.9216  51386  227.581
 1.9636  43963.7  209.641
 2.0056  40120.2  199.492
 2.0476  37401.8  194.727
 2.0896  36150  190.318
 2.1316  35243.8  187.014
 2.1736  33556.7  183.93
 2.2156  33799.5  183.113
 2.2576  32699.4  180.755
 2.2996  31685.5  178.583
 2.3416  31947.4  177.889
 2.3836  31419.8  176.522
 2.4256  30604.1  174.783
 2.4676  29843.3  172.352
 2.5096  29859.9  172.457
 2.5516  30661.9  178.742
 2.5936  74365.7  272.82
 2.6356  29113.7  171.431
 2.6776  27725.8  166.195
 2.7196  27462.5  165.499
 2.7616  27312.6  165.229
 2.8036  26573.8  163.138
 2.8456  26932.6  164.887
 2.8876  25693.9  160.907
 2.9296  25580  160.68
 2.9716  25316.4  159.35
 3.0136  25158.8  158.919
 3.0556  25335.4  159.859
 3.0976  25209.6  158.375
 3.1396  24994.4  158.418
 3.1816  24879.7  157.706
 3.2236  24574  157.027
 3.2656  24275.2  155.119
 3.3076  24123.6  156.088
 3.3496  24367.9  155.794
 3.3916  24691.1  156.648
 3.4336  25254.1  159.027
 3.4756  25480.4  159.664
 3.5176  26165.9  161.578
 3.5596  25927.4  163.28
 3.6016  26076.3  161.358
 3.6436  25153.5  159.589
 3.6856  24767.5  156.668
 3.7276  24090.6  155.599
 3.7696  23613.4  154.229
 3.8116  23610.5  154.117
 3.8536  23519.9  153.745
 3.8956  23392.6  153.15
 3.9376  23618.7  154.161
 3.9796  23315  152.661
 4.0216  23206.9  151.346
 4.0636  23105.1  152.452
 4.1056  23167.3  152.333
 4.1476  23624.5  154.133
 4.1896  23752.8  154.418
 4.2316  23745.4  154.212
 4.2736  24170.3  155.391
 4.3156  24376.3  156.284
 4.3576  24939.1  157.993
 4.3996  25336.6  159.51
 4.4416  25899.8  160.859
 4.4836  26650.5  163.338
 4.5256  27035  165.112
 4.5676  26700.9  164.353
 4.6096  27215  164.576
 4.6516  27741.1  165.855
 4.6936  27681.7  166.51
 4.7356  28277.7  168.115
 4.7776  27925.5  166.895
 4.8196  27879.7  167.403
 4.8616  26896.7  163.927
 4.9036  26926.3  163.738
 4.9456  26780.7  163.954
 4.9876  26234.3  162.177
 5.0296  26250.9  162.065
 5.0716  25923.6  161.802
 5.1136  26169.4  162.292
 5.1556  26699.2  163.384
 5.1976  30256.9  173.902
 5.2396  27080.2  164.232
 5.2816  27112.5  164.794
 5.3236  27306.5  165.084
 5.3656  26655  164.03
 5.4076  26371.8  163.302
 5.4496  26618.1  163.555
 5.4916  26575.1  163.171
 5.5336  26567.4  163.161
 5.5756  26702.4  163.581
 5.6176  26830  163.407
 5.6596  27165.7  165.422
 5.7016  27242.2  164.916
 5.7436  27240.7  165.188
 5.7856  27125  164.908
 5.8276  27305.2  165.167
 5.8696  27827.2  166.914
 5.9116  27367.6  165.837
 5.9536  27855.9  167.341
 5.9956  28205.8  167.783
 6.0376  28052.7  167.948
 6.0796  28366.7  168.71
 6.1216  28311.5  168.8
 6.1636  28668.9  168.852
 6.2056  28348.7  168.598
 6.2476  28552.1  169.066
 6.2896  28747.4  169.327
 6.3316  28799.8  169.644
 6.3736  28751.2  169.397
 6.4156  29142.2  170.422
 6.4576  29236.1  170.329
 6.4996  29216.7  170.754
 6.5416  29126.4  170.62
 6.5836  29232.3  171.167
 6.6256  29300.1  170.923
 6.6676  29824.7  172.01
 6.7096  29780.6  172.736
 6.7516  30061.2  173.213
 6.7936  30809.4  174.738
 6.8356  31159.9  175.84
 6.8776  30765.4  175.534
 6.9196  30616.3  175.503
 6.9616  30988.3  176.016
 7.0036  31605.9  177.41
 7.0456  31489  176.382
 7.0876  31434.6  177.907
 7.1296  31526.7  177.305
 7.1716  31514.5  176.803
 7.2136  31224.2  175.772
 7.2556  31477.6  176.642
 7.2976  31602.5  177.487
 7.3396  31414.8  177.179
 7.3816  31345.9  177.203
 7.4236  31694.3  177.48
 7.4656  31838.5  177.344
 7.5076  32044  178.067
 7.5496  31921.8  178.262
 7.5916  32092.9  178.781
 7.6336  32674.8  180.288
 7.6756  32792  180.463
 7.7176  33012.2  181.385
 7.7596  32914.7  182.35
 7.8016  35565.8  191.857
 7.8436  32926.1  181.279
 7.8856  33500.4  182.468
 7.9276  34025.3  184.281
 7.9696  34248.1  185.194
 8.0116  35129  186.114
 8.0536  35288.5  186.784
 8.0956  36496.5  191.149
 8.1376  35559.1  188.153
 8.1796  36121  190.169
 8.2216  36905.7  190.963
 8.2636  37589.8  193.01
 8.3056  36715.5  191.485
 8.3476  38165.4  194.551
 8.3896  37780.1  193.652
 8.4316  37414.6  192.877
 8.4736  37492.1  192.547
 8.5156  37000.6  191.556
 8.5576  36542  191.948
 8.5996  36742.6  190.733
 8.6416  36484.6  191.316
 8.6836  36512.8  191.217
 8.7256  37066  192.115
 8.7676  38509.9  198.789
 8.8096  38445.9  195.864
 8.8516  37372  192.664
 8.8936  37954.8  194.126
 8.9356  37076.1  192.196
 8.9776  37100.6  192.339
 9.0196  37287.7  192.485
 9.0616  37037  191.345
 9.1036  37855.6  194.642
 9.1456  36086.9  189.377
 9.1876  36349.8  190.003
 9.2296  35819.4  188.051
 9.2716  35734.5  187.866
 9.3136  35966.5  188.474
 9.3556  36297.3  189.316
 9.3976  34835.1  185.973
 9.4396  35288  187.087
 9.4816  34942.4  186.021
 9.5236  34339.2  184.307
 9.5656  34553.8  185.245
 9.6076  33793.3  183.719
 9.6496  33927.9  183.97
 9.6916  33689.4  183.27
 9.7336  33870  183.542
 9.7756  33809.4  184.662
 9.8176  33516.7  183.372
 9.8596  33582.7  181.975
 9.9016  33088.8  180.627
 9.9436  32882.6  179.983
 9.9856  32901.9  180.309
 10.0276  31789.7  178.282
 10.0696  32272.8  178.688
 10.1116  31697.5  177.345
 10.1536  31572.6  177.15
 10.1956  31059.2  175.326
 10.2376  31017.9  174.71
 10.2796  30687  173.885
 10.3216  30565.2  173.84
 10.3636  30232.6  172.915
 10.4056  31290.3  176.332
 10.4476  31682.6  177.027
 10.4896  33922  182.756
 10.5316  32069.2  178.294
 10.5736  29844.1  172.412
 10.6156  29703.3  171.748
 10.6576  32955  179.341
 10.6996  29274.4  169.775
 10.7416  28836.2  168.721
 10.7836  29049.1  170.027
 10.8256  27751.9  166.613
 10.8676  27820.4  166.353
 10.9096  27853.2  166.486
 10.9516  27411  164.099
 10.9936  28050.9  166.211
 11.0356  27661.5  165.667
 11.0776  28072.9  166.224
 11.1196  27751.8  166.052
 11.1616  26644.6  162.369
 11.2036  27370.8  164.417
 11.2456  28162.7  167.521
 11.2876  26887.8  163.394
 11.3296  26772.4  162.958
 11.3716  27234.4  164.034
 11.4136  26707.8  163.344
 11.4556  26960.2  163.76
 11.4976  28035.1  165.953
 11.5396  28062.5  166.215
 11.5816  26719.3  162.64
 11.6236  25879.3  160.295
 11.6656  26289.1  160.687
 11.7076  25432.1  158.879
 11.7496  25344.7  162.629
 11.7916  25814.2  159.323
 11.8336  24865  157.257
 11.8756  25012  157.268
 11.9176  24807.8  156.299
 11.9596  24843.4  156.573
 12.0016  24613.4  156.362
 12.0436  24738  156.464
 12.0856  24336.1  155.703
 12.1276  24384.8  155.805
 12.1696  24095.4  153.992
 12.2116  24319.2  154.711
 12.2536  25754.6  160.042
 12.2956  24277.8  154.735
 12.3376  24531.6  155.744
 12.3796  24161  155.056
 12.4216  24218.7  154.431
 12.4636  24543.9  156.41
 12.5056  23964.1  153.816
 12.5476  23939.1  153.242
 12.5896  23824.4  153.529
 12.6316  24018  154.298
 12.6736  23577.2  153.547
 12.7156  24131.3  154.988
 12.7576  23885  154.446
 12.7996  24117.5  153.84
 12.8416  23865.8  154.088
 12.8836  24492.3  155.837
 12.9256  24446.7  154.814
 12.9676  24505.4  155.399
 13.0096  24543.4  156.644
 13.0516  24716.8  156.224
 13.0936  24726.8  156.663
 13.1356  24660  155.407
 13.1776  24653.6  156.418
 13.2196  24412.8  155.291
 13.2616  24040.1  154.417
 13.3036  24537.5  155.952
 13.3456  24024  154.681
 13.3876  24792.1  156.394
 13.4296  24351  155.166
 13.4716  24539.7  155.39
 13.5136  24675.3  155.949
 13.5556  24554.4  156.206
 13.5976  24725.6  156.916
 13.6396  24675.9  156.115
 13.6816  24539.7  156.152
 13.7236  24891.9  156.837
 13.7656  26839.7  163.331
 13.8076  27708.3  164.621
 13.8496  26823.6  162.621
 13.8916  25021.7  158.202
 13.9336  24188.5  154.821
 13.9756  24316.2  154.601
 14.0176  23824.7  153.715
 14.0596  24435.1  155.587
 14.1016  23987.5  154.59
 14.1436  23848.1  153.261
 14.1856  23236.7  151.583
 14.2276  23377.8  152.524
 14.2696  23410.3  152.481
 14.3116  22779.6  150.324
 14.3536  22596.6  149.885
 14.3956  22589.2  149.583
 14.4376  22479.4  149
 14.4796  22596.8  149.394
 14.5216  22107.9  148.559
 14.5636  22376.1  149.019
 14.6056  22341.9  148.459
 14.6476  21905.2  146.255
 14.6896  21758.8  146.307
 14.7316  21298.2  145.778
 14.7736  21193.2  144.572
 14.8156  21045.7  144.085
 14.8576  20990.4  143.751
 14.8996  20739.6  144.086
 14.9416  20077.7  141.781
 14.9836  20187.1  142.152
 15.0256  19855  139.901
 15.0676  19624.1  139.524
 15.1096  19522.9  138.777
 15.1516  19219.5  138.248
 15.1936  19137.2  137.383
 15.2356  19080.1  137.332
 15.2776  18834.3  136.158
 15.3196  18629.8  136.404
 15.3616  18514.8  135.739
 15.4036  18444.3  135.345
 15.4456  18671.5  135.824
 15.4876  18347.5  134.33
 15.5296  18338.2  134.583
 15.5716  17865  132.442
 15.6136  18004.5  133.285
 15.6556  18818.7  135.492
 15.6976  18139.6  133.323
 15.7396  17800.1  132.445
 15.7816  17842  132.119
 15.8236  17382  131.089
 15.8656  17242.8  130.361
 15.9076  17339.1  130.539
 15.9496  18283.9  136.894
 15.9916  17554.4  134.536
 16.0336  17750.8  132.148
 16.0756  17512.1  131.58
 16.1176  17372.7  131.134
 16.1596  17132.4  131.401
 16.2016  16947.6  129.462
 16.2436  17016  130.098
 16.2856  16817.7  128.87
 16.3276  16606.6  128.481
 16.3696  16800.5  129.06
 16.4116  16510.5  128.375
 16.4536  16847  129.482
 16.4956  17541.7  131.849
 16.5376  16801.6  129.228
 16.5796  16566.8  127.688
 16.6216  16475.1  127.613
 16.6636  16333.5  127.252
 16.7056  16472.5  127.645
 16.7476  16549.5  127.475
 16.7896  16537.5  128.18
 16.8316  16539.1  128.16
 16.8736  16712.9  129.08
 16.9156  16551.7  128.79
 16.9576  16202.4  128.23
 16.9996  16094.6  128.253
 17.0416  16369.2  127.743
 17.0836  16353.1  127.436
 17.1256  16130.9  126.571
 17.1676  16622.6  128.44
 17.2096  16344  127.253
 17.2516  16069.2  125.979
 17.2936  15777.8  125.177
 17.3356  15738.4  125.002
 17.3776  15383.1  123.777
 17.4196  15528.6  124.062
 17.4616  15674.8  124.548
 17.5036  15705.8  125.047
 17.5456  15222.4  123.734
 17.5876  15399  123.499
 17.6296  15410.9  123.37
 17.6716  15315  123.562
 17.7136  16001.2  126.433
 17.7556  15133.8  123.263
 17.7976  15419.3  124.137
 17.8396  15257.1  122.992
 17.8816  14898.2  122.102
 17.9236  14933.8  122.035
 17.9656  14929.2  122.544
 18.0076  15149.2  123.022
 18.0496  15119.2  122.03
 18.0916  17673.3  132.526
 18.1336  16668.5  128.82
 18.1756  15503.1  123.77
 18.2176  15297.3  123.161
 18.2596  14612.5  120.099
 18.3016  15119.8  122.436
 18.3436  15362.6  123.416
 18.3856  15016.1  122.144
 18.4276  14734.5  120.687
 18.4696  14851.7  121.242
 18.5116  14795.1  121.299
 18.5536  14591.9  120.813
 18.5956  14501.2  120.005
 18.6376  14659.2  121.07
 18.6796  14464.1  119.573
 18.7216  14585.5  120.566
 18.7636  14515.4  120.276
 18.8056  14167.3  118.751
 18.8476  13956.2  118.481
 18.8896  14306.1  119.297
 18.9316  14238.9  118.994
 18.9736  14168.9  118.408
 19.0156  14325.4  119.475
 19.0576  14534.9  119.179
 19.0996  14333.1  119.208
 19.1416  14321.2  119.419
 19.1836  14120.5  118.185
 19.2256  13967.7  117.762
 19.2676  14073.8  118.292
 19.3096  13985.2  118.156
 19.3516  14039.5  118.357
 19.3936  14053.3  118.306
 19.4356  14229.3  118.93
 19.4776  14013.9  118.111
 19.5196  13948.3  117.689
 19.5616  14080.5  118.507
 19.6036  13827.5  116.936
 19.6456  13949  117.563
 19.6876  14220.6  118.338
 19.7296  14238.9  118.876
 19.7716  13934  117.772
 19.8136  14360  119.751
 19.8556  14579.1  120.146
 19.8976  14602.6  120.298
 19.9396  14603.8  119.888
 19.9816  14537  119.935
 20.0236  14700.6  120.731
 20.0656  14240.6  118.835
 20.1076  14017.3  118.365
 20.1496  13776.9  117.348
 20.1916  13837.6  117.117
 20.2336  13832  117.015
 20.2756  13618.5  116.551
 20.3176  13504.6  115.811
 20.3596  13472.4  115.657
 20.4016  13540.8  115.742
 20.4436  13302.5  115.283
 20.4856  13414  115.557
 20.5276  13242.4  115.279
 20.5696  13371.2  115.271
 20.6116  13493.4  116.086
 20.6536  13259.3  114.597
 20.6956  13237.1  114.626
 20.7376  13099.3  114.245
 20.7796  13089.2  113.893
 20.8216  13365.9  114.797
 20.8636  13375.2  115.215
 20.9056  13789.8  116.925
 20.9476  13308.3  114.702
 20.9896  13898.6  117.088
 21.0316  13114.4  113.638
 21.0736  13268.8  114.819
 21.1156  13478.9  115.895
 21.1576  13195.7  114.704
 21.1996  13076.6  114.171
 21.2416  13097.1  114.089
 21.2836  13149.3  114.288
 21.3256  13121.2  114.245
 21.3676  13131.6  113.827
 21.4096  13181.4  114.359
 21.4516  12862.4  112.843
 21.4936  12667.5  112.252
 21.5356  12966.4  113.515
 21.5776  13016.2  113.566
 21.6196  13164.2  114.244
 21.6616  12917.4  113.252
 21.7036  12904.9  112.964
 21.7456  12978.1  113.366
 21.7876  12681.9  111.831
 21.8296  12564.6  111.155
 21.8716  12729.7  112.115
 21.9136  12886.1  112.999
 21.9556  12811.5  112.351
 21.9976  12714.6  111.953
 22.0396  12634.9  111.854
 22.0816  12583.3  112.155
 22.1236  12903.9  113.027
 22.1656  12783.3  112.642
 22.2076  12517.9  110.93
 22.2496  12339.8  110.168
 22.2916  12396.8  110.308
 22.3336  12450.1  111.26
 22.3756  12505.1  111.229
 22.4176  12429.2  110.745
 22.4596  12152  110.082
 22.5016  12426.7  110.815
 22.5436  12524.7  111.136
 22.5856  12583.7  111.643
 22.6276  12370.7  110.864
 22.6696  12363.8  111.152
 22.7116  12345.4  110.584
 22.7536  12438.4  110.975
 22.7956  12461.3  110.414
 22.8376  12315.9  110.283
 22.8796  12300.3  110.016
 22.9216  12381.8  110.914
 22.9636  12261.3  109.539
 23.0056  12417.6  110.373
 23.0476  12404.6  110.885
 23.0896  12775.1  111.9
 23.1316  12551.8  111.35
 23.1736  12519.4  113.929
 23.2156  12748.3  112.543
 23.2576  12853.6  113.136
 23.2996  12649.6  112.018
 23.3416  12590.4  112.274
 23.3836  12597.6  111.544
 23.4256  12819  112.637
 23.4676  12613.1  111.418
 23.5096  12654.8  112.271
 23.5516  12484.1  110.796
 23.5936  12811.9  113.176
 23.6356  12898.3  113.216
 23.6776  12506.1  111.694
 23.7196  12332.4  110.492
 23.7616  12517.8  111.239
 23.8036  12621.3  111.748
 23.8456  12422.6  110.428
 23.8876  12549  111.341
 23.9296  12449.7  111.386
 23.9716  12421.8  110.468
 24.0136  12488  111.669
 24.0556  12208.3  110.13
 24.0976  12414.8  110.871
 24.1396  12157.2  112.337
 24.1816  12209.1  110.988
 24.2236  12314.2  111.086
 24.2656  12183.4  109.963
 24.3076  12273.8  110.652
 24.3496  12100.2  109.746
 24.3916  12012.2  109.399
 24.4336  12477.8  111.706
 24.4756  12261.2  110.613
 24.5176  11829.8  108.274
 24.5596  11807.1  108.291
 24.6016  11839.7  108.743
 24.6436  12122.1  109.53
 24.6856  11804.3  107.826
 24.7276  11790.6  108.096
 24.7696  11835.5  108.404
 24.8116  11782.2  108.35
 24.8536  11766.8  108.278
 24.8956  11689.3  107.647
 24.9376  11640.4  107.355
 24.9796  11540.3  107.25
 25.0216  11606.7  107.677
 25.0636  11544.5  107.038
 25.1056  11356  106.86
 25.1476  11310.3  108.27
 25.1896  11327.4  106.868
 25.2316  11361.7  106.305
 25.2736  11334.2  105.823
 25.3156  11210.7  105.311
 25.3576  11198.7  105.699
 25.3996  11196.6  105.674
 25.4416  11268.5  105.99
 25.4836  11003  105.253
 25.5256  11121.7  105.181
 25.5676  11173.6  105.157
 25.6096  11112.7  105.44
 25.6516  11093.1  104.852
 25.6936  11156.2  105.465
 25.7356  11050.3  105.1
 25.7776  11140.3  105.123
 25.8196  10973.6  104.579
 25.8616  10966.7  104.472
 25.9036  11246.5  105.243
 25.9456  10977.2  104.581
 25.9876  10967.8  104.598
 26.0296  11025.9  104.393
 26.0716  11097.9  105.151
 26.1136  11050  104.867
 26.1556  11160.1  104.757
 26.1976  10929.3  104.607
 26.2396  10913.4  103.674
 26.2816  10947.1  104.455
 26.3236  11006.6  104.89
 26.3656  11150.7  105.289
 26.4076  10757.3  103.603
 26.4496  11067.3  104.69
 26.4916  11304.3  105.7
 26.5336  11246.3  105.781
 26.5756  11576.6  107.197
 26.6176  11251.4  105.669
 26.6596  10946.2  104.575
 26.7016  10758.2  103.431
 26.7436  10918  104.33
 26.7856  10552.2  102.551
 26.8276  10840.6  103.913
 26.8696  10676.9  102.99
 26.9116  10654.2  102.818
 26.9536  10583.7  102.522
 26.9956  10521.8  102.263
 27.0376  10608.1  102.9
 27.0796  10507.8  102.142
 27.1216  10687  103.065
 27.1636  10478.5  102.228
 27.2056  10383.3  101.651
 27.2476  10479.1  102.11
 27.2896  10394.4  101.833
 27.3316  10427.6  101.688
 27.3736  10213.1  100.91
 27.4156  10291.6  101.125
 27.4576  10387.6  101.829
 27.4996  10529.4  102.118
 27.5416  10481.7  102.196
 27.5836  10289.5  101.096
 27.6256  10295.4  101.308
 27.6676  10216  100.897
 27.7096  10379.3  101.584
 27.7516  10542.7  102.54
 27.7936  10837.6  104.099
 27.8356  10644.7  102.771
 27.8776  10630.9  102.775
 27.9196  10304.5  101.049
 27.9616  10436.3  101.892
 28.0036  10283.8  101.115
 28.0456  10107  100.375
 28.0876  10084.2  100.346
 28.1296  10132.2  100.359
 28.1716  10256.9  101.048
 28.2136  10093.8  100.213
 28.2556  10154.7  100.618
 28.2976  10208.6  100.89
 28.3396  10124.5  100.229
 28.3816  10132.3  100.272
 28.4236  10161  100.585
 28.4656  10029.4  99.9628
 28.5076  9825.1  98.5869
 28.5496  9872.12  99.0728
 28.5916  9874.06  98.8802
 28.6336  10067.6  100.203
 28.6756  9938.76  98.7605
 28.7176  9912.8  99.0741
 28.7596  9801.23  98.5119
 28.8016  9777.75  98.438
 28.8436  9756.8  98.5678
 28.8856  9951  99.4471
 28.9276  9899.59  99.3905
 28.9696  9767.8  98.381
 29.0116  9670.06  98.0781
 29.0536  9571.81  97.7799
 29.0956  9752.45  98.396
 29.1376  9861.9  98.9237
 29.1796  9851.21  98.9199
 29.2216  9801.71  98.503
 29.2636  9814.04  98.6456
 29.3056  9702.88  97.8583
 29.3476  9578.27  97.7612
 29.3896  9817.04  99.0864
 29.4316  9595.41  97.2977
 29.4736  9505.41  96.9003
 29.5156  9655.02  97.5815
 29.5576  9539.96  97.7392
 29.5996  9526.18  96.9239
 29.6416  9515.24  96.9923
 29.6836  9576.5  97.2317
 29.7256  9527.46  97.3132
 29.7676  9440.84  96.7611
 29.8096  9375.92  96.3758
 29.8516  9326.79  96.4505
 29.8936  9350.4  96.6663
 29.9356  9334.6  96.3398
 29.9776  9342.51  96.5318
 30.0196  9389.27  96.4393
 30.0616  9364.99  96.4125
 30.1036  9487.64  96.8734
 30.1456  9323.52  96.2589
 30.1876  9257.65  95.8999
 30.2296  9283.65  95.9802
 30.2716  9375.6  96.0953
 30.3136  9285.41  96.4779
 30.3556  9548.13  97.8366
 30.3976  9539.7  99.2879
 30.4396  9900.86  98.4586
 30.4816  9648.48  96.8041
 30.5236  9662.03  96.8574
 30.5656  9483.34  96.6242
 30.6076  9692.14  97.0938
 30.6496  9745.53  97.77
 30.6916  9293.94  95.569
 30.7336  9473.98  96.6256
 30.7756  9539.13  97.0497
 30.8176  9398.59  96.254
 30.8596  9467.96  96.3818
 30.9016  9535.75  97.0714
 30.9436  9406.5  96.1647
 30.9856  9690.88  97.7133
 31.0276  9410.54  95.9245
 31.0696  9290.52  95.8624
 31.1116  9454.25  96.677
 31.1536  9408.93  96.3201
 31.1956  9547.01  97.1171
 31.2376  9007.75  94.3526
 31.2796  9237.18  95.0931
 31.3216  9493.33  96.3136
 31.3636  9345.98  96.2781
 31.4056  9372.35  97.7488
 31.4476  9377.97  95.6637
 31.4896  9451.44  96.5397
 31.5316  9516.23  96.2714
 31.5736  9742.04  97.2311
 31.6156  9655.23  96.8034
 31.6576  9610.53  96.6569
 31.6996  9597.42  96.2628
 31.7416  9497.33  96.855
 31.7836  9538.52  96.0457
 31.8256  9444.67  95.8409
 31.8676  9443.46  95.8301
 31.9096  9282.72  95.3888
 31.9516  9193.36  95.0895
 31.9936  9143.02  94.6544
 32.0356  9208.24  95.0414
 32.0776  9555.52  96.7029
 32.1196  9375.22  95.8995
 32.1616  9490.63  95.9296
 32.2036  9394.81  95.9582
 32.2456  9215.92  95.4218
 32.2876  9337.85  95.5467
 32.3296  9254.03  95.0782
 32.3716  9092.16  94.3587
 32.4136  9017.43  94.171
 32.4556  9194.84  94.4719
 32.4976  9060.32  93.6892
 32.5396  8943.98  93.1536
 32.5816  9024.93  93.6939
 32.6236  9016.06  93.7147
 32.6656  9310.55  95.7737
 32.7076  8965.81  93.6438
 32.7496  8953.27  93.2614
 32.7916  8935.4  93.1225
 32.8336  8958.78  93.3431
 32.8756  9090.42  93.7384
 32.9176  8990.15  93.7112
 32.9596  8954.33  93.5894
 33.0016  9003.56  93.6301
 33.0436  8902.26  93.2822
 33.0856  8897.64  93.3386
 33.1276  8848.11  92.8112
 33.1696  8979.22  93.325
 33.2116  8990.12  93.6197
 33.2536  9069.76  94.025
 33.2956  9002.93  93.7543
 33.3376  8897.22  92.945
 33.3796  9028.18  93.8514
 33.4216  8888.46  92.7079
 33.4636  8839.7  92.6113
 33.5056  8782.26  92.5568
 33.5476  8903.23  93.1663
 33.5896  8887.3  92.881
 33.6316  8847.34  92.9721
 33.6736  8748.71  92.7066
 33.7156  8849.12  93.2709
 33.7576  8875.01  93.0454
 33.7996  8898.47  92.9239
 33.8416  8684.06  91.9857
 33.8836  8773.5  92.2375
 33.9256  8827.13  92.5687
 33.9676  8909.89  92.9004
 34.0096  8765.49  92.458
 34.0516  8749.3  92.007
 34.0936  8686.73  91.955
 34.1356  8790.23  92.2381
 34.1776  8560.09  91.0209
 34.2196  8623.23  91.5375
 34.2616  8641.51  91.7749
 34.3036  8759.07  92.6375
 34.3456  8638.6  91.7496
 34.3876  8716.1  92.1301
 34.4296  8642.4  91.4363
 34.4716  8720.74  92.0046
 34.5136  8701.53  92.0977
 34.5556  8520.07  91.386
 34.5976  8596.09  91.6058
 34.6396  8654.51  91.7524
 34.6816  8733.91  92.1453
 34.7236  8687.66  91.6901
 34.7656  8582.66  91.3406
 34.8076  8576.86  91.6396
 34.8496  8484.93  91.068
 34.8916  8596.51  91.4548
 34.9336  8610.85  91.515
 34.9756  8589.16  91.3199
 35.0176  8600.57  91.9077
 35.0596  8736.34  92.4455
 35.1016  8602.78  91.4954
 35.1436  8785.52  92.1514
 35.1856  8596.72  91.2694
 35.2276  8595.98  91.4391
 35.2696  8541.93  91.3527
 35.3116  8482.4  91.1368
 35.3536  8567.14  91.2885
 35.3956  8525.46  90.7773
 35.4376  8626.33  91.8721
 35.4796  8547.3  91.4941
 35.5216  8561.27  91.5395
 35.5636  8290.76  90.8219
 35.6056  8428.44  90.5931
 35.6476  8519.67  90.9776
 35.6896  8527.21  91.1175
 35.7316  8417.57  90.5047
 35.7736  8440.76  90.8104
 35.8156  8474.32  91.0007
 35.8576  8505.12  91.4139
 35.8996  8536.46  91.5434
 35.9416  8497.44  90.8321
 35.9836  8423.74  90.7895
 36.0256  8642.25  91.9821
 36.0676  8581.24  91.4105
 36.1096  8448.9  90.8319
 36.1516  8661.63  91.8651
 36.1936  8515.2  90.9271
 36.2356  8423.27  91.0951
 36.2776  8374.35  90.3061
 36.3196  8456.21  90.4093
 36.3616  8487.85  90.7054
 36.4036  8388.94  90.2472
 36.4456  8426.15  90.6513
 36.4876  8322.33  90.0296
 36.5296  8398.25  90.4849
 36.5716  8392.55  91.231
 36.6136  8400.08  90.0565
 36.6556  8206.47  89.2102
 36.6976  8138.09  89.3326
 36.7396  8146.58  89.2819
 36.7816  8003.67  88.6966
 36.8236  8106.32  89.1813
 36.8656  8139.75  89.4422
 36.9076  8123.44  89.2305
 36.9496  8025.16  88.6781
 36.9916  8074.41  88.5757
 37.0336  8293.17  90.0899
 37.0756  8069.15  88.6595
 37.1176  7959.28  88.3197
 37.1596  8157.21  89.419
 37.2016  8114.53  89.4082
 37.2436  8211.55  89.2484
 37.2856  8031.87  88.5216
 37.3276  8136.36  88.456
 37.3696  8046.1  88.8436
 37.4116  8070.48  88.8831
 37.4536  8038.07  88.4243
 37.4956  7878.18  87.7265
 37.5376  8188.92  91.0386
 37.5796  8110.73  90.5221
 37.6216  8034.75  88.3727
 37.6636  8203.07  89.1813
 37.7056  8150.82  89.0809
 37.7476  8225.67  89.0329
 37.7896  8089.47  88.8045
 37.8316  8093.58  88.9766
 37.8736  8065.68  88.3573
 37.9156  8249.49  89.3344
 37.9576  8026.1  88.0444
 37.9996  8019.13  87.721
 38.0416  8061.72  88.7616
 38.0836  8185.11  89.3321
 38.1256  8123.05  88.9731
 38.1676  7975.68  88.281
 38.2096  8155.73  88.8738
 38.2516  8154.88  89.1008
 38.2936  8075.13  88.4567
 38.3356  8026.86  88.1266
 38.3776  8128.64  88.9317
 38.4196  8119.33  88.7391
 38.4616  8012.96  88.4022
 38.5036  8163.69  89.0712
 38.5456  7927.45  88.5888
 38.5876  7961.25  88.9826
 38.6296  7979.73  87.8802
 38.6716  8061.14  88.1393
 38.7136  7979.33  87.6335
 38.7556  7993.21  88.2188
 38.7976  8111.41  88.7981
 38.8396  7911.84  87.9648
 38.8816  8026.75  88.5865
 38.9236  7914.02  87.7517
 38.9656  8087.7  88.6137
 39.0076  8173.77  88.4897
 39.0496  8131.6  88.8218
 39.0916  8026.47  87.8923
 39.1336  7972.1  88.0009
 39.1756  7978.7  88.099
 39.2176  8030.91  88.9321
 39.2596  8006.54  88.7164
 39.3016  7884.34  87.5563
 39.3436  7866.24  87.9254
 39.3856  7924.49  87.699
 39.4276  8082.4  89.081
 39.4696  8000.21  88.2511
 39.5116  8068.59  89.1406
 39.5536  8038.26  89.3954
 39.5956  7945.62  87.9888
 39.6376  8024.86  88.4158
 39.6796  7965.8  87.8415
 39.7216  8037.98  88.3446
 39.7636  8019.74  88.8095
 39.8056  7974.75  88.3413
 39.8476  7929.11  88.3396
 39.8896  7987.48  88.2929
 39.9316  7820.93  87.6114
 39.9736  8073.06  88.6755
 40.0156  7914.42  87.548
 40.0576  7936.91  88.0232
 40.0996  8078.84  87.9839
 40.1416  7996  88.342
 40.1836  8028.47  88.399
 40.2256  7994.28  88.2425
 40.2676  7982.28  88.2741
 40.3096  7954.84  88.0565
 40.3516  8093.12  88.931
 40.3936  7972.32  87.8301
 40.4356  7951.89  87.9224
 40.4776  8093.67  89.0987
 40.5196  8003.39  88.6582
 40.5616  8180.48  89.3477
 40.6036  7941.01  88.2807
 40.6456  7966.6  88.0374
 40.6876  8050.49  88.4859
 40.7296  7983  88.1384
 40.7716  7989.34  88.4053
 40.8136  7886.2  87.7797
 40.8556  8067.97  88.9255
 40.8976  8042.81  88.7053
 40.9396  7931.18  88.4365
 40.9816  8088.04  88.5943
 41.0236  8004.85  87.9126
 41.0656  8098.31  88.9713
 41.1076  8007.33  88.2393
 41.1496  8045.61  88.353
 41.1916  8020  88.5337
 41.2336  7958.45  88.185
 41.2756  7981.13  87.921
 41.3176  8030.75  88.8039
 41.3596  8020.61  88.4864
 41.4016  7984.08  88.5484
 41.4436  8039.68  88.6337
 41.4856  7988.34  88.5244
 41.5276  7951  88.3264
 41.5696  7991.1  88.1867
 41.6116  8073.05  89.0161
 41.6536  8031.81  88.6548
 41.6956  7952.95  88.2745
 41.7376  8012.37  88.632
 41.7796  7946.43  88.1518
 41.8216  8002.53  88.6982
 41.8636  8005.46  88.6577
 41.9056  7941.19  88.0879
 41.9476  7959.16  88.3205
 41.9896  8074.27  88.7209
 42.0316  7937.56  88.0572
 42.0736  8092.89  89.0158
 42.1156  8053.1  88.6356
 42.1576  8031.31  88.5941
 42.1996  7967.84  88.4
 42.2416  7944.42  87.8541
 42.2836  7950.85  88.0133
 42.3256  7934.32  88.0175
 42.3676  8060.35  88.5232
 42.4096  8140.76  88.9362
 42.4516  8034.87  88.4246
 42.4936  7821.6  87.3283
 42.5356  7868.03  87.7283
 42.5776  7870.47  87.6769
 42.6196  7970.8  88.2914
 42.6616  7835.33  87.7083
 42.7036  7918.49  87.5463
 42.7456  8007.34  88.3984
 42.7876  7753.88  87.0746
 42.8296  7899.22  87.7285
 42.8716  7763.34  87.1267
 42.9136  7897.82  87.6687
 42.9556  7890.1  87.7576
 42.9976  7922.4  87.9096
 43.0396  7954.97  87.8197
 43.0816  7919.25  88.0072
 43.1236  7748.91  87.1034
 43.1656  7911.88  87.8318
 43.2076  7818.63  87.4255
 43.2496  7882.9  87.6083
 43.2916  7779.47  87.3858
 43.3336  7801.9  87.3557
 43.3756  7839.27  87.3191
 43.4176  7797.97  87.165
 43.4596  7696.45  86.4553
 43.5016  7764.92  87.2416
 43.5436  7855.19  87.6554
 43.5856  7703.82  86.8326
 43.6276  7708.13  86.7471
 43.6696  7782.47  87.4227
 43.7116  7768.84  86.8393
 43.7536  7739.7  87.178
 43.7956  7708.78  88.2082
 43.8376  7644.69  86.3784
 43.8796  7601.34  86.211
 43.9216  7687.1  86.6129
 43.9636  7665.88  86.6002
 44.0056  7537.96  86.1086
 44.0476  7565.17  85.891
 44.0896  7544.8  86.1211
 44.1316  7828.72  87.2427
 44.1736  7571.26  85.922
 44.2156  7735.33  86.6997
 44.2576  7572.35  86.1065
 44.2996  7542.87  85.9032
 44.3416  7649.2  86.2677
 44.3836  7482.47  85.6558
 44.4256  7487.19  85.3252
 44.4676  7512.98  85.626
 44.5096  7538.79  85.9204
 44.5516  7456.43  85.4092
 44.5936  7504.11  85.64
 44.6356  7628.74  86.0831
 44.6776  7547.29  85.8616
 44.7196  7544.21  86.2294
 44.7616  7617.82  87.985
 44.8036  7576.96  86.1587
 44.8456  7720.37  87.1811
 44.8876  7634.76  86.5391
 44.9296  7794.07  86.8718
 44.9716  7703.25  86.7997
 45.0136  7578.79  86.0334
 45.0556  7801.24  87.265
 45.0976  7653.74  86.5948
 45.1396  7455.94  85.2328
 45.1816  7505.47  85.4566
 45.2236  7748.55  86.7291
 45.2656  7537.57  86.0392
 45.3076  7589.95  86.1053
 45.3496  7514.39  85.9993
 45.3916  7571.64  86.5955
 45.4336  7589.63  86.5406
 45.4756  7652.21  86.7452
 45.5176  7743.12  86.8702
 45.5596  7714.88  86.8365
 45.6016  7600.65  86.6157
 45.6436  7550.66  85.5003
 45.6856  7555.12  86.194
 45.7276  7531.63  87.3778
 45.7696  7469.02  86.6966
 45.8116  7534.56  86.5054
 45.8536  7426.81  85.7749
 45.8956  7616.52  86.2101
 45.9376  7640.93  85.8076
 45.9796  7564.42  86.0647
 46.0216  7587.56  86.5496
 46.0636  7635.32  85.941
 46.1056  7659.16  86.0727
 46.1476  7573.3  86.1869
 46.1896  7583.91  86.3841
 46.2316  7536.64  85.9872
 46.2736  7550.85  86.4445
 46.3156  7625.8  86.46
 46.3576  7591.43  86.4702
 46.3996  7659.06  87.0058
 46.4416  7625.33  86.3873
 46.4836  7554.55  86.3467
 46.5256  7406.82  85.4429
 46.5676  7478.15  85.9671
 46.6096  7577.91  86.4642
 46.6516  7602.49  85.642
 46.6936  7584.54  86.0365
 46.7356  7648.69  86.4994
 46.7776  7490.93  86.4649
 46.8196  7474.87  85.9599
 46.8616  7439.63  85.7041
 46.9036  7314.93  84.6479
 46.9456  7483.34  85.2452
 46.9876  7506.45  85.4669
 47.0296  7534.13  86.3215
 47.0716  7436.57  85.5818
 47.1136  7483.13  85.5146
 47.1556  7494.74  85.4493
 47.1976  7583.4  86.0299
 47.2396  7423.75  85.5301
 47.2816  7357.75  84.8527
 47.3236  7469.4  85.8695
 47.3656  7500.03  85.9751
 47.4076  7396.67  85.1712
 47.4496  7410.04  85.3534
 47.4916  7408.82  85.5293
 47.5336  7500.03  85.8729
 47.5756  7495.62  85.9648
 47.6176  7346.04  85.0028
 47.6596  7355.18  84.7642
 47.7016  7600.64  85.9739
 47.7436  7491.37  85.704
 47.7856  7502.43  85.7884
 47.8276  7435.13  85.4615
 47.8696  7435.04  85.5335
 47.9116  7472.05  85.4634
 47.9536  7454.47  85.3059
 47.9956  7272.99  84.9746
 48.0376  7361.33  85.263
 48.0796  7450.55  85.9036
 48.1216  7405.4  85.4659
 48.1636  7570.26  85.9673
 48.2056  7491.31  85.7929
 48.2476  7513.19  86.2282
 48.2896  7544.4  86.312
 48.3316  7516.08  86.0954
 48.3736  7392.68  85.4074
 48.4156  7474.78  85.7338
 48.4576  7416.17  85.6955
 48.4996  7522.24  85.7493
 48.5416  7467.34  85.7641
 48.5836  7429.43  85.2199
 48.6256  7478.47  85.6943
 48.6676  7416  85.8774
 48.7096  7421.03  85.1597
 48.7516  7468.3  85.5835
 48.7936  7288.53  84.6116
 48.8356  7358.84  85.0679
 48.8776  7355.12  85.6267
 48.9196  7552.08  86.1163
 48.9616  7443.73  85.8891
 49.0036  7400.73  85.9951
 49.0456  7425.61  86.1222
 49.0876  7389.15  85.4274
 49.1296  7323.84  85.222
 49.1716  7327.89  85.1138
 49.2136  7388.1  85.3892
 49.2556  7381.63  85.4871
 49.2976  7473.93  85.9831
 49.3396  7375.1  85.4755
 49.3816  7465.6  85.4094
 49.4236  7333.82  85.0849
 49.4656  7322.87  84.998
 49.5076  7338.23  84.8642
 49.5496  7332.11  84.907
 49.5916  7419.8  85.3093
 49.6336  7291.24  84.7846
 49.6756  7465.4  86.0247
 49.7176  7296.15  84.9933
 49.7596  7391.27  85.3041
 49.8016  7438.18  85.4922
 49.8436  7328.41  85.1667
 49.8856  7287.69  84.9309
 49.9276  7291.18  85.0531
 49.9696  7307.06  85.126
 50.0116  7362.59  85.5771
 50.0536  7268.1  84.9731
 50.0956  7273.64  85.0899
 50.1376  7293.65  84.8907
 50.1796  7201.51  84.6296
 50.2216  7284.53  85.1127
 50.2636  7244.65  84.4847
 50.3056  7245.56  84.6777
 50.3476  7313.19  85.0889
 50.3896  7243.08  84.6552
 50.4316  7415.12  85.479
 50.4736  7210.19  84.51
 50.5156  7277.9  84.9032
 50.5576  7297.45  84.7632
 50.5996  7328.19  85.3578
 50.6416  7266.51  84.7954
 50.6836  7286.36  84.9804
 50.7256  7267.86  84.7919
 50.7676  7342.97  85.5578
 50.8096  7262.33  84.6121
 50.8516  7114.33  84.1644
 50.8936  7156.15  84.1895
 50.9356  7298.77  85.1376
 50.9776  7209.73  84.7807
 51.0196  6999.69  83.665
 51.0616  7114.23  83.656
 51.1036  7189.15  84.4649
 51.1456  7170.84  84.2665
 51.1876  7199.49  83.7507
 51.2296  7116.85  84.0433
 51.2716  7122.71  83.6588
 51.3136  7075.1  83.8496
 51.3556  7060.43  83.3711
 51.3976  7206.79  84.3884
 51.4396  7006.28  83.5253
 51.4816  7007.75  83.3824
 51.5236  7167.83  84.4408
 51.5656  7026.65  83.1693
 51.6076  7110.85  83.7573
 51.6496  6985.67  83.2079
 51.6916  6978.35  83.5299
 51.7336  7006.13  83.7885
 51.7756  7044.64  83.7061
 51.8176  6989.35  83.4922
 51.8596  6949.73  83.2693
 51.9016  7097.97  83.7492
 51.9436  7133.88  85.4811
 51.9856  7121.02  85.8132
 52.0276  7234.37  84.951
 52.0696  7230.44  84.999
 52.1116  6970.37  83.5757
 52.1536  7165.49  84.6178
 52.1956  7023.33  83.2241
 52.2376  7104.75  83.884
 52.2796  7135.26  83.8799
 52.3216  6908.25  83.2276
 52.3636  7106.44  83.9671
 52.4056  7080.94  83.6823
 52.4476  6955.86  83.295
 52.4896  6938.03  83.2488
 52.5316  6994.77  83.6329
 52.5736  6998.9  83.388
 52.6156  7128.38  84.5552
 52.6576  6987.36  83.1432
 52.6996  6780.06  82.8868
 52.7416  6814.91  82.9534
 52.7836  7004.18  83.9883
 52.8256  6994.64  83.1287
 52.8676  6917.25  83.2395
 52.9096  6971.36  83.6449
 52.9516  6967.98  84.0333
 52.9936  6891.6  83.9484
 53.0356  6957.95  83.3272
 53.0776  7019.29  83.9748
 53.1196  7044.96  84.2575
 53.1616  7091.75  84.5798
 53.2036  6881.78  83.282
 53.2456  6949.7  83.8012
 53.2876  6945.25  83.4565
 53.3296  6966.25  83.914
 53.3716  7085.47  84.3758
 53.4136  6919.51  83.535
 53.4556  6936.41  83.6661
 53.4976  6860.19  83.0347
 53.5396  6886.73  83.6112
 53.5816  6969.75  83.737
 53.6236  6900.04  83.6111
 53.6656  6941.39  83.5231
 53.7076  6943.4  83.5044
 53.7496  7037.8  84.1926
 53.7916  7012.86  84.1821
 53.8336  6902.63  83.4002
 53.8756  6874.5  83.7848
 53.9176  6852.01  82.993
 53.9596  6656.23  82.5709
 54.0016  6727.42  82.3188
 54.0436  6606.27  81.8059
 54.0856  6768.57  82.2187
 54.1276  6787.38  82.5371
 54.1696  6733.77  82.3591
 54.2116  6781.24  82.3989
 54.2536  6695.65  81.7
 54.2956  6794.57  82.2858
 54.3376  6658  82.0146
 54.3796  6651.4  81.8644
 54.4216  6770.89  82.6566
 54.4636  6630.49  81.8171
 54.5056  6676.19  81.8352
 54.5476  6595.14  81.6834
 54.5896  6699.52  82.169
 54.6316  6721.05  82.1434
 54.6736  6777.03  82.5742
 54.7156  6554.53  81.2364
 54.7576  6610.76  81.543
 54.7996  6639.27  81.8883
 54.8416  6638.38  81.8512
 54.8836  6704.73  82.4382
 54.9256  6591.97  81.5012
 54.9676  6579.58  81.2861
 55.0096  6616.71  81.551
 55.0516  6547.93  81.3576
 55.0936  6652.46  81.6589
 55.1356  6535.98  80.9869
 55.1776  6613.06  81.7101
 55.2196  6568.75  81.2777
 55.2616  6688.99  82.1877
 55.3036  6509.19  81.254
 55.3456  6496.92  81.3179
 55.3876  6550.61  81.3666
 55.4296  6434.85  80.6837
 55.4716  6477.34  80.9494
 55.5136  6461.94  80.611
 55.5556  6649.74  81.8271
 55.5976  6432.9  80.5733
 55.6396  6635  81.7582
 55.6816  6472.29  80.6159
 55.7236  6490.5  80.7887
 55.7656  6567.15  80.9826
 55.8076  6470.44  80.4023
 55.8496  6484.24  80.788
 55.8916  6414.71  80.562
 55.9336  6635.92  81.7695
 55.9756  6378.87  80.0435
 56.0176  6403.54  80.3347
 56.0596  6359.75  80.0601
 56.1016  6346.38  80.0004
 56.1436  6383.19  80.4864
 56.1856  6343.94  79.9977
 56.2276  6542.48  81.2786
 56.2696  6352.77  80.1094
 56.3116  6576.45  81.8572
 56.3536  6435.75  80.6227
 56.3956  6393.2  80.3532
 56.4376  6399.86  80.4377
 56.4796  6256.24  79.3442
 56.5216  6379.39  80.5059
 56.5636  6340.14  79.8204
 56.6056  6524.29  81.2178
 56.6476  6378.22  79.905
 56.6896  6625.95  81.9211
 56.7316  6367.39  80.2298
 56.7736  6381.65  80.3142
 56.8156  6364.78  80.229
 56.8576  6232.57  79.3302
 56.8996  6405.6  80.3022
 56.9416  6258.82  79.7271
 56.9836  6353.23  79.8301
 57.0256  6348.01  80.1028
 57.0676  6453.41  80.8965
 57.1096  6351.38  80.0468
 57.1516  6311.12  79.8358
 57.1936  6324.19  79.667
 57.2356  6219.29  79.3288
 57.2776  6287.26  79.7335
 57.3196  6316.25  80.0757
 57.3616  6368.22  80.0897
 57.4036  6327.38  79.8999
 57.4456  6461.1  80.7102
 57.4876  6380.57  80.0805
 57.5296  6212.47  79.3393
 57.5716  6297.56  79.8731
 57.6136  6168.16  78.9006
 57.6556  6246.97  79.5256
 57.6976  6246.36  79.2628
 57.7396  6263.35  79.7999
 57.7816  6205.49  79.8261
 57.8236  6221.27  79.7102
 57.8656  6163.81  79.0031
 57.9076  6269.73  79.6934
 57.9496  6268.1  80.0577
 57.9916  6261.86  79.5104
 58.0336  6179.02  79.2745
 58.0756  6273.17  79.5038
 58.1176  6216.93  79.1372
 58.1596  6187  79.5403
 58.2016  6019.18  77.6818
 58.2436  6039.93  78.2191
 58.2856  5932.31  77.4472
 58.3276  5980.16  78.122
 58.3696  6015.03  78.11
 58.4116  5915.8  77.3269
 58.4536  6036.95  78.001
 58.4956  5903.31  77.3117
 58.5376  6013.46  77.7273
 58.5796  5873.97  77.111
 58.6216  6046.84  78.062
 58.6636  6067.07  78.3998
 58.7056  5965.81  77.6027
 58.7476  5969.52  78.0685
 58.7896  5994.75  77.8792
 58.8316  6041.74  78.2859
 58.8736  5983.86  77.8154
 58.9156  5926.71  77.4848
 58.9576  5966.7  78.0652
 58.9996  5986.69  77.4504
 59.0416  6060.65  78.2889
 59.0836  5981.44  77.6885
 59.1256  5929.75  78.0497
 59.1676  5999.27  78.822
 59.2096  6032.78  78.342
 59.2516  6049.11  78.0287
 59.2936  6142.35  78.9586
 59.3356  5975.79  77.7591
 59.3776  5963.82  77.849
 59.4196  5927.72  77.5498
 59.4616  6006.88  77.9261
 59.5036  5838.35  76.8601
 59.5456  6092.63  78.2079
 59.5876  6074.73  78.2845
 59.6296  5836.41  76.8016
 59.6716  5870.24  77.081
 59.7136  6004.42  77.9453
 59.7556  5948.06  77.7141
 59.7976  5833.78  76.7104
 59.8396  5844.64  76.6778
 59.8816  5969.47  78.0349
 59.9236  5911.35  77.3012
 59.9656  5877.51  77.3365
 60.0076  6020.52  77.6304
 60.0496  5895.69  77.3192
 60.0916  6180.76  78.5778
 60.1336  5850.61  77.5402
 60.1756  5850.48  78.7049
 60.1996  0.0000000E+00  0.0000000E+00