File: docs/examples/opeando_xrd/IS17_D/Data/IS17_D/17_Da_f00045.xye
# /beamlines/bl04/projects/cycle2025-II/20250340211-lsimonelli/DATA/IS17_D/17_Da_f00045.xye : mythproc.py merge -s 0.006 -l 0.5 -f /beamlines/bl04/inhouse/ff/FlatField/ff_20Nov2024rod8mm60s_17keV.raw -b True -c true -o xye /beamlines/bl04/projects/cycle2025-II/20250340211-lsimonelli/DATA/IS17_D/17_Da_00045.dat
# IsMon = [6774060, 6776664, 6778077]  IsPos = [-1.4999, -2.4884, -3.4986]
# Wave = 0.4962  CalPath /beamlines/bl04/projects/cycle2025-II/20250340211-lsimonelli/DATA/Align/Si_Pos1_25keV_f00001.cal
# Date = 2025-09-24_06:04:20 Dt = 4.8000  Bin = 0.0060  <imon> = 6776267 +/- 1664 (Min/Max) 6774060 / 6778077
# icurr 251.4424  mocoIn 1.7168E-05  mocoOut 0.8049  i15 7.08815e+06  imon 6.77627e+06  i7 7.0000  iEMpd_timer 4.8000  iEMpd_1 3.5115E-08  iEMpd_2 7.8039E-08  iEMpd_3 1.5839E-08  iEMpd_4 4.8501E-08  iEMhp_timer 4.8000  iEMhp_1 4.9135E-06  iEMhp_2 -2.5313E-08  iEMhp_3 -2.2738E-08  iEMhp_4 -2.1353E-08
#      9776
 1.5856  41561.2  209.372
 1.6276  49077  223.613
 1.6696  55638.5  237.252
 1.7116  64154.6  255.262
 1.7536  73939.1  272.869
 1.7956  78887.1  282.555
 1.8376  74865  275.695
 1.8796  62923.2  250.898
 1.9216  50937.2  226.635
 1.9636  43560.2  208.723
 2.0056  38976.2  196.67
 2.0476  36489.8  192.38
 2.0896  35245.5  187.963
 2.1316  34536.6  185.168
 2.1736  32780.7  181.831
 2.2156  33162  181.418
 2.2576  32085.2  179.087
 2.2996  30666.9  175.727
 2.3416  31246.3  175.962
 2.3836  30687.3  174.49
 2.4256  29666.6  172.123
 2.4676  29244.4  170.652
 2.5096  29046.5  170.129
 2.5516  28392.2  172.079
 2.5936  28724.1  169.59
 2.6356  28120  168.505
 2.6776  27911.4  166.741
 2.7196  27539.7  166.156
 2.7616  27530.1  165.899
 2.8036  26820.9  163.924
 2.8456  26945.4  164.933
 2.8876  26672.9  163.967
 2.9296  26046.1  162.162
 2.9716  25913.5  161.227
 3.0136  25470.4  159.91
 3.0556  25583.7  160.673
 3.0976  25387.1  158.967
 3.1396  25267.6  159.319
 3.1816  25018.2  158.468
 3.2236  24754.1  157.628
 3.2656  24895  157.086
 3.3076  24413.5  157.043
 3.3496  24798.8  157.191
 3.3916  25205.5  158.299
 3.4336  25625.2  160.203
 3.4756  25800  160.681
 3.5176  26712.3  163.279
 3.5596  26484.4  165.046
 3.6016  26802.4  163.601
 3.6436  25881.3  161.884
 3.6856  25452.4  158.805
 3.7276  24387.3  156.552
 3.7696  24226.4  156.229
 3.8116  23735.7  154.528
 3.8536  23720.4  154.41
 3.8956  23856.9  154.675
 3.9376  23380  153.41
 3.9796  23609.1  153.63
 4.0216  23649.1  152.779
 4.0636  23676.3  154.371
 4.1056  23667.3  153.974
 4.1476  23615.2  154.128
 4.1896  23931.3  155.007
 4.2316  24042.7  155.194
 4.2736  24501.6  156.45
 4.3156  24802.1  157.633
 4.3576  25505.8  159.782
 4.3996  25753.5  160.615
 4.4416  26161.5  161.672
 4.4836  26604.9  163.185
 4.5256  27160.4  165.509
 4.5676  27148.4  165.727
 4.6096  27476  165.371
 4.6516  28129.1  167.022
 4.6936  28230  168.144
 4.7356  28404.4  168.495
 4.7776  28277.3  167.94
 4.8196  27794  167.166
 4.8616  27578.2  165.987
 4.9036  27254.2  164.757
 4.9456  27206.3  165.26
 4.9876  26391.5  162.67
 5.0296  26796.4  163.722
 5.0716  26689.3  164.176
 5.1136  26734.1  164.032
 5.1556  27039.9  164.419
 5.1976  27611.4  166.151
 5.2396  27639.3  165.924
 5.2816  27611.2  166.311
 5.3236  27621.1  166.038
 5.3656  27372.1  166.219
 5.4076  26932.5  165.031
 5.4496  27003.9  164.728
 5.4916  27354.6  165.552
 5.5336  27236.2  165.196
 5.5756  26861.6  164.093
 5.6176  27149.8  164.397
 5.6596  27230.7  165.629
 5.7016  27440.2  165.52
 5.7436  27723.3  166.65
 5.7856  27451.4  165.892
 5.8276  27945.1  167.088
 5.8696  28012.1  167.466
 5.9116  27826.6  167.486
 5.9536  28033.6  167.894
 5.9956  28532.1  168.735
 6.0376  28313.7  168.728
 6.0796  28765.7  169.899
 6.1216  28878.7  170.434
 6.1636  29010.2  169.881
 6.2056  29164.8  170.999
 6.2476  29186.5  170.938
 6.2896  29508.5  171.555
 6.3316  29362.6  171.314
 6.3736  29627.5  171.972
 6.4156  29680.2  172.025
 6.4576  29860.9  172.144
 6.4996  30115.7  173.358
 6.5416  30017.9  173.221
 6.5836  30300.2  174.263
 6.6256  30113.6  173.286
 6.6676  30901.6  175.103
 6.7096  30604.2  175.124
 6.7516  31199.8  176.461
 6.7936  31179  175.576
 6.8356  31223  176.03
 6.8776  31669.7  178.094
 6.9196  31650.8  178.451
 6.9616  32343.1  179.823
 7.0036  32723.1  180.526
 7.0456  32464.6  179.098
 7.0876  32593.8  181.168
 7.1296  32451.3  179.895
 7.1716  32508.6  179.589
 7.2136  32268.7  178.699
 7.2556  32574.3  179.711
 7.2976  32680.2  180.509
 7.3396  32464.7  180.128
 7.3816  32444.5  180.291
 7.4236  32504.4  179.741
 7.4656  33031.6  180.666
 7.5076  33393.6  181.792
 7.5496  33025.9  181.33
 7.5916  33035.6  181.391
 7.6336  33351.1  182.154
 7.6756  33588.5  182.65
 7.7176  33916.2  183.851
 7.7596  33823.7  184.867
 7.8016  34303.2  188.378
 7.8436  34706.8  186.1
 7.8856  34810.8  185.982
 7.9276  35471.3  188.139
 7.9696  35562.9  188.7
 8.0116  36830.8  190.917
 8.0536  36798.7  190.716
 8.0956  36777.4  191.864
 8.1376  37261.8  192.584
 8.1796  37286.3  193.192
 8.2216  38050.4  193.886
 8.2636  38327.5  194.843
 8.3056  38096  195.033
 8.3476  38760.4  196.043
 8.3896  38722.5  196.479
 8.4316  38691  196.118
 8.4736  38786.5  195.823
 8.5156  38361.8  195.024
 8.5576  38326.9  195.921
 8.5996  38405.9  194.978
 8.6416  38159.9  195.637
 8.6836  38010.7  195.074
 8.7256  38487.8  195.729
 8.7676  37755.2  196.805
 8.8096  37819.6  194.26
 8.8516  37457.1  192.929
 8.8936  37232.6  192.252
 8.9356  37224.1  192.583
 8.9776  37354.2  193.002
 9.0196  36922.3  191.566
 9.0616  37317.1  192.034
 9.1036  36832.9  191.993
 9.1456  36829  191.324
 9.1876  36927.3  191.536
 9.2296  36872.4  190.784
 9.2716  36317.4  189.411
 9.3136  36486.9  189.838
 9.3556  36652.9  190.256
 9.3976  35176.7  186.922
 9.4396  35570.6  187.848
 9.4816  35127.1  186.538
 9.5236  34970.5  186.029
 9.5656  34817.4  185.943
 9.6076  34578.4  185.836
 9.6496  34599  185.819
 9.6916  34438.1  185.349
 9.7336  34455.9  185.182
 9.7756  34527.7  186.64
 9.8176  33898.5  184.439
 9.8596  33731.4  182.417
 9.9016  33271.3  181.162
 9.9436  33034  180.425
 9.9856  32696.4  179.726
 10.0276  32123.5  179.257
 10.0696  32611.3  179.644
 10.1116  31695.6  177.366
 10.1536  31556.2  177.146
 10.1956  31071.8  175.378
 10.2376  30708.7  173.858
 10.2796  30842.9  174.361
 10.3216  30377.8  173.301
 10.3636  30171.8  172.754
 10.4056  29800  172.076
 10.4476  29945.8  172.127
 10.4896  29936.5  171.552
 10.5316  29138.3  169.955
 10.5736  29169.5  170.458
 10.6156  28731.4  168.942
 10.6576  28842.9  167.833
 10.6996  28579.1  167.728
 10.7416  28071.3  166.469
 10.7836  28176.8  167.463
 10.8256  27941.2  167.194
 10.8676  27899.2  166.599
 10.9096  27563.4  165.636
 10.9516  27333.9  163.874
 10.9936  27375.4  164.201
 11.0356  27064.2  163.896
 11.0776  26995.6  162.999
 11.1196  26453.7  162.105
 11.1616  26384.5  161.577
 11.2036  26314.3  161.218
 11.2456  26319.6  161.934
 11.2876  26245.2  161.444
 11.3296  25850.6  160.121
 11.3716  26170.2  160.8
 11.4136  25950.1  161.014
 11.4556  26262.6  161.644
 11.4976  26214.7  160.48
 11.5396  26257.1  160.776
 11.5816  26738.8  162.703
 11.6236  27350.8  164.779
 11.6656  27725.3  165.042
 11.7076  26896.9  163.411
 11.7496  26371.4  165.816
 11.7916  26128.9  160.312
 11.8336  25851.4  160.353
 11.8756  25384.4  158.438
 11.9176  25488.1  158.656
 11.9596  25153.1  157.554
 12.0016  25160.9  158.379
 12.0436  25095.4  157.598
 12.0856  24710.7  156.907
 12.1276  24756.5  156.974
 12.1696  24733.4  156.025
 12.2116  25164  157.369
 12.2536  24431.2  155.898
 12.2956  24809.9  156.423
 12.3376  24433.5  155.453
 12.3796  24718.7  156.82
 12.4216  24634.1  155.759
 12.4636  24238.7  155.417
 12.5056  24637  155.961
 12.5476  24761.7  155.874
 12.5896  24499.6  155.683
 12.6316  24383.3  155.478
 12.6736  24505.1  156.2
 12.7156  24414.1  155.925
 12.7576  24514.7  156.49
 12.7996  24499.4  155.071
 12.8416  24623.6  156.531
 12.8836  24808  156.92
 12.9256  25036  156.667
 12.9676  25128.2  157.378
 13.0096  24851.2  157.625
 13.0516  24966.3  157.017
 13.0936  24995.5  157.514
 13.1356  25492.5  158.036
 13.1776  25313.1  158.474
 13.2196  25356.2  158.272
 13.2616  25381.7  158.66
 13.3036  25681.6  159.566
 13.3456  25335.7  158.847
 13.3876  25367.3  158.236
 13.4296  25349.9  158.327
 13.4716  25318.3  157.833
 13.5136  25456.1  158.422
 13.5556  25244.8  158.379
 13.5976  25349.3  158.854
 13.6396  25617.6  159.049
 13.6816  25076.9  157.866
 13.7236  25682.2  159.382
 13.7656  25084  158.075
 13.8076  25219.9  157.265
 13.8496  24785.6  156.513
 13.8916  24970.1  158.108
 13.9336  24887.4  157.058
 13.9756  24684.1  155.768
 14.0176  24763.9  156.705
 14.0596  24691.8  156.439
 14.1016  24251.9  155.442
 14.1436  24137.5  154.204
 14.1856  23859.3  153.608
 14.2276  23601.8  153.266
 14.2696  23948.9  154.219
 14.3116  23697.4  153.305
 14.3536  23186.9  151.832
 14.3956  23323.7  152
 14.4376  23518.6  152.415
 14.4796  23227  151.455
 14.5216  22914.9  151.244
 14.5636  22596.1  149.745
 14.6056  22853.1  150.169
 14.6476  23014.5  149.916
 14.6896  22375.4  148.366
 14.7316  22109.5  148.524
 14.7736  22025.3  147.377
 14.8156  21964.2  147.203
 14.8576  21827.9  146.597
 14.8996  21379.2  146.304
 14.9416  20911.3  144.688
 14.9836  21032.5  145.072
 15.0256  20937.4  143.648
 15.0676  20755  143.338
 15.1096  20696.2  142.87
 15.1516  20528.8  142.863
 15.1936  20377.3  141.748
 15.2356  20143.8  141.218
 15.2776  20131.6  140.755
 15.3196  19572.3  139.797
 15.3616  19584.2  139.59
 15.4036  19476  139.055
 15.4456  19596.4  138.902
 15.4876  19394.9  138.093
 15.5296  19204.9  137.708
 15.5716  19043  136.718
 15.6136  18832.3  136.296
 15.6556  19019.9  136.199
 15.6976  18773.8  135.614
 15.7396  18658.8  135.587
 15.7816  18731.7  135.359
 15.8236  18198  134.115
 15.8656  18388  134.607
 15.9076  17856  132.47
 15.9496  17959.5  135.682
 15.9916  17817.8  135.598
 16.0336  17645.8  131.802
 16.0756  17985.8  133.377
 16.1176  17643.5  132.175
 16.1596  17242.1  131.844
 16.2016  17456  131.39
 16.2436  17176.2  130.723
 16.2856  17233.9  130.482
 16.3276  16876.1  129.54
 16.3696  17183.5  130.531
 16.4116  16974  130.195
 16.4536  17028.3  130.189
 16.4956  16772.9  128.947
 16.5376  16843.3  129.404
 16.5796  16641.2  127.982
 16.6216  16619.2  128.202
 16.6636  16596.2  128.266
 16.7056  16612.5  128.2
 16.7476  16625  127.916
 16.7896  16544.2  128.216
 16.8316  16407.1  127.656
 16.8736  16565.6  128.532
 16.9156  16343.4  127.996
 16.9576  16363.1  128.878
 16.9996  16538.4  130.055
 17.0416  16839.6  129.559
 17.0836  16697.9  128.773
 17.1256  16584.2  128.349
 17.1676  16437  127.771
 17.2096  16478.1  127.802
 17.2516  16260.9  126.738
 17.2936  16525.7  128.11
 17.3356  16179.3  126.76
 17.3776  15944.6  126.023
 17.4196  16045.7  126.104
 17.4616  15964.1  125.706
 17.5036  15489.8  124.19
 17.5456  15576.4  125.186
 17.5876  15132.2  122.438
 17.6296  15294.6  122.907
 17.6716  15314.4  123.569
 17.7136  14998.8  122.433
 17.7556  15142.5  123.309
 17.7976  15040.3  122.632
 17.8396  15016.4  122.029
 17.8816  14949.8  122.298
 17.9236  14639.6  120.842
 17.9656  14906.3  122.47
 18.0076  14824.2  121.709
 18.0496  15031.2  121.686
 18.0916  14674.7  120.774
 18.1336  14782.8  121.313
 18.1756  14837.2  121.071
 18.2176  14620.7  120.404
 18.2596  14591  120.019
 18.3016  14750.7  120.938
 18.3436  14651.8  120.526
 18.3856  14354.6  119.437
 18.4276  14533.9  119.85
 18.4696  14439.3  119.561
 18.5116  14431.8  119.809
 18.5536  14552.2  120.668
 18.5956  14315.3  119.236
 18.6376  14425.9  120.103
 18.6796  14212  118.533
 18.7216  14502  120.228
 18.7636  14149.5  118.756
 18.8056  14225.1  119.006
 18.8476  14156.2  119.032
 18.8896  14109.5  118.484
 18.9316  14433.6  119.818
 18.9736  14141.6  118.299
 19.0156  14322.3  119.441
 19.0576  14306.4  118.256
 19.0996  14330.4  119.068
 19.1416  13981.8  118.005
 19.1836  14144.1  118.283
 19.2256  14073.1  118.2
 19.2676  14106.7  118.437
 19.3096  14201  119.076
 19.3516  14140.1  118.781
 19.3936  14137.9  118.733
 19.4356  14005.3  117.987
 19.4776  14100.1  118.478
 19.5196  14153.5  118.557
 19.5616  13950.2  117.952
 19.6036  14098.5  117.934
 19.6456  14090.1  118.16
 19.6876  14211.6  118.311
 19.7296  14029.8  118.011
 19.7716  13817.4  117.276
 19.8136  14011.7  118.311
 19.8556  14266.8  118.852
 19.8976  13999.2  117.798
 19.9396  14190.9  118.175
 19.9816  14227.4  118.567
 20.0236  14364.3  119.359
 20.0656  14575.7  120.226
 20.1076  14510  120.431
 20.1496  14754.7  121.446
 20.1916  15074.8  122.254
 20.2336  15126.2  122.393
 20.2756  14956.3  122.148
 20.3176  14708  120.869
 20.3596  14564  120.249
 20.4016  14415.8  119.437
 20.4436  14288.4  119.472
 20.4856  13956.2  117.874
 20.5276  13897.3  118.087
 20.5696  13879.1  117.461
 20.6116  13803.3  117.415
 20.6536  13711.5  116.534
 20.6956  13835.7  117.182
 20.7376  13700.8  116.839
 20.7796  13503.1  115.685
 20.8216  13655.4  116.038
 20.8636  13439.1  115.485
 20.9056  13553.5  115.925
 20.9476  13262.7  114.52
 20.9896  13686  116.183
 21.0316  13587.3  115.667
 21.0736  13372  115.27
 21.1156  13463  115.82
 21.1576  13477.4  115.935
 21.1996  13372.1  115.464
 21.2416  13224  114.655
 21.2836  13407.9  115.411
 21.3256  13282.4  114.957
 21.3676  13276.5  114.47
 21.4096  13197.2  114.438
 21.4516  12999.9  113.461
 21.4936  12994.1  113.68
 21.5356  13335.5  115.121
 21.5776  13243.6  114.553
 21.6196  13089.3  113.917
 21.6616  12883.1  113.104
 21.7036  13062.7  113.67
 21.7456  13004.1  113.489
 21.7876  13114.9  113.725
 21.8296  13036.6  113.235
 21.8716  13044.6  113.506
 21.9136  13109.4  113.986
 21.9556  13151  113.837
 21.9976  12903.2  112.773
 22.0396  12968.9  113.306
 22.0816  12986.8  113.94
 22.1236  13012.9  113.504
 22.1656  13055.9  113.812
 22.2076  13078  113.376
 22.2496  12953.4  112.861
 22.2916  12940.8  112.687
 22.3336  12978.3  113.585
 22.3756  12964.7  113.242
 22.4176  12865.3  112.658
 22.4596  12831.5  113.106
 22.5016  12889.4  112.844
 22.5436  13037  113.373
 22.5856  12993.6  113.436
 22.6276  12908.6  113.205
 22.6696  12746.3  112.846
 22.7116  12873.9  112.914
 22.7536  12916.7  113.077
 22.7956  12995.9  112.744
 22.8376  12770  112.286
 22.8796  12858  112.471
 22.9216  12992  113.61
 22.9636  12920.5  112.438
 23.0056  12700  111.611
 23.0476  12945.4  113.26
 23.0896  13288.5  114.115
 23.1316  12896.1  112.855
 23.1736  12755.5  115.221
 23.2156  13159  114.247
 23.2576  13022.9  113.89
 23.2996  12987.8  113.505
 23.3416  12888.4  113.609
 23.3836  13062.6  113.563
 23.4256  13140.4  114.048
 23.4676  13072.4  113.443
 23.5096  13070.5  114.119
 23.5516  12800.3  112.213
 23.5936  12942.3  113.749
 23.6356  13078.3  114.009
 23.6776  12796.5  113.323
 23.7196  12794.6  112.549
 23.7616  12737.1  112.206
 23.8036  12920.5  113.065
 23.8456  12628  111.335
 23.8876  12554.4  111.37
 23.9296  12698.4  112.505
 23.9716  12530.7  110.952
 24.0136  12740.7  112.781
 24.0556  12480.3  111.359
 24.0976  12542.5  111.432
 24.1396  12388.1  113.42
 24.1816  12396.9  111.874
 24.2236  12577.9  112.293
 24.2656  12306.4  110.543
 24.3076  12279.6  110.675
 24.3496  12218  110.285
 24.3916  12216.9  110.334
 24.4336  12012.7  109.615
 24.4756  12090.4  109.835
 24.5176  11975.2  108.959
 24.5596  11965.8  109.042
 24.6016  11828.9  108.707
 24.6436  11976.8  108.868
 24.6856  11908.1  108.317
 24.7276  11815.8  108.211
 24.7696  11791.1  108.216
 24.8116  11786  108.377
 24.8536  11710.7  108.021
 24.8956  11621.3  107.347
 24.9376  11584.8  107.117
 24.9796  11577.6  107.441
 25.0216  11360.5  106.541
 25.0636  11635.3  107.469
 25.1056  11268.6  106.466
 25.1476  11624.9  109.812
 25.1896  11533.5  107.847
 25.2316  11393.9  106.346
 25.2736  11478.3  106.502
 25.3156  11432.2  106.367
 25.3576  11437.2  106.813
 25.3996  11323.8  106.27
 25.4416  11425  106.719
 25.4836  11195.7  106.175
 25.5256  11305.6  106.049
 25.5676  11379.9  106.125
 25.6096  11176.9  105.749
 25.6516  11304.1  105.845
 25.6936  11134.4  105.37
 25.7356  11187.7  105.752
 25.7776  11224.1  105.526
 25.8196  11042.5  104.898
 25.8616  11133.6  105.256
 25.9036  11361.1  105.79
 25.9456  11053.6  104.944
 25.9876  11102.7  105.241
 26.0296  11203.8  105.227
 26.0716  11030.4  104.835
 26.1136  11073.1  104.98
 26.1556  11233.2  105.013
 26.1976  10949.8  104.697
 26.2396  11009.2  104.126
 26.2816  11000.7  104.707
 26.3236  11029.6  104.924
 26.3656  11073.2  104.938
 26.4076  11059.9  105.072
 26.4496  11470.1  106.488
 26.4916  11214.9  105.309
 26.5336  11168.5  105.417
 26.5756  11185.7  105.367
 26.6176  10969.7  104.385
 26.6596  10943.1  104.57
 26.7016  10998.3  104.631
 26.7436  10871.3  104.12
 26.7856  10833.1  103.913
 26.8276  10945  104.403
 26.8696  10931.5  104.212
 26.9116  10815.5  103.597
 26.9536  10666.2  102.928
 26.9956  10659.3  102.927
 27.0376  10622.9  102.96
 27.0796  10728.1  103.196
 27.1216  10658.4  102.95
 27.1636  10636.6  103.01
 27.2056  10622.5  102.822
 27.2476  10598.2  102.705
 27.2896  10475  102.144
 27.3316  10602.6  102.541
 27.3736  10590.4  102.758
 27.4156  10518  102.25
 27.4576  10476.5  102.277
 27.4996  10473.4  101.858
 27.5416  10478.8  102.203
 27.5836  10399.9  101.636
 27.6256  10677.9  103.148
 27.6676  10614.6  102.864
 27.7096  10365.8  101.514
 27.7516  10313.6  101.412
 27.7936  10336  101.696
 27.8356  10394.5  101.597
 27.8776  10414.6  101.746
 27.9196  10272.4  100.887
 27.9616  10370.5  101.568
 28.0036  10179.5  100.6
 28.0456  10349.8  101.566
 28.0876  10158.3  100.716
 28.1296  10224.9  100.887
 28.1716  10277.7  101.16
 28.2136  10297.7  101.219
 28.2556  10158.7  100.657
 28.2976  10007.1  99.8786
 28.3396  10149.9  100.351
 28.3816  10193.6  100.593
 28.4236  10173.5  100.646
 28.4656  10030.5  99.975
 28.5076  10116.6  100.038
 28.5496  10099.4  100.215
 28.5916  10187.8  100.456
 28.6336  9971.59  99.7323
 28.6756  10088  99.5055
 28.7176  10034.4  99.7903
 28.7596  10021.2  99.6229
 28.8016  9981.86  99.5415
 28.8436  9951.96  99.5531
 28.8856  10010.1  99.6954
 28.9276  9987.98  99.8313
 28.9696  9857.19  98.8343
 29.0116  9886.45  99.1562
 29.0536  9775.6  98.8117
 29.0956  9891.46  99.11
 29.1376  9933.18  99.2839
 29.1796  9841.02  98.8694
 29.2216  9964.66  99.3267
 29.2636  9858.51  98.872
 29.3056  9909.08  98.9122
 29.3476  9797.65  98.8796
 29.3896  9890.94  99.4446
 29.4316  9837.56  98.5067
 29.4736  9853.16  98.6494
 29.5156  9955.58  99.0772
 29.5576  9855.88  99.3342
 29.5996  9874.79  98.6779
 29.6416  9716.8  98.0048
 29.6836  9880.58  98.7491
 29.7256  9698.2  98.4052
 29.7676  9882.84  98.9902
 29.8096  9857.76  98.807
 29.8516  9651.35  98.1062
 29.8936  9809.53  99.0002
 29.9356  9936.48  99.3889
 29.9776  9706.3  98.3853
 30.0196  9719.56  97.8375
 30.0616  9729.09  98.261
 30.1036  9859.58  98.7421
 30.1456  9594.32  97.6596
 30.1876  9718.8  98.2483
 30.2296  9646.41  97.8213
 30.2716  9690.65  97.6861
 30.3136  9738.93  98.5301
 30.3556  9670.57  98.4664
 30.3976  9612.43  99.7069
 30.4396  9739.91  97.6757
 30.4816  9752.02  97.3257
 30.5236  9578.19  96.4749
 30.5656  9614.77  97.313
 30.6076  9743.33  97.3855
 30.6496  9613.12  97.1185
 30.6916  9586.17  97.0694
 30.7336  9464.71  96.6115
 30.7756  9611.68  97.67
 30.8176  9551.52  97.0611
 30.8596  9575.31  96.9473
 30.9016  9546.65  97.1485
 30.9436  9612.31  97.2316
 30.9856  9691.67  97.742
 31.0276  9562.49  96.7007
 31.0696  9540.52  97.0314
 31.1116  9504.04  96.9534
 31.1536  9567.09  97.1511
 31.1956  9609.62  97.4616
 31.2376  9372.69  96.2591
 31.2796  9503.08  96.4598
 31.3216  9535.02  96.5663
 31.3636  9505.72  97.1153
 31.4056  9527.61  98.5625
 31.4476  9492.72  96.2528
 31.4896  9465.18  96.6204
 31.5316  9396.52  95.6586
 31.5736  9541.72  96.2126
 31.6156  9573.5  96.4008
 31.6576  9490.49  96.0802
 31.6996  9453.34  95.5548
 31.7416  9315.28  95.9236
 31.7836  9434.06  95.5403
 31.8256  9212.76  94.6852
 31.8676  9512.78  96.2077
 31.9096  9315.96  95.5632
 31.9516  9065.92  94.4353
 31.9936  9301.24  95.4749
 32.0356  9356  95.8143
 32.0776  9372.09  95.7907
 32.1196  9458.71  96.3149
 32.1616  9242.04  94.6725
 32.2036  9228.83  95.1164
 32.2456  9220.3  95.4563
 32.2876  9323.14  95.479
 32.3296  9238.07  95.0057
 32.3716  9225.39  95.0355
 32.4136  9289.67  95.5858
 32.4556  9333.17  95.1782
 32.4976  9267.64  94.7542
 32.5396  9165  94.2983
 32.5816  9224.28  94.6241
 32.6236  9246.87  94.9138
 32.6656  9379.01  96.1346
 32.7076  9164.82  94.686
 32.7496  9134.72  94.1904
 32.7916  9326.26  95.138
 32.8336  9169.93  94.4358
 32.8756  9161.11  94.2032
 32.9176  9148.48  94.5311
 32.9596  9064.72  94.1728
 33.0016  9083.92  94.062
 33.0436  9199.51  94.829
 33.0856  9071.25  94.242
 33.1276  8902.42  93.0941
 33.1696  9046.71  93.6935
 33.2116  9295.66  95.2013
 33.2536  9173.35  94.5752
 33.2956  9086.52  94.2081
 33.3376  8966.04  93.2883
 33.3796  9097.71  94.2075
 33.4216  9074.91  93.689
 33.4636  9085.12  93.8873
 33.5056  9047.22  93.7652
 33.5476  8966.08  93.5093
 33.5896  9284.82  94.9233
 33.6316  9004.59  93.7926
 33.6736  9049.31  94.2716
 33.7156  9133.24  94.7587
 33.7576  9088.86  94.149
 33.7996  9107.17  94.0054
 33.8416  8830.74  92.7561
 33.8836  8973.19  93.2687
 33.9256  9026.87  93.6183
 33.9676  9096.33  93.8689
 34.0096  8835  92.8294
 34.0516  8908.8  92.8496
 34.0936  8869.55  92.91
 34.1356  8963.4  93.1388
 34.1776  8931.34  92.9827
 34.2196  8758.18  92.2588
 34.2616  8841.47  92.8919
 34.3036  8744.92  92.5794
 34.3456  8779.37  92.5102
 34.3876  8744.17  92.2918
 34.4296  8853.1  92.541
 34.4716  8905.19  92.9723
 34.5136  8792.6  92.5858
 34.5556  8807.26  92.9171
 34.5976  8753.51  92.4382
 34.6396  8923.48  93.0391
 34.6816  8789.6  92.4537
 34.7236  8841.14  92.5053
 34.7656  8834.99  92.6713
 34.8076  8679.81  92.1696
 34.8496  8693.1  92.1043
 34.8916  8771.96  92.3951
 34.9336  8798.84  92.4956
 34.9756  8814.29  92.4951
 35.0176  8783.61  92.8722
 35.0596  8755.59  92.5542
 35.1016  8694.99  91.993
 35.1436  8878.45  92.6331
 35.1856  8699.62  91.8307
 35.2276  8760.98  92.3266
 35.2696  8699.1  92.1988
 35.3116  8792.56  92.7806
 35.3536  8568.8  91.308
 35.3956  8585.21  91.1041
 35.4376  8741.94  92.4992
 35.4796  8790.94  92.8102
 35.5216  8596.98  91.669
 35.5636  8539.12  92.1818
 35.6056  8739.61  92.2556
 35.6476  8669.21  91.7831
 35.6896  8702.82  92.0502
 35.7316  8609.36  91.5223
 35.7736  8542.88  91.3706
 35.8156  8524.87  91.2785
 35.8576  8637.41  92.1296
 35.8996  8736.27  92.6152
 35.9416  8799.76  92.4315
 35.9836  8511.06  91.2735
 36.0256  8578.53  91.6532
 36.0676  8637.14  91.7201
 36.1096  8423.86  90.7198
 36.1516  8618.25  91.6473
 36.1936  8485.02  90.7832
 36.2356  8594.7  92.0165
 36.2776  8502.65  91.0001
 36.3196  8524.66  90.7842
 36.3616  8505.88  90.819
 36.4036  8610.46  91.4322
 36.4456  8498.26  91.046
 36.4876  8341.87  90.1364
 36.5296  8423.86  90.6268
 36.5716  8397.02  91.2676
 36.6136  8697.98  91.6212
 36.6556  8602.25  91.3287
 36.6976  8500.29  91.2893
 36.7396  8466.5  90.9316
 36.7816  8497.08  91.3804
 36.8236  8429  90.9316
 36.8656  8426.47  90.9903
 36.9076  8302.87  90.2026
 36.9496  8293.38  90.2919
 36.9916  8464.71  90.6873
 37.0336  8461.78  90.9924
 37.0756  8494.34  90.9547
 37.1176  8355.77  90.5747
 37.1596  8350.16  90.4584
 37.2016  8314.48  90.4933
 37.2436  8347.4  89.9826
 37.2856  8319.01  90.0898
 37.3276  8400.91  89.8736
 37.3696  8286.25  90.1512
 37.4116  8382.72  90.5758
 37.4536  8177.43  89.3247
 37.4956  8269.39  89.8741
 37.5376  8329.58  91.7639
 37.5796  8297.63  91.5592
 37.6216  8257.7  89.5913
 37.6636  8240.51  89.3965
 37.7056  8143.59  89.058
 37.7476  8267.81  89.2682
 37.7896  8221.02  89.5036
 37.8316  8070.06  88.8671
 37.8736  8273.62  89.4933
 37.9156  8154.54  88.8522
 37.9576  8169.67  88.9716
 37.9996  8027.93  87.768
 38.0416  8264.73  89.8762
 38.0836  8445.19  90.7548
 38.1256  8251.44  89.6717
 38.1676  8006.34  88.4608
 38.2096  8101.13  88.6079
 38.2516  8337.3  89.995
 38.2936  8148.27  88.8626
 38.3356  8246.62  89.3107
 38.3776  8030.32  88.4101
 38.4196  8260.33  89.5124
 38.4616  8094.27  88.85
 38.5036  8188.68  89.2103
 38.5456  8118.97  89.6721
 38.5876  8149.7  89.8726
 38.6296  8136.65  88.7718
 38.6716  8126.74  88.5056
 38.7136  8034.4  87.9451
 38.7556  8064.76  88.6178
 38.7976  8198.42  89.2892
 38.8396  8026.56  88.8024
 38.8816  7980.19  88.3292
 38.9236  7979.6  88.1295
 38.9656  8062.47  88.5019
 39.0076  8061.82  87.9001
 39.0496  7998.38  88.1013
 39.0916  8174.22  88.6967
 39.1336  8027.4  88.3175
 39.1756  7930.75  87.8513
 39.2176  8062.25  89.1119
 39.2596  7998.45  88.6803
 39.3016  8073.87  88.6675
 39.3436  7891.82  88.0854
 39.3856  7996.94  88.1167
 39.4276  8084.34  89.1009
 39.4696  8134.04  88.9889
 39.5116  8024.79  88.9041
 39.5536  8254.81  90.6047
 39.5956  8166.67  89.2058
 39.6376  8049.82  88.4008
 39.6796  8085.74  88.5049
 39.7216  8117.51  88.7756
 39.7636  8018.12  88.812
 39.8056  7994.45  88.4561
 39.8476  8025.77  88.8818
 39.8896  7941.16  88.0397
 39.9316  8111.9  89.2427
 39.9736  8099.94  88.7379
 40.0156  8057.38  88.325
 40.0576  8083.25  88.834
 40.0996  8132.99  88.2829
 40.1416  8066.92  88.7202
 40.1836  8089.27  88.7312
 40.2256  8115.43  88.9214
 40.2676  7984.33  88.3031
 40.3096  8120.45  88.9801
 40.3516  8120.12  89.1853
 40.3936  8134.67  88.7241
 40.4356  8062.15  88.5165
 40.4776  8173.61  89.5498
 40.5196  8118.89  89.3792
 40.5616  8158.07  89.2325
 40.6036  8012.03  88.6843
 40.6456  8189.72  89.2633
 40.6876  8142.21  88.992
 40.7296  8193.54  89.4119
 40.7716  8256.22  89.8868
 40.8136  8034.49  88.6126
 40.8556  8159.18  89.4332
 40.8976  8134.57  89.2186
 40.9396  8092.92  89.3414
 40.9816  8193.97  89.173
 41.0236  8158.25  88.7528
 41.0656  8160.33  89.3118
 41.1076  8294.38  89.8061
 41.1496  8263.95  89.5503
 41.1916  8106.96  89.0246
 41.2336  8164.7  89.3332
 41.2756  8042.92  88.2631
 41.3176  8073.48  89.0525
 41.3596  8146.49  89.1784
 41.4016  8133.24  89.369
 41.4436  8093.19  88.9335
 41.4856  8183.95  89.5898
 41.5276  8103.9  89.1758
 41.5696  8090.68  88.7269
 41.6116  8033.32  88.8145
 41.6536  8024.52  88.6243
 41.6956  8077.97  88.9735
 41.7376  8076.44  88.9932
 41.7796  8076.56  88.8758
 41.8216  8007.32  88.7277
 41.8636  8159.18  89.5013
 41.9056  7940.13  88.0773
 41.9476  7987.57  88.5799
 41.9896  8120.86  88.9869
 42.0316  8150.18  89.2176
 42.0736  8114.5  89.144
 42.1156  7851.66  87.522
 42.1576  8079.3  88.8795
 42.1996  8050.11  88.8646
 42.2416  8159.91  89.042
 42.2836  7884.1  87.6416
 42.3256  8028.72  88.5574
 42.3676  8045.71  88.4541
 42.4096  8059.81  88.487
 42.4516  7972.36  88.1
 42.4936  7914.12  87.848
 42.5356  7998.42  88.4414
 42.5776  8058.37  88.7185
 42.6196  8005.78  88.3975
 42.6616  7854.45  87.8159
 42.7036  8041.29  88.2281
 42.7456  7919.31  87.917
 42.7876  8053  88.7526
 42.8296  7994.93  88.3299
 42.8716  7951.16  88.1792
 42.9136  7941.51  87.9206
 42.9556  7915.36  87.909
 42.9976  8056.9  88.6505
 43.0396  8029.14  88.2287
 43.0816  7902.04  87.9043
 43.1236  7916.24  88.0454
 43.1656  8032.09  88.5165
 43.2076  7954.96  88.1971
 43.2496  7912.75  87.7629
 43.2916  7894.02  88.0389
 43.3336  7884.75  87.818
 43.3756  7921.16  87.7763
 43.4176  7818.34  87.2838
 43.4596  7885.59  87.514
 43.5016  7889.12  87.9444
 43.5436  7905.77  87.9391
 43.5856  7904.21  87.9508
 43.6276  7848.76  87.5407
 43.6696  7773.19  87.3727
 43.7116  7872.55  87.4257
 43.7536  7867.32  87.8928
 43.7956  7654.64  87.9114
 43.8376  7789.89  87.1837
 43.8796  7675.14  86.6196
 43.9216  7813.36  87.3127
 43.9636  7939.23  88.122
 44.0056  7894.01  88.1035
 44.0476  7793.85  87.1729
 44.0896  7617.97  86.5275
 44.1316  7717.48  86.6112
 44.1736  7761.39  86.9838
 44.2156  7829.09  87.2057
 44.2576  7772.21  87.2265
 44.2996  7779.73  87.2339
 44.3416  7758.46  86.8756
 44.3836  7626.15  86.4591
 44.4256  7524.47  85.5259
 44.4676  7513.11  85.6185
 44.5096  7692.21  86.7783
 44.5516  7702.08  86.7942
 44.5936  7622.5  86.3007
 44.6356  7603.89  85.9336
 44.6776  7726.72  86.949
 44.7196  7648.34  86.7757
 44.7616  7652.8  88.1799
 44.8036  7616.99  86.3842
 44.8456  7730.47  87.235
 44.8876  7586.55  86.2708
 44.9296  7637.87  86.0136
 44.9716  7612.22  86.3035
 45.0136  7619.29  86.2749
 45.0556  7726.84  86.854
 45.0976  7556.66  86.0599
 45.1396  7454.72  85.2314
 45.1816  7677.28  86.2603
 45.2236  7592.12  85.8512
 45.2656  7419.53  85.3632
 45.3076  7523.08  85.7454
 45.3496  7446.02  85.6114
 45.3916  7481.04  86.0798
 45.4336  7571.46  86.442
 45.4756  7426.95  85.4688
 45.5176  7413.63  85.0142
 45.5596  7587.91  86.1228
 45.6016  7461.35  85.8242
 45.6436  7393.32  84.6139
 45.6856  7385.02  85.2105
 45.7276  7529.25  87.8838
 45.7696  7490.46  86.8185
 45.8116  7497.71  86.3004
 45.8536  7433.27  85.8259
 45.8956  7459.94  85.3273
 45.9376  7453.25  84.7527
 45.9796  7606.5  86.3129
 46.0216  7382.09  85.3721
 46.0636  7571.88  85.595
 46.1056  7461.72  84.9609
 46.1476  7398.92  85.1957
 46.1896  7565.75  86.3004
 46.2316  7551.47  86.0875
 46.2736  7337.04  85.2159
 46.3156  7375.02  85.0315
 46.3576  7460  85.7238
 46.3996  7374.07  85.3876
 46.4416  7554.85  85.9985
 46.4836  7317.26  84.9866
 46.5256  7438.69  85.6334
 46.5676  7387.85  85.4538
 46.6096  7408.03  85.5009
 46.6516  7504.68  85.0966
 46.6936  7390.54  84.9376
 46.7356  7451.92  85.3991
 46.7776  7417.56  86.0398
 46.8196  7337.61  85.1638
 46.8616  7255.2  84.6305
 46.9036  7203.34  83.9925
 46.9456  7215.05  83.6998
 46.9876  7409.51  84.9096
 47.0296  7315.98  85.0558
 47.0716  7157.58  83.9616
 47.1136  7289.1  84.4077
 47.1556  7303.02  84.3531
 47.1976  7318.43  84.5146
 47.2396  7134.2  83.8451
 47.2816  7328.8  84.6781
 47.3236  7211.97  84.3727
 47.3656  7292.02  84.7629
 47.4076  7166.02  83.8309
 47.4496  7226.22  84.2803
 47.4916  7198.52  84.314
 47.5336  7275.44  84.5785
 47.5756  7201.78  84.2239
 47.6176  7159.87  83.9068
 47.6596  7216.15  83.9641
 47.7016  7364.7  84.6414
 47.7436  7238.43  84.2454
 47.7856  7284.87  84.5483
 47.8276  7199.87  84.0902
 47.8696  7224.72  84.3216
 47.9116  7240.09  84.1255
 47.9536  7164.46  83.6286
 47.9956  7161.26  84.32
 48.0376  7126.26  83.8887
 48.0796  7198.4  84.4438
 48.1216  7338.72  85.0765
 48.1636  7446.47  85.2695
 48.2056  7162.87  83.8896
 48.2476  7268.71  84.815
 48.2896  7141.62  83.9817
 48.3316  7098.72  83.6676
 48.3736  7084.52  83.614
 48.4156  7060.75  83.3243
 48.4576  7112.76  83.9248
 48.4996  7233.02  84.0822
 48.5416  7220.24  84.3397
 48.5836  7136.24  83.517
 48.6256  7175.42  83.9636
 48.6676  7194.21  84.5855
 48.7096  7155.21  83.6145
 48.7516  7175.95  83.8904
 48.7936  6971.1  82.7459
 48.8356  7000.24  82.9693
 48.8776  7131.81  84.3198
 48.9196  7254.18  84.3967
 48.9616  7013.77  83.3609
 49.0036  7059.04  83.989
 49.0456  7028.04  83.7836
 49.0876  7106.75  83.7816
 49.1296  6926.6  82.8715
 49.1716  6901.88  82.5964
 49.2136  6989.85  83.0584
 49.2556  7096.93  83.7152
 49.2976  7033.19  83.4133
 49.3396  6907.22  82.7189
 49.3816  7173.32  83.7202
 49.4236  7051.5  83.4317
 49.4656  6973.53  82.984
 49.5076  7034.67  83.0994
 49.5496  7014.25  82.9156
 49.5916  7003.37  82.8904
 49.6336  6986.26  82.9995
 49.6756  7035.93  83.5301
 49.7176  6938.96  82.8877
 49.7596  6979.56  83.0724
 49.8016  7057.09  83.2728
 49.8436  6959.63  82.9974
 49.8856  6907.34  82.6829
 49.9276  6933.76  82.9446
 49.9696  6971.65  83.1515
 50.0116  6997.75  83.4513
 50.0536  6903.64  82.8278
 50.0956  6908.86  82.9293
 50.1376  6891.67  82.5201
 50.1796  6957.84  83.1892
 50.2216  6883.38  82.7316
 50.2636  6881.18  82.344
 50.3056  6871.47  82.4603
 50.3476  6917.66  82.7528
 50.3896  6840.84  82.2709
 50.4316  6902.58  82.4761
 50.4736  6871.64  82.5103
 50.5156  6912.34  82.7391
 50.5576  6935.14  82.6403
 50.5996  6916.65  82.8107
 50.6416  6896.91  82.6197
 50.6836  6913.87  82.7833
 50.7256  6913.71  82.7105
 50.7676  6924.5  83.0865
 50.8096  6912.41  82.5567
 50.8516  6695.37  81.6599
 50.8936  6778.92  81.9434
 50.9356  6891.58  82.733
 50.9776  6874.98  82.7816
 51.0196  6663.84  81.6205
 51.0616  6814.19  81.8692
 51.1036  6901.49  82.7465
 51.1456  6822.17  82.1855
 51.1876  6816.18  81.4911
 51.2296  6710.9  81.4892
 51.2716  6792.09  81.6822
 51.3136  6664.07  81.3582
 51.3556  6679.82  81.0866
 51.3976  6564.88  80.5381
 51.4396  6637.04  81.2849
 51.4816  6687.27  81.4442
 51.5236  6790.8  82.1597
 51.5656  6662.55  80.9772
 51.6076  6678.74  81.1649
 51.6496  6695.81  81.4568
 51.6916  6665.78  81.6247
 51.7336  6767.3  82.3366
 51.7756  6673.16  81.4637
 51.8176  6764.48  82.1152
 51.8596  6677.64  81.6138
 51.9016  6839.63  82.1982
 51.9436  6738.27  83.0579
 51.9856  6574.62  82.4693
 52.0276  6705.45  81.7924
 52.0696  6568.62  81.0239
 52.1116  6679.78  81.8189
 52.1536  6661.57  81.6003
 52.1956  6737.04  81.5183
 52.2376  6760.42  81.8376
 52.2796  6674.42  81.1186
 52.3216  6483.29  80.6393
 52.3636  6735.42  81.7638
 52.4056  6649.08  81.0978
 52.4476  6529.23  80.7267
 52.4896  6573  81.0483
 52.5316  6624.88  81.4162
 52.5736  6551.89  80.6843
 52.6156  6618.74  81.4841
 52.6576  6599.48  80.8046
 52.6996  6468.98  80.9672
 52.7416  6522.31  81.1525
 52.7836  6656.56  81.8656
 52.8256  6659.65  81.1075
 52.8676  6514.02  80.7953
 52.9096  6525.56  80.9466
 52.9516  6581.77  81.6723
 52.9936  6595.12  82.1407
 53.0356  6510.06  80.6149
 53.0776  6513.09  80.8944
 53.1196  6366.22  80.1032
 53.1616  6459.08  80.7325
 53.2036  6388.43  80.2478
 53.2456  6341.92  80.0542
 53.2876  6435.93  80.3504
 53.3296  6550.93  81.3926
 53.3716  6447.37  80.4966
 53.4136  6480.96  80.8489
 53.4556  6484.21  80.9031
 53.4976  6399.08  80.2197
 53.5396  6336.6  80.2143
 53.5816  6392.1  80.2039
 53.6236  6405  80.6204
 53.6656  6480.12  80.7229
 53.7076  6448.87  80.4867
 53.7496  6436.94  80.5361
 53.7916  6502.31  81.066
 53.8336  6301.08  79.6989
 53.8756  6368.1  80.6767
 53.9176  6493.61  80.8091
 53.9596  6473.34  81.4506
 54.0016  6341.58  79.9499
 54.0436  6434.81  80.7481
 54.0856  6413.83  80.0441
 54.1276  6423.34  80.303
 54.1696  6403.26  80.3523
 54.2116  6376.02  79.9385
 54.2536  6411.12  79.9764
 54.2956  6407.37  79.9929
 54.3376  6443.86  80.7104
 54.3796  6359.98  80.0848
 54.4216  6503.99  81.0334
 54.4636  6420.12  80.4663
 54.5056  6467.01  80.5757
 54.5476  6388.02  80.4181
 54.5896  6413.7  80.4149
 54.6316  6497.39  80.7939
 54.6736  6362.56  80.0267
 54.7156  6288.73  79.5851
 54.7576  6335.37  79.8704
 54.7996  6428.24  80.5922
 54.8416  6289.78  79.7738
 54.8836  6286.69  79.8631
 54.9256  6344.8  79.9806
 54.9676  6437.91  80.4192
 55.0096  6362.93  80.0184
 55.0516  6430.33  80.6681
 55.0936  6336.68  79.7221
 55.1356  6335.98  79.7544
 55.1776  6322.7  79.9428
 55.2196  6345.99  79.8702
 55.2616  6336.93  80.0247
 55.3036  6350.12  80.2739
 55.3456  6380.75  80.6083
 55.3876  6344.71  80.1293
 55.4296  6356.88  80.1809
 55.4716  6405.14  80.5205
 55.5136  6370.3  80.0569
 55.5556  6331.85  79.8866
 55.5976  6362.45  80.1369
 55.6396  6360.53  80.0759
 55.6816  6312.33  79.6445
 55.7236  6338.88  79.9542
 55.7656  6337.38  79.6018
 55.8076  6379.77  79.844
 55.8496  6273.94  79.5045
 55.8916  6253.97  79.5817
 55.9336  6201.88  79.0657
 55.9756  6300.69  79.5806
 56.0176  6277.05  79.5898
 56.0596  6240.89  79.3461
 56.1016  6323.54  79.8764
 56.1436  6248  79.6539
 56.1856  6290.38  79.6706
 56.2276  6281.98  79.6787
 56.2696  6270.55  79.5773
 56.3116  6288.68  80.0961
 56.3536  6350.53  80.1431
 56.3956  6308.56  79.8685
 56.4376  6212.44  79.2906
 56.4796  6270.39  79.4553
 56.5216  6265.28  79.8053
 56.5636  6278.18  79.4726
 56.6056  6303.52  79.871
 56.6476  6343.13  79.7376
 56.6896  6231.73  79.4908
 56.7316  6234.53  79.4135
 56.7736  6337.24  80.0639
 56.8156  6267.05  79.6175
 56.8576  6234.46  79.3486
 56.8996  6360.2  80.0872
 56.9416  6270.32  79.7081
 56.9836  6238.77  79.1303
 57.0256  6204.42  79.2339
 57.0676  6204.54  79.3555
 57.1096  6262.5  79.5155
 57.1516  6332.79  80.0237
 57.1936  6245.85  79.2173
 57.2356  6212.53  79.3275
 57.2776  6323.89  79.9913
 57.3196  6321.75  80.35
 57.3616  6253.09  79.4031
 57.4036  6256.18  79.479
 57.4456  6249.58  79.413
 57.4876  6305.51  79.6193
 57.5296  6189.63  79.2266
 57.5716  6157.72  79.016
 57.6136  6313.43  79.8227
 57.6556  6272.84  79.6977
 57.6976  6266.82  79.4838
 57.7396  6235.18  79.6597
 57.7816  6080.92  79.0251
 57.8236  6244.24  79.8779
 57.8656  6209.06  79.3064
 57.9076  6263.44  79.6808
 57.9496  6202.08  79.6433
 57.9916  6188.9  79.0218
 58.0336  6185.11  79.323
 58.0756  6211.26  79.1279
 58.1176  6281.26  79.5625
 58.1596  6209.21  79.6743
 58.2016  6314.66  79.5756
 58.2436  6235.45  79.4754
 58.2856  6238.65  79.4134
 58.3276  6236.22  79.7755
 58.3696  6233.18  79.5024
 58.4116  6312.22  79.8644
 58.4536  6177.94  78.8945
 58.4956  6291.84  79.8069
 58.5376  6237.08  79.0251
 58.5796  6214.2  79.3052
 58.6216  6363.47  80.0629
 58.6636  6253.06  79.5863
 58.7056  6234.4  79.3218
 58.7476  6136.17  79.142
 58.7896  6227.4  79.3677
 58.8316  6233.89  79.3978
 58.8736  6223.76  79.343
 58.9156  6151.69  78.935
 58.9576  6280.97  79.959
 58.9996  6410.99  80.1255
 59.0416  6390.31  80.3741
 59.0836  6310.99  79.7961
 59.1256  6303.94  80.1546
 59.1676  6110.35  79.5358
 59.2096  6180.8  79.2883
 59.2516  6507.62  80.9228
 59.2936  6295.61  79.9286
 59.3356  6152.3  78.8903
 59.3776  6120.87  78.8586
 59.4196  6285.44  79.847
 59.4616  6182.54  79.0485
 59.5036  6147.81  78.8617
 59.5456  6412.91  80.2282
 59.5876  6261.64  79.4709
 59.6296  6125.92  78.6746
 59.6716  6149.43  78.8839
 59.7136  6397.29  80.4459
 59.7556  6256.87  79.697
 59.7976  6086.19  78.3436
 59.8396  6255.75  79.3198
 59.8816  6221.92  79.6589
 59.9236  6190.89  79.099
 59.9656  6200.86  79.4268
 60.0076  6146.01  78.4265
 60.0496  6191.77  79.2279
 60.0916  6250.43  79.0105
 60.1336  6243.27  80.091
 60.1756  6274.05  81.4951
 60.1996  0.0000000E+00  0.0000000E+00