File: docs/examples/opeando_xrd/IS17_D/Data/IS17_D/17_Da_f00001.xye
# /beamlines/bl04/projects/cycle2025-II/20250340211-lsimonelli/DATA/IS17_D/17_Da_f00001.xye : mythproc.py merge -s 0.006 -l 0.5 -f /beamlines/bl04/inhouse/ff/FlatField/ff_20Nov2024rod8mm60s_17keV.raw -b True -c true -o xye /beamlines/bl04/projects/cycle2025-II/20250340211-lsimonelli/DATA/IS17_D/17_Da_00001.dat
# IsMon = [6749354, 6746660, 6746966]  IsPos = [-1.5000, -2.4886, -3.4988]
# Wave = 0.4962  CalPath /beamlines/bl04/projects/cycle2025-II/20250340211-lsimonelli/DATA/Align/Si_Pos1_25keV_f00001.cal
# Date = 2025-09-23_17:48:41 Dt = 4.8000  Bin = 0.0060  <imon> = 6747660 +/- 1204 (Min/Max) 6746660 / 6749354
# icurr 250.5445  mocoIn 1.7091E-05  mocoOut 0.8020  i15 7.03743e+06  imon 6.74766e+06  i7 4.3333  iEMpd_timer 4.8000  iEMpd_1 3.5593E-08  iEMpd_2 7.8325E-08  iEMpd_3 1.7843E-08  iEMpd_4 4.9026E-08  iEMhp_timer 4.8000  iEMhp_1 4.8960E-06  iEMhp_2 -2.4094E-08  iEMhp_3 -2.3885E-08  iEMhp_4 -2.1364E-08
#      9776
 1.5856  40519.9  206.673
 1.6276  47063  218.913
 1.6696  54092  233.864
 1.7116  63414.6  253.712
 1.7536  72490.2  270.104
 1.7956  77291.4  279.603
 1.8376  73430  272.961
 1.8796  61799.9  248.577
 1.9216  49965.7  224.399
 1.9636  42235.3  205.985
 2.0056  37837.1  193.719
 2.0476  35156.4  188.778
 2.0896  33601.9  183.475
 2.1316  32763.9  180.302
 2.1736  30999.8  176.772
 2.2156  31718.1  177.373
 2.2576  30254.2  173.851
 2.2996  29438.5  172.122
 2.3416  29587.7  171.178
 2.3836  29047.7  169.716
 2.4256  28162.4  167.654
 2.4676  27453  165.295
 2.5096  27664.9  165.985
 2.5516  26752.4  167.03
 2.5936  26586.2  163.142
 2.6356  26285.8  162.902
 2.6776  26197.2  161.528
 2.7196  25790.7  160.779
 2.7616  25706.6  160.296
 2.8036  25340.1  159.318
 2.8456  25070.9  159.077
 2.8876  24889.6  158.355
 2.9296  24232.3  156.398
 2.9716  24331.5  156.211
 3.0136  23974  155.128
 3.0556  24142.9  156.07
 3.0976  23838.5  154.021
 3.1396  23770.1  154.509
 3.1816  23370.2  153.148
 3.2236  23482.6  153.512
 3.2656  23171.6  151.546
 3.3076  23088.9  152.709
 3.3496  23307.1  152.623
 3.3916  23548.7  152.993
 3.4336  24224.2  155.743
 3.4756  24501.1  156.553
 3.5176  25499.3  159.51
 3.5596  25330.7  161.96
 3.6016  25546.7  159.724
 3.6436  24686.2  158.108
 3.6856  24183.4  154.789
 3.7276  23316.5  153.078
 3.7696  23160.7  152.55
 3.8116  22776.2  151.373
 3.8536  22845.7  151.534
 3.8956  22585.9  150.501
 3.9376  22489.5  150.427
 3.9796  22574.2  150.225
 4.0216  22656.1  149.544
 4.0636  22677.8  151.073
 4.1056  22484.7  150.081
 4.1476  22676.1  151.024
 4.1896  23013.7  152.008
 4.2316  22981.6  151.729
 4.2736  23624.8  153.622
 4.3156  23843.1  154.565
 4.3576  24532.6  156.711
 4.3996  24790.1  157.787
 4.4416  25179.9  158.609
 4.4836  25766.3  160.601
 4.5256  26041.5  162.053
 4.5676  26174.1  162.725
 4.6096  26575.5  162.996
 4.6516  27167.4  164.147
 4.6936  27285.7  165.311
 4.7356  27426.2  165.566
 4.7776  27263.4  164.913
 4.8196  26966.9  164.64
 4.8616  26302.5  162.232
 4.9036  26043.2  161.042
 4.9456  25997.5  161.545
 4.9876  25554.1  160.07
 5.0296  25858.2  160.831
 5.0716  25829.1  161.381
 5.1136  25836.6  161.25
 5.1556  26103.2  161.556
 5.1976  26498.5  162.756
 5.2396  26684.7  163.035
 5.2816  26509.8  162.947
 5.3236  26630.7  163.035
 5.3656  26296.2  162.921
 5.4076  25883.7  161.785
 5.4496  26077.1  161.888
 5.4916  26114.9  161.758
 5.5336  25911  161.218
 5.5756  25734  160.6
 5.6176  26222.1  161.567
 5.6596  26219.4  162.373
 5.7016  26231.7  161.832
 5.7436  26520.1  162.767
 5.7856  26349.4  162.52
 5.8276  26802.7  163.647
 5.8696  26689.9  163.345
 5.9116  26630.6  163.878
 5.9536  27125.7  165.141
 5.9956  27293.7  165.034
 6.0376  27282.3  165.625
 6.0796  27724.3  166.794
 6.1216  27679.8  166.867
 6.1636  27784.3  166.253
 6.2056  27852.7  167.12
 6.2476  27995.7  167.231
 6.2896  28423.6  168.374
 6.3316  28321.6  168.236
 6.3736  28391  168.346
 6.4156  28401.8  168.332
 6.4576  28772.1  168.977
 6.4996  28921.3  169.897
 6.5416  28754.3  169.536
 6.5836  28716.4  169.611
 6.6256  28967  169.957
 6.6676  29520.8  171.145
 6.7096  29267.4  171.246
 6.7516  29824.8  172.532
 6.7936  30002.4  172.605
 6.8356  30234.7  173.221
 6.8776  30453.1  174.651
 6.9196  30454.2  175.043
 6.9616  31026.1  176.097
 7.0036  31316.8  176.602
 7.0456  31563.7  176.594
 7.0876  31359.7  177.615
 7.1296  31216.8  176.443
 7.1716  31113.6  176.072
 7.2136  31221.7  175.782
 7.2556  31163.9  175.78
 7.2976  30997.2  175.801
 7.3396  31057  176.433
 7.3816  31178.4  176.736
 7.4236  31243.8  176.218
 7.4656  31504.9  176.441
 7.5076  31840.8  177.516
 7.5496  31690.8  177.635
 7.5916  31657.9  177.572
 7.6336  31940.8  178.259
 7.6756  32186.6  178.797
 7.7176  32464.8  179.865
 7.7596  32434.7  181.027
 7.8016  32702.1  183.918
 7.8436  33168.3  181.956
 7.8856  33628.3  182.829
 7.9276  34236.9  184.866
 7.9696  34293.7  185.329
 8.0116  34905.8  185.537
 8.0536  35400.7  187.091
 8.0956  35024.9  187.261
 8.1376  35794.6  188.781
 8.1796  35893  189.579
 8.2216  36598.2  190.178
 8.2636  36564.1  190.335
 8.3056  36821.6  191.772
 8.3476  37442.1  192.708
 8.3896  36757.2  191.021
 8.4316  37023.6  191.874
 8.4736  37437.2  192.403
 8.5156  37262.4  192.238
 8.5576  36999.7  192.532
 8.5996  36926.1  191.214
 8.6416  36613.7  191.658
 8.6836  36288  190.629
 8.7256  36901.6  191.477
 8.7676  36096.2  192.428
 8.8096  35814.4  189.026
 8.8516  35832.7  188.732
 8.8936  35545.2  187.811
 8.9356  35424.3  187.84
 8.9776  35858.1  189.085
 9.0196  35562.7  187.975
 9.0616  35663.8  187.733
 9.1036  35049.6  187.278
 9.1456  35113.7  186.818
 9.1876  35175  186.926
 9.2296  35157.2  186.294
 9.2716  34299.5  184.068
 9.3136  34733.2  185.204
 9.3556  34800.1  185.368
 9.3976  33345  181.963
 9.4396  33626.3  182.626
 9.4816  33083.6  181.004
 9.5236  33431.1  181.872
 9.5656  33066.4  181.196
 9.6076  32942.9  181.387
 9.6496  32909  181.215
 9.6916  32723  180.68
 9.7336  32894.6  180.929
 9.7756  32756.4  181.745
 9.8176  32199.5  179.741
 9.8596  31926.2  177.452
 9.9016  31481.4  176.203
 9.9436  31411  175.764
 9.9856  31155.6  175.417
 10.0276  30424.3  174.432
 10.0696  30900  174.851
 10.1116  29592.7  171.36
 10.1536  29406.6  170.503
 10.1956  29663.4  171.34
 10.2376  28855.3  168.5
 10.2796  29169.2  169.548
 10.3216  28951.1  169.04
 10.3636  28643  168.305
 10.4056  28202.7  167.4
 10.4476  28307.5  167.337
 10.4896  28487.2  167.331
 10.5316  27638.3  165.182
 10.5736  27378.4  165.125
 10.6156  27180.3  164.292
 10.6576  27077.3  162.599
 10.6996  27129.7  163.547
 10.7416  26819.2  162.695
 10.7836  26824.8  163.399
 10.8256  26448.8  162.659
 10.8676  26368.2  162.287
 10.9096  26181.2  161.425
 10.9516  25915.1  159.563
 10.9936  26052.6  160.174
 11.0356  25749.6  159.867
 11.0776  25631.7  158.831
 11.1196  25478.1  159.076
 11.1616  25103.1  157.609
 11.2036  25235.2  157.877
 11.2456  25030.2  158.377
 11.2876  24893.9  157.221
 11.3296  24850.5  156.989
 11.3716  24915.9  156.937
 11.4136  24879.7  157.66
 11.4556  24921.8  157.459
 11.4976  25014.7  156.759
 11.5396  25290.4  157.787
 11.5816  25844.8  159.942
 11.6236  26437.6  162.218
 11.6656  26152.1  160.277
 11.7076  25272.5  158.396
 11.7496  24812.2  160.824
 11.7916  24698.6  155.859
 11.8336  24396.1  155.807
 11.8756  24042.5  154.188
 11.9176  24231  154.446
 11.9596  23705.5  152.946
 12.0016  23907.1  154.383
 12.0436  23900.3  153.784
 12.0856  23538.1  153.137
 12.1276  23660.1  153.459
 12.1696  23610.7  152.443
 12.2116  23830.9  153.153
 12.2536  23080.8  151.493
 12.2956  23372  151.829
 12.3376  23077.8  151.062
 12.3796  23536.4  153
 12.4216  23406.8  151.83
 12.4636  23200.8  152.05
 12.5056  23507.4  152.227
 12.5476  23478  151.781
 12.5896  23390.8  152.122
 12.6316  23085.1  151.268
 12.6736  23235.3  152.243
 12.7156  22938.5  151.13
 12.7576  23241.3  152.373
 12.7996  23456.6  151.735
 12.8416  23086.8  151.565
 12.8836  23590.4  153.047
 12.9256  23767.8  152.639
 12.9676  23826.6  153.257
 13.0096  23654.2  153.77
 13.0516  23956.8  153.81
 13.0936  24126.9  154.469
 13.1356  24326.4  154.379
 13.1776  23895.8  153.81
 13.2196  24167.6  154.514
 13.2616  24189.6  154.897
 13.3036  23940.7  154.223
 13.3456  24093.3  154.708
 13.3876  24026.2  153.987
 13.4296  24071.2  154.282
 13.4716  24058  153.853
 13.5136  24114  154.193
 13.5556  23957.1  154.289
 13.5976  24059.9  154.756
 13.6396  24315.3  154.966
 13.6816  23646.6  153.157
 13.7236  24562.5  155.883
 13.7656  23793.9  153.944
 13.8076  24052.4  153.582
 13.8496  23841  153.68
 13.8916  23731.7  154.137
 13.9336  23667  153.166
 13.9756  23483.3  151.929
 14.0176  23394.6  152.367
 14.0596  23522.4  152.681
 14.1016  23262.4  152.238
 14.1436  23101.3  150.846
 14.1856  22597  149.479
 14.2276  22502.6  149.64
 14.2696  22655  150
 14.3116  22452.4  149.228
 14.3536  22018  147.953
 14.3956  22006.1  147.61
 14.4376  22144.7  147.894
 14.4796  21940.2  147.197
 14.5216  21575.2  146.748
 14.5636  21506.3  146.091
 14.6056  21682  146.14
 14.6476  21538.3  145.028
 14.6896  21289.8  144.717
 14.7316  21187.3  145.388
 14.7736  20944.4  143.748
 14.8156  20726.4  142.995
 14.8576  20644.1  142.568
 14.8996  20245.7  142.377
 14.9416  19906.5  141.181
 14.9836  19999.3  141.462
 15.0256  19592  138.976
 15.0676  19763.8  139.896
 15.1096  19607.4  139.082
 15.1516  19271.1  138.431
 15.1936  19078.7  137.176
 15.2356  19162.7  137.756
 15.2776  18800.2  136.035
 15.3196  18437.3  135.702
 15.3616  18625.3  136.15
 15.4036  18315.7  134.877
 15.4456  18769.1  136.188
 15.4876  18275.7  134.072
 15.5296  18192.8  134.047
 15.5716  18104.7  133.326
 15.6136  17987.2  133.213
 15.6556  17802.3  131.785
 15.6976  17928.4  132.319
 15.7396  17740.3  132.229
 15.7816  17533.3  130.968
 15.8236  17395.8  131.146
 15.8656  17413.6  131.008
 15.9076  17141.1  129.81
 15.9496  17089.5  132.341
 15.9916  16955  132.754
 16.0336  16761.7  128.443
 16.0756  16822.1  128.981
 16.1176  16900.9  129.204
 16.1596  16460.8  128.815
 16.2016  16608.2  128.16
 16.2436  16199.5  126.939
 16.2856  16364  127.14
 16.3276  15968.7  126
 16.3696  16340.7  127.281
 16.4116  15890.3  125.965
 16.4536  16054.6  126.406
 16.4956  16014  125.983
 16.5376  15869.4  125.598
 16.5796  15838.1  124.843
 16.6216  15942.4  125.559
 16.6636  15779.9  125.071
 16.7056  15909.5  125.449
 16.7476  15869.1  124.821
 16.7896  15984.2  126.022
 16.8316  15639.7  124.612
 16.8736  15789.2  125.465
 16.9156  15967.4  126.501
 16.9576  15742  126.403
 16.9996  15732.8  126.85
 17.0416  15643.2  125.06
 17.0836  15810.2  125.29
 17.1256  15480.3  123.984
 17.1676  15660.5  124.702
 17.2096  15471.7  123.826
 17.2516  15381.7  123.539
 17.2936  15327.7  123.36
 17.3356  15236.7  122.885
 17.3776  15140.1  122.791
 17.4196  15306.1  123.161
 17.4616  14840.7  121.192
 17.5036  14847.2  121.582
 17.5456  14489.5  120.73
 17.5876  14456.2  119.66
 17.6296  14568.3  119.927
 17.6716  14556.7  120.454
 17.7136  14170.6  118.985
 17.7556  14134.3  119.118
 17.7976  14125.2  118.706
 17.8396  14100.5  118.24
 17.8816  14186.3  119.131
 17.9236  13919  117.819
 17.9656  14045.6  119.042
 18.0076  14134.8  118.845
 18.0496  14093.4  117.829
 18.0916  14001.7  117.965
 18.1336  14060.7  118.311
 18.1756  14021.3  117.619
 18.2176  13832.5  117.115
 18.2596  13846.9  116.922
 18.3016  13944.9  117.582
 18.3436  13990.4  118.001
 18.3856  13631.8  116.379
 18.4276  13811.1  116.824
 18.4696  13803.8  116.894
 18.5116  13803.5  117.175
 18.5536  13913.9  117.976
 18.5956  13665.8  116.495
 18.6376  13594.8  116.589
 18.6796  13573.8  115.841
 18.7216  13766.8  117.213
 18.7636  13502.4  115.991
 18.8056  13590.9  116.321
 18.8476  13500.6  116.546
 18.8896  13528.2  116.009
 18.9316  13564.7  116.001
 18.9736  13518.7  115.665
 19.0156  13446.5  115.747
 19.0576  13453.8  114.671
 19.0996  13712.9  116.476
 19.1416  13356.2  115.324
 19.1836  13312.4  114.755
 19.2256  13205.9  114.498
 19.2676  13371  115.308
 19.3096  13509  116.141
 19.3516  13331.1  115.155
 19.3936  13282.1  115.025
 19.4356  13402.8  115.407
 19.4776  13393.3  115.47
 19.5196  13348.1  115.13
 19.5616  13276.9  115.07
 19.6036  13453.3  115.42
 19.6456  13293.3  114.767
 19.6876  13432.2  115.027
 19.7296  13356.3  115.137
 19.7716  13511.4  115.82
 19.8136  13457.8  115.934
 19.8556  13566.1  115.897
 19.8976  13485.7  115.616
 19.9396  13566.3  115.549
 19.9816  13670.3  116.228
 20.0236  13685.6  116.501
 20.0656  14150.5  118.467
 20.1076  13918.2  117.94
 20.1496  14282.1  119.484
 20.1916  14481.1  119.773
 20.2336  14311.4  119.049
 20.2756  14064.1  118.447
 20.3176  13697.1  116.641
 20.3596  13627.3  116.323
 20.4016  13601.3  116.014
 20.4436  13549.6  116.361
 20.4856  13221.9  114.723
 20.5276  13145.5  114.85
 20.5696  13112.7  114.265
 20.6116  13113.3  114.445
 20.6536  13039.8  113.695
 20.6956  13090.3  113.975
 20.7376  12993  113.788
 20.7796  12830.5  112.76
 20.8216  12942.7  112.966
 20.8636  12780.7  112.616
 20.9056  12889.7  113.05
 20.9476  12651.4  111.841
 20.9896  12873.9  112.687
 21.0316  12877.2  112.609
 21.0736  12801.9  112.782
 21.1156  12778.1  112.84
 21.1576  12721.1  112.635
 21.1996  12756.7  112.772
 21.2416  12566.7  111.758
 21.2836  12746.7  112.522
 21.3256  12457.1  111.318
 21.3676  12700.6  111.961
 21.4096  12683.8  112.252
 21.4516  12536.5  111.421
 21.4936  12356.9  110.66
 21.5356  12597.4  111.887
 21.5776  12547.8  111.503
 21.6196  12474.1  111.209
 21.6616  12495.3  111.388
 21.7036  12424.9  110.858
 21.7456  12441.9  111.005
 21.7876  12364.8  110.409
 21.8296  12506.8  110.909
 21.8716  12386.1  110.6
 21.9136  12580.3  111.664
 21.9556  12297.9  110.082
 21.9976  12221.3  109.745
 22.0396  12333.9  110.503
 22.0816  12375.1  111.227
 22.1236  12528.3  111.37
 22.1656  12251.2  110.302
 22.2076  12441.5  110.594
 22.2496  12359.4  110.258
 22.2916  12438.9  110.49
 22.3336  12543.4  111.658
 22.3756  12243.3  110.061
 22.4176  12312.1  110.225
 22.4596  12163.6  110.14
 22.5016  12353.5  110.486
 22.5436  12386.3  110.526
 22.5856  12334.9  110.54
 22.6276  12168.5  109.928
 22.6696  12279.2  110.774
 22.7116  12402.5  110.843
 22.7536  12315.8  110.431
 22.7956  12347.8  109.713
 22.8376  12254.9  110.012
 22.8796  12166.4  109.42
 22.9216  12454.7  111.252
 22.9636  12143.4  109.02
 23.0056  12243.7  109.599
 23.0476  12359.7  110.67
 23.0896  12545  110.892
 23.1316  12372.5  110.556
 23.1736  12266.6  112.987
 23.2156  12460.1  111.26
 23.2576  12318.3  110.747
 23.2996  12355.6  110.712
 23.3416  12370.6  111.286
 23.3836  12365  110.507
 23.4256  12416.3  110.845
 23.4676  12434.4  110.628
 23.5096  12253.7  110.492
 23.5516  12272.8  109.868
 23.5936  12240.6  110.613
 23.6356  12449.8  111.219
 23.6776  12380.4  111.128
 23.7196  12145.3  109.851
 23.7616  12356.3  110.522
 23.8036  12357.6  110.558
 23.8456  12365.7  110.181
 23.8876  11985.7  108.809
 23.9296  12076.8  109.708
 23.9716  12169.1  109.334
 24.0136  12129.8  110.044
 24.0556  11924.8  108.844
 24.0976  11958.6  108.803
 24.1396  11931.8  111.31
 24.1816  11848.8  109.696
 24.2236  11817.7  108.836
 24.2656  11697.2  107.758
 24.3076  11704.1  108.033
 24.3496  11599  107.417
 24.3916  11576.8  107.395
 24.4336  11530.4  107.382
 24.4756  11551.3  107.354
 24.5176  11410.7  106.349
 24.5596  11379.7  106.521
 24.6016  11386.9  106.647
 24.6436  11350.8  105.924
 24.6856  11327.8  105.635
 24.7276  11406.7  106.32
 24.7696  11318.7  106.016
 24.8116  11253.9  105.895
 24.8536  11107.1  105.185
 24.8956  11095  104.879
 24.9376  10909.7  104.166
 24.9796  11006.4  104.747
 25.0216  10822.1  103.971
 25.0636  11079.4  104.858
 25.1056  10879.2  104.331
 25.1476  10954.6  106.618
 25.1896  11028.1  105.46
 25.2316  11097.2  105.066
 25.2736  10987.9  104.204
 25.3156  10851.5  103.624
 25.3576  10955.7  104.543
 25.3996  10832.5  103.931
 25.4416  10821.5  103.867
 25.4836  10718.9  103.795
 25.5256  10825.5  103.775
 25.5676  10968.9  104.195
 25.6096  10664.4  103.299
 25.6516  10848.7  103.715
 25.6936  10695.6  103.26
 25.7356  10713  103.476
 25.7776  10767.2  103.43
 25.8196  10550.7  102.542
 25.8616  10639.5  102.835
 25.9036  10719  102.755
 25.9456  10617.4  102.857
 25.9876  10609.2  102.737
 26.0296  10747.9  103.148
 26.0716  10593.8  102.728
 26.1136  10609.4  102.758
 26.1556  10729.1  102.725
 26.1976  10534.7  102.698
 26.2396  10549.1  102.19
 26.2816  10636.6  102.957
 26.3236  10550.3  102.703
 26.3656  10489.6  102.131
 26.4076  10823.2  103.944
 26.4496  10979.6  104.184
 26.4916  10700.5  102.86
 26.5336  10613  102.763
 26.5756  10885.9  103.937
 26.6176  10547.1  102.362
 26.6596  10416.6  102.021
 26.7016  10474.2  102.063
 26.7436  10396.5  101.813
 26.7856  10380.5  101.721
 26.8276  10335.9  101.45
 26.8696  10472.7  102.006
 26.9116  10348.7  101.337
 26.9536  10236.9  100.831
 26.9956  10359  101.469
 27.0376  10311.7  101.438
 27.0796  10276.7  101.088
 27.1216  10239.9  100.902
 27.1636  10091.5  100.333
 27.2056  10163.3  100.575
 27.2476  10130  100.411
 27.2896  10143.5  100.591
 27.3316  10114.5  100.161
 27.3736  10114.3  100.421
 27.4156  10024.6  99.8195
 27.4576  10024.1  100.047
 27.4996  9989.37  99.4653
 27.5416  9982.55  99.7509
 27.5836  9951.69  99.4162
 27.6256  10297  101.282
 27.6676  10201.2  100.845
 27.7096  9953.38  99.4771
 27.7516  9911.17  99.3704
 27.7936  9867.72  99.3545
 27.8356  9927.63  99.2926
 27.8776  9853.12  98.954
 27.9196  9749.68  98.294
 27.9616  9981.76  99.5497
 28.0036  9747.94  98.4455
 28.0456  9802.93  98.8537
 28.0876  9716.6  98.5041
 28.1296  9810.97  98.8255
 28.1716  9704.89  98.2897
 28.2136  9797.84  98.7279
 28.2556  9679.05  98.2431
 28.2976  9699.03  98.3225
 28.3396  9824.95  98.7798
 28.3816  9697.02  98.1124
 28.4236  9765.25  98.6118
 28.4656  9671.35  98.1655
 28.5076  9548.31  97.1827
 28.5496  9617.52  97.7919
 28.5916  9696.95  98.007
 28.6336  9556.45  97.6235
 28.6756  9618.94  97.1637
 28.7176  9619.73  97.706
 28.7596  9617.85  97.5988
 28.8016  9575.96  97.4177
 28.8436  9409.75  96.8067
 28.8856  9616.09  97.717
 28.9276  9653.49  98.1457
 28.9696  9553.23  97.2958
 29.0116  9544.28  97.4346
 29.0536  9400.63  96.8984
 29.0956  9436.08  96.8036
 29.1376  9390.87  96.5297
 29.1796  9446.29  96.8605
 29.2216  9462.5  96.7906
 29.2636  9406.85  96.4937
 29.3056  9489.21  96.7946
 29.3476  9481.51  97.2718
 29.3896  9537.7  97.6519
 29.4316  9562.93  97.1382
 29.4736  9510.05  96.9318
 29.5156  9531.72  96.9624
 29.5576  9200.38  95.9855
 29.5996  9493.28  96.7665
 29.6416  9302.8  95.9061
 29.6836  9600.76  97.3595
 29.7256  9397.87  96.8842
 29.7676  9420.09  96.6606
 29.8096  9451  96.7618
 29.8516  9297.9  96.3056
 29.8936  9435.59  97.1047
 29.9356  9451.69  96.9482
 29.9776  9316.46  96.404
 30.0196  9273.89  95.5736
 30.0616  9081.48  94.9479
 30.1036  9314.34  95.9861
 30.1456  9252  95.8938
 30.1876  9272.7  96.1551
 30.2296  9171.03  95.3998
 30.2716  9214.38  95.2695
 30.3136  9375.8  96.9524
 30.3556  9177.84  95.9263
 30.3976  9198.4  97.5458
 30.4396  9282.95  95.3455
 30.4816  9280.45  94.936
 30.5236  9158.69  94.328
 30.5656  9126.36  94.8018
 30.6076  9194.39  94.94
 30.6496  9187.41  94.9401
 30.6916  9148.53  94.83
 30.7336  9026.03  94.3413
 30.7756  9120.31  94.9235
 30.8176  9098.83  94.7286
 30.8596  9073.06  94.3624
 30.9016  9188.05  94.831
 30.9436  9282.15  95.5449
 30.9856  9134.89  94.8845
 31.0276  9143.6  94.5513
 31.0696  9006.31  94.3947
 31.1116  9149.65  95.1242
 31.1536  9096.32  94.7346
 31.1956  8956.67  94.0874
 31.2376  8957.4  94.1035
 31.2796  9129.48  94.5418
 31.3216  9057.29  94.1095
 31.3636  9080.55  94.9167
 31.4056  9087.67  96.2596
 31.4476  9014.47  93.7871
 31.4896  8939.65  93.8911
 31.5316  8895.15  93.1124
 31.5736  9044.19  93.6695
 31.6156  9059.51  93.7688
 31.6576  9013.68  93.6214
 31.6996  8963.16  93.0434
 31.7416  8907.07  93.6528
 31.7836  8944.69  93.016
 31.8256  8874.43  92.9945
 31.8676  8921.88  93.1643
 31.9096  8910.87  93.3252
 31.9516  8757.66  92.8052
 31.9936  8849.59  93.2544
 32.0356  8791.05  92.8741
 32.0776  8895.82  93.3161
 32.1196  8931.17  93.5001
 32.1616  8920.66  93.0031
 32.2036  8727.37  92.4848
 32.2456  8771.7  93.0966
 32.2876  8794.37  92.5586
 32.3296  8774.85  92.585
 32.3716  8722.29  92.4099
 32.4136  8797.69  93.0219
 32.4556  8813.84  92.5524
 32.4976  8849.87  92.6326
 32.5396  8805.68  92.4322
 32.5816  8685.54  91.9106
 32.6236  8779.71  92.4866
 32.6656  8901.4  93.6574
 32.7076  8774.04  92.6436
 32.7496  8770.24  92.2995
 32.7916  8763.23  92.2161
 32.8336  8783.23  92.5367
 32.8756  8883.09  92.6672
 32.9176  8640.43  91.8695
 32.9596  8674.77  92.1197
 33.0016  8733.29  92.2344
 33.0436  8673.45  92.0848
 33.0856  8756.63  92.5942
 33.1276  8562.36  91.3052
 33.1696  8695.04  91.8519
 33.2116  8710.38  91.9619
 33.2536  8702.2  92.1083
 33.2956  8616.2  91.7369
 33.3376  8627.2  91.6209
 33.3796  8698.73  92.1245
 33.4216  8711.01  91.8251
 33.4636  8734.35  92.0507
 33.5056  8562.99  91.3894
 33.5476  8557.92  91.3486
 33.5896  8623.61  91.4456
 33.6316  8557.36  91.4329
 33.6736  8467.43  91.1958
 33.7156  8544.95  91.652
 33.7576  8658.54  91.8886
 33.7996  8776.49  92.2809
 33.8416  8402.5  90.4771
 33.8836  8627.31  91.4606
 33.9256  8577.05  91.2489
 33.9676  8600.11  91.2714
 34.0096  8430.92  90.6776
 34.0516  8496.11  90.6748
 34.0936  8466.62  90.7788
 34.1356  8552.07  90.9744
 34.1776  8509.42  90.764
 34.2196  8610.71  91.4781
 34.2616  8433.41  90.7228
 34.3036  8487.67  91.2004
 34.3456  8452.33  90.7734
 34.3876  8497.16  91.0555
 34.4296  8392.5  90.1012
 34.4716  8461.81  90.7768
 34.5136  8437.94  90.6976
 34.5556  8396.84  90.7267
 34.5976  8361.73  90.3756
 34.6396  8470.38  90.6476
 34.6816  8348.82  90.1009
 34.7236  8464.89  90.5153
 34.7656  8444.66  90.5998
 34.8076  8335.05  90.3197
 34.8496  8374.87  90.4048
 34.8916  8345  90.1197
 34.9336  8452.61  90.6585
 34.9756  8752.3  92.1756
 35.0176  8442.73  91.0515
 35.0596  8266.88  89.9194
 35.1016  8386.08  90.3429
 35.1436  8435.65  90.298
 35.1856  8303.33  89.7135
 35.2276  8424.9  90.5442
 35.2696  8288.8  89.9981
 35.3116  8392.8  90.6719
 35.3536  8318.02  89.9892
 35.3956  8294.92  89.5478
 35.4376  8300.83  90.114
 35.4796  8372.4  90.5737
 35.5216  8271.2  89.9721
 35.5636  8174.36  90.1927
 35.6056  8353.49  90.2023
 35.6476  8305.64  89.8322
 35.6896  8362.25  90.3061
 35.7316  8090.87  88.7208
 35.7736  8200.79  89.5186
 35.8156  8213.68  89.5851
 35.8576  8214.57  89.8391
 35.8996  8409.7  90.9192
 35.9416  8273.41  89.6303
 35.9836  8083.54  89.0438
 36.0256  8306.32  90.1866
 36.0676  8252.81  89.4364
 36.1096  8221.25  89.6226
 36.1516  8195.32  89.3644
 36.1936  8230.43  89.4108
 36.2356  8150.91  89.6102
 36.2776  8138.3  89.1684
 36.3196  8180.84  88.9359
 36.3616  8185.96  89.0949
 36.4036  8230.69  89.3939
 36.4456  8119.8  88.9529
 36.4876  7991.2  88.2296
 36.5296  8106.97  88.904
 36.5716  8187.18  90.1185
 36.6136  8233.4  89.1612
 36.6556  8219.28  89.2832
 36.6976  8050.24  88.8535
 36.7396  8103.58  88.8799
 36.7816  8105.4  89.2624
 36.8236  8035.63  88.7998
 36.8656  8006.68  88.7128
 36.9076  8058.56  89.0027
 36.9496  8164.31  89.4463
 36.9916  8067.89  88.5477
 37.0336  8225.43  89.7266
 37.0756  8049.09  88.5519
 37.1176  7937.39  88.2006
 37.1596  8009.57  88.5978
 37.2016  7991.89  88.6846
 37.2436  8121.86  88.772
 37.2856  8045.91  88.6024
 37.3276  8152.32  88.5429
 37.3696  7946.99  88.2968
 37.4116  8049.46  88.7685
 37.4536  7869.56  87.6428
 37.4956  7918.68  87.9567
 37.5376  8052.11  90.2116
 37.5796  7813.2  88.8454
 37.6216  7789.08  87.0026
 37.6636  7874.43  87.3777
 37.7056  7894.86  87.685
 37.7476  7886.24  87.176
 37.7896  7901.45  87.7591
 37.8316  7610  86.2843
 37.8736  8038.22  88.2123
 37.9156  7789.56  86.8364
 37.9576  7857.2  87.0994
 37.9996  7734.17  86.1474
 38.0416  7590.66  86.1297
 38.0836  7917.88  87.8708
 38.1256  7929.85  87.8735
 38.1676  7793.18  87.2697
 38.2096  7835.69  87.1325
 38.2516  7950.41  87.9715
 38.2936  7735.42  86.5738
 38.3356  7892.95  87.3751
 38.3776  7802.89  87.1407
 38.4196  7903.62  87.5629
 38.4616  7690.62  86.5959
 38.5036  7970.16  88.0044
 38.5456  7750.62  87.611
 38.5876  7722.46  87.4863
 38.6296  7673.11  86.1928
 38.6716  7751  86.4264
 38.7136  7724.54  86.2251
 38.7556  7666.8  86.3955
 38.7976  7736.06  86.7238
 38.8396  7623.51  86.5364
 38.8816  7606.98  86.1983
 38.9236  7699.63  86.5648
 38.9656  7762.58  86.8289
 39.0076  7592.32  85.2936
 39.0496  7646.78  86.1159
 39.0916  7895.85  87.1582
 39.1336  7681.22  86.3841
 39.1756  7598.33  85.9838
 39.2176  7753.71  87.386
 39.2596  7718.33  87.1057
 39.3016  7611.76  86.0774
 39.3436  7574.48  86.2884
 39.3856  7668  86.277
 39.4276  7675.93  86.8012
 39.4696  7648.77  86.2783
 39.5116  7753.55  87.3769
 39.5536  7757.24  87.8289
 39.5956  7777.34  87.0489
 39.6376  7743.11  86.8674
 39.6796  7740.47  86.5954
 39.7216  7798.14  87.0124
 39.7636  7759.38  87.3646
 39.8056  7726.73  86.9497
 39.8476  7679.08  86.9411
 39.8896  7701.6  86.7026
 39.9316  7663.42  86.7406
 39.9736  7805.09  87.1098
 40.0156  7571.4  85.6244
 40.0576  7716.61  86.7935
 40.0996  7839.2  86.6723
 40.1416  7688.91  86.615
 40.1836  7894.95  87.651
 40.2256  7794.9  87.1495
 40.2676  7704.43  86.8106
 40.3096  7858.48  87.5383
 40.3516  7811.53  87.3824
 40.3936  7782.58  86.7832
 40.4356  7828.72  87.2307
 40.4776  7662.92  86.5444
 40.5196  7808.92  87.6551
 40.5616  7804.58  87.2735
 40.6036  7752.52  87.2347
 40.6456  7814.6  87.1964
 40.6876  7937.01  87.8652
 40.7296  7863.6  87.5922
 40.7716  7867.86  87.7455
 40.8136  7658.1  86.5124
 40.8556  7744.09  87.1243
 40.8976  7787.66  87.2881
 40.9396  7646.65  86.8399
 40.9816  7787.5  86.9312
 41.0236  7796.88  86.766
 41.0656  7927.36  88.0283
 41.1076  7860.08  87.4303
 41.1496  7909.85  87.6138
 41.1916  7761.64  87.1074
 41.2336  7753.71  87.049
 41.2756  7864.99  87.2773
 41.3176  7726.11  87.1067
 41.3596  7818.77  87.3672
 41.4016  7793.68  87.4875
 41.4436  7805.25  87.3359
 41.4856  7875.8  87.8945
 41.5276  7685.16  86.8414
 41.5696  7796.32  87.089
 41.6116  7736.38  87.1544
 41.6536  7755.66  87.1195
 41.6956  7795.35  87.3275
 41.7376  7731.19  87.0694
 41.7796  7699.29  86.8192
 41.8216  7783.78  87.4828
 41.8636  7776.42  87.3808
 41.9056  7648.49  86.447
 41.9476  7724.71  87.1105
 41.9896  7737.02  86.8404
 42.0316  7760.25  87.0654
 42.0736  7769.05  87.2492
 42.1156  7745.49  86.9305
 42.1576  7691.24  86.711
 42.1996  7716.41  87.0069
 42.2416  7723.31  86.6277
 42.2836  7686.04  86.5322
 42.3256  7693.13  86.6882
 42.3676  7684.93  86.4426
 42.4096  7702.99  86.5113
 42.4516  7659.28  86.3477
 42.4936  7594.78  86.0544
 42.5356  7652.71  86.52
 42.5776  7766.41  87.0894
 42.6196  7778.81  87.2228
 42.6616  7511.35  85.8746
 42.7036  7733  86.5201
 42.7456  7617.56  86.2174
 42.7876  7558.25  85.9819
 42.8296  7716.46  86.7116
 42.8716  7630.75  86.3888
 42.9136  7730.61  86.7054
 42.9556  7739.92  86.9288
 42.9976  7638.51  86.3396
 43.0396  7643.99  86.0838
 43.0816  7598.9  86.1974
 43.1236  7580.35  86.1582
 43.1656  7686.06  86.5858
 43.2076  7553.96  85.9365
 43.2496  7512.5  85.5231
 43.2916  7471.93  85.6497
 43.3336  7656.79  86.5441
 43.3756  7581.14  85.869
 43.4176  7583.48  85.9643
 43.4596  7483.88  85.2572
 43.5016  7490.79  85.6968
 43.5436  7552.32  85.952
 43.5856  7426.79  85.2501
 43.6276  7536.3  85.7811
 43.6696  7481.99  85.6107
 43.7116  7546.93  85.5996
 43.7536  7527.91  85.9734
 43.7956  7410.18  86.453
 43.8376  7461.8  85.1669
 43.8796  7442.38  85.3074
 43.9216  7513.73  85.6369
 43.9636  7536.1  85.8686
 44.0056  7514.85  85.9771
 44.0476  7471.75  85.3662
 44.0896  7393.22  85.2545
 44.1316  7459.59  85.3068
 44.1736  7360.72  84.7129
 44.2156  7449.06  85.0748
 44.2576  7383.24  85.028
 44.2996  7429.33  85.4536
 44.3416  7497.13  85.411
 44.3836  7322.34  84.7365
 44.4256  7290.91  84.2019
 44.4676  7342.03  84.6524
 44.5096  7315.99  84.641
 44.5516  7301.56  84.5189
 44.5936  7328.73  84.6363
 44.6356  7385.46  84.7011
 44.6776  7352.04  84.8244
 44.7196  7235.77  84.4534
 44.7616  7330.82  86.3083
 44.8036  7356.67  85.0996
 44.8456  7377.01  85.2196
 44.8876  7289.73  84.562
 44.9296  7258.58  83.8506
 44.9716  7353.7  84.8167
 45.0136  7286.97  84.3713
 45.0556  7285.87  84.4445
 45.0976  7174.3  83.8493
 45.1396  7203.83  83.7838
 45.1816  7296.69  84.2656
 45.2236  7278.35  84.0556
 45.2656  7254.59  84.4123
 45.3076  7395.48  85.0081
 45.3496  7169.94  84.0105
 45.3916  7112.41  83.9285
 45.4336  7144.74  83.961
 45.4756  7161.84  83.9298
 45.5176  7168.13  83.584
 45.5596  7310.3  84.5319
 45.6016  7074.3  83.5647
 45.6436  7122.29  83.0473
 45.6856  7136.71  83.7705
 45.7276  7024.58  84.4063
 45.7696  7224.64  85.2651
 45.8116  7198.68  84.5567
 45.8536  7127.07  84.0312
 45.8956  7195.99  83.7981
 45.9376  7287.44  83.7969
 45.9796  7217.11  84.068
 46.0216  7227.03  84.4547
 46.0636  7325.54  84.1819
 46.1056  7112.22  82.9389
 46.1476  7199.69  84.0324
 46.1896  7168.23  83.9975
 46.2316  7286.38  84.5592
 46.2736  7122.34  83.7354
 46.3156  7107.22  83.4646
 46.3576  7177.55  84.0771
 46.3996  7192.61  84.3238
 46.4416  7269.78  84.3324
 46.4836  7003.31  83.143
 46.5256  7143.19  83.9063
 46.5676  7165.13  84.1485
 46.6096  7202.38  84.2983
 46.6516  7094.02  82.7262
 46.6936  7264.95  84.2037
 46.7356  7161.36  83.7071
 46.7776  7144.49  84.4315
 46.8196  7076.24  83.7811
 46.8616  6851.06  82.2522
 46.9036  6989.01  82.7373
 46.9456  6968.4  82.2643
 46.9876  6968.1  82.3455
 47.0296  6963.3  82.989
 47.0716  6947.58  82.7179
 47.1136  6936.96  82.3387
 47.1556  7019.43  82.7049
 47.1976  7005.27  82.7257
 47.2396  6954.86  82.789
 47.2816  6976.26  82.6227
 47.3236  6935.29  82.7263
 47.3656  6853.75  82.269
 47.4076  7042.28  83.0448
 47.4496  6912.77  82.4359
 47.4916  6920.05  82.6659
 47.5336  6937.7  82.5927
 47.5756  7106.76  83.7029
 47.6176  6896.4  82.3627
 47.6596  6912.06  82.1766
 47.7016  7016.58  82.6169
 47.7436  7141.94  83.6266
 47.7856  7107.44  83.4984
 47.8276  6879.03  82.2034
 47.8696  6883.95  82.3162
 47.9116  7051.02  83.0251
 47.9536  6840.99  81.7211
 47.9956  6829.67  82.3434
 48.0376  6836.21  82.1631
 48.0796  6960.6  83.0333
 48.1216  6949  82.8999
 48.1636  7070.38  83.0819
 48.2056  6889.18  82.2731
 48.2476  7015.95  83.3287
 48.2896  6920.28  82.6746
 48.3316  6866.32  82.2888
 48.3736  6724.49  81.4616
 48.4156  6755.55  81.5065
 48.4576  6728.08  81.6218
 48.4996  6896.02  82.0874
 48.5416  6916.51  82.5375
 48.5836  6776.52  81.3931
 48.6256  6855.41  82.0556
 48.6676  6753.2  81.951
 48.7096  6768.92  81.3488
 48.7516  6846.66  81.9474
 48.7936  6759.34  81.4841
 48.8356  6860.4  82.1352
 48.8776  6817.01  82.346
 48.9196  6854.3  82.0346
 48.9616  6896.87  82.6633
 49.0036  6808.22  82.4784
 49.0456  6734.39  82.0146
 49.0876  6831.53  82.2413
 49.1296  6594.67  80.8667
 49.1716  6613.14  80.855
 49.2136  6733.24  81.4829
 49.2556  6761.74  81.7168
 49.2976  6789.99  81.9538
 49.3396  6647.31  81.1431
 49.3816  6824.53  81.6506
 49.4236  6639.16  80.9532
 49.4656  6623.76  80.877
 49.5076  6679.84  80.9776
 49.5496  6681.55  81.0484
 49.5916  6859.88  82.0367
 49.6336  6744.12  81.5452
 49.6756  6734.28  81.7079
 49.7176  6600.31  80.8388
 49.7596  6800.28  81.824
 49.8016  6715.77  81.2371
 49.8436  6691.7  81.384
 49.8856  6656.59  81.1777
 49.9276  6625.14  81.0793
 49.9696  6701.24  81.518
 50.0116  6620.71  81.1634
 50.0536  6714.42  81.6879
 50.0956  6633.04  81.2499
 50.1376  6683.05  81.2648
 50.1796  6557.13  80.7605
 50.2216  6587.02  80.9357
 50.2636  6622.15  80.782
 50.3056  6503.03  80.2208
 50.3476  6594.26  80.7987
 50.3896  6602.7  80.8215
 50.4316  6541.08  80.2864
 50.4736  6500.93  80.254
 50.5156  6571.38  80.6787
 50.5576  6646.2  80.9062
 50.5996  6602.4  80.9075
 50.6416  6564.88  80.6086
 50.6836  6559.81  80.6261
 50.7256  6595.55  80.7722
 50.7676  6644.57  81.3528
 50.8096  6541.28  80.3075
 50.8516  6508.36  80.5109
 50.8936  6505.06  80.28
 50.9356  6630.16  81.141
 50.9776  6540.67  80.7484
 51.0196  6420.03  80.1306
 51.0616  6479.81  79.8457
 51.1036  6594.51  80.8981
 51.1456  6503.95  80.2557
 51.1876  6467.96  79.395
 51.2296  6611.2  80.895
 51.2716  6492.64  79.8777
 51.3136  6463.91  80.1463
 51.3556  6579.66  80.4865
 51.3976  6401.54  79.5386
 51.4396  6350.06  79.5144
 51.4816  6366.83  79.4774
 51.5236  6506.08  80.4213
 51.5656  6459.14  79.7499
 51.6076  6440.58  79.7142
 51.6496  6479.24  80.1359
 51.6916  6431.85  80.2617
 51.7336  6417.22  80.1941
 51.7756  6380.48  79.6686
 51.8176  6377.84  79.756
 51.8596  6422.04  80.0488
 51.9016  6507.99  80.1973
 51.9436  6344.54  80.6046
 51.9856  6350.21  81.0503
 52.0276  6352.53  79.6117
 52.0696  6375.19  79.8136
 52.1116  6344.05  79.7356
 52.1536  6335.81  79.5235
 52.1956  6467.61  79.865
 52.2376  6450.62  79.9333
 52.2796  6366.95  79.2181
 52.3216  6323.96  79.6387
 52.3636  6344.09  79.3508
 52.4056  6344.33  79.2112
 52.4476  6310.33  79.355
 52.4896  6225.57  78.8729
 52.5316  6330.43  79.568
 52.5736  6401.08  79.754
 52.6156  6307.8  79.5323
 52.6576  6442.62  79.8325
 52.6996  6222  79.3988
 52.7416  6239.92  79.3775
 52.7836  6234.37  79.2174
 52.8256  6358.97  79.2504
 52.8676  6138.69  78.4123
 52.9096  6319.72  79.652
 52.9516  6271.83  79.7167
 52.9936  6271.39  80.0973
 53.0356  6120.69  78.159
 53.0776  6160.38  78.6862
 53.1196  6129.18  78.5896
 53.1616  6180.9  78.9674
 53.2036  6170.78  78.8597
 53.2456  6094.91  78.4719
 53.2876  6155.21  78.5715
 53.3296  6096.92  78.5151
 53.3716  6108.5  78.4136
 53.4136  6124.69  78.593
 53.4556  6110.44  78.5307
 53.4976  6001.68  77.6813
 53.5396  6146.68  79.0014
 53.5816  6235.52  79.1997
 53.6236  6009.7  78.0907
 53.6656  6184.7  78.8519
 53.7076  6226.14  79.0811
 53.7496  6087.12  78.3038
 53.7916  6098.14  78.5002
 53.8336  6101.64  78.4292
 53.8756  5988.12  78.2263
 53.9176  6117  78.4294
 53.9596  6205.16  79.7464
 54.0016  6092.17  78.3645
 54.0436  6078.57  78.4835
 54.0856  6183.49  78.5922
 54.1276  6068.41  78.0485
 54.1696  6086.53  78.3402
 54.2116  6139.91  78.4387
 54.2536  6148.23  78.311
 54.2956  6165.68  78.4727
 54.3376  6076.17  78.3741
 54.3796  6110.43  78.4971
 54.4216  6167.03  78.8976
 54.4636  6197.65  79.059
 54.5056  6141.29  78.5178
 54.5476  6041.67  78.2101
 54.5896  6108.68  78.4734
 54.6316  6072.1  78.1037
 54.6736  6092.75  78.2609
 54.7156  6109.08  78.4367
 54.7576  5936.8  77.3213
 54.7996  6022.3  78.0196
 54.8416  6164.99  78.9756
 54.8836  6015.41  78.1181
 54.9256  6063  78.1854
 54.9676  6140.48  78.5432
 55.0096  6076.38  78.2003
 55.0516  6128.22  78.6998
 55.0936  6107.56  78.2595
 55.1356  6066.74  78.0452
 55.1776  6132.5  78.7201
 55.2196  6187.44  78.8661
 55.2616  6140.41  78.7721
 55.3036  5959.7  77.7584
 55.3456  6162.99  79.2255
 55.3876  6064.34  78.3381
 55.4296  6100.4  78.5502
 55.4716  6017.15  78.0454
 55.5136  6116.54  78.4422
 55.5556  6040.22  78.0222
 55.5976  6051  78.1468
 55.6396  5996.16  77.6678
 55.6816  6073.62  78.1214
 55.7236  6075.47  78.1829
 55.7656  6010.61  77.5212
 55.8076  6077.68  77.9411
 55.8496  6003.37  77.874
 55.8916  6144.58  78.8511
 55.9336  6017.28  77.883
 55.9756  6006.76  77.7011
 56.0176  5978.66  77.6728
 56.0596  5989.55  77.7241
 56.1016  6094.07  78.4499
 56.1436  6009.02  78.1236
 56.1856  6015.11  77.9111
 56.2276  6002.44  77.8806
 56.2696  6047.67  78.1431
 56.3116  5967.35  78.0146
 56.3536  6057.78  78.2735
 56.3956  6056.75  78.2573
 56.4376  6048.69  78.2358
 56.4796  6017.58  77.8389
 56.5216  6003.01  78.111
 56.5636  6007.61  77.7455
 56.6056  5977.47  77.7721
 56.6476  6080.91  78.0778
 56.6896  5993.1  77.9505
 56.7316  6105.22  78.5662
 56.7736  6015.42  78.2129
 56.8156  6020.53  78.0412
 56.8576  6003.25  77.8666
 56.8996  6026.26  77.9525
 56.9416  6044.8  78.3732
 56.9836  5934.99  77.1747
 57.0256  5986.7  77.8256
 57.0676  5948.51  77.7
 57.1096  5926.38  77.3479
 57.1516  6079.16  78.3713
 57.1936  5908.15  77.0459
 57.2356  5976.91  77.8109
 57.2776  5902.1  77.2774
 57.3196  6036.69  78.5218
 57.3616  5975.07  77.6179
 57.4036  6071.38  78.3017
 57.4456  5958.53  77.5314
 57.4876  5988.34  77.5947
 57.5296  5921  77.3882
 57.5716  5922.49  77.4862
 57.6136  6008.63  77.8755
 57.6556  6018.59  78.0724
 57.6976  6006.81  77.8233
 57.7396  5874.99  77.3298
 57.7816  5854.68  77.5429
 57.8236  5888.38  77.5658
 57.8656  5915.03  77.4004
 57.9076  5953.38  77.6888
 57.9496  5941.2  77.9504
 57.9916  5893.38  77.1549
 58.0336  5982.67  78.0109
 58.0756  5982.28  77.61
 58.1176  5894.41  77.0727
 58.1596  5833.89  77.2319
 58.2016  6068.57  78.0012
 58.2436  6005.6  78.0084
 58.2856  5998.72  77.8834
 58.3276  5970.49  78.0686
 58.3696  5927.3  77.5357
 58.4116  5972.05  77.6982
 58.4536  6014.26  77.857
 58.4956  5970.66  77.7546
 58.5376  6100.24  78.162
 58.5796  5891.38  77.2316
 58.6216  5994.38  77.7229
 58.6636  6042.91  78.2481
 58.7056  6032.13  78.0354
 58.7476  5876.98  77.4627
 58.7896  5920.14  77.3947
 58.8316  5978.49  77.7688
 58.8736  6054.47  78.2747
 58.9156  6009.4  78.0237
 58.9576  6130.32  79.127
 58.9996  6237.56  79.0542
 59.0416  6097.13  78.5246
 59.0836  6033.16  78.0359
 59.1256  5970.55  78.3231
 59.1676  5992.82  78.7627
 59.2096  5958.96  77.8669
 59.2516  6263.62  79.4059
 59.2936  5913.68  77.4805
 59.3356  5985.56  77.8283
 59.3776  6075.89  78.5829
 59.4196  5943.12  77.6556
 59.4616  6077  78.3854
 59.5036  5971.67  77.7383
 59.5456  6087.54  78.1809
 59.5876  6087.51  78.3726
 59.6296  5998.55  77.8669
 59.6716  6085.51  78.4874
 59.7136  5987.51  77.8412
 59.7556  5901.65  77.416
 59.7976  6000.2  77.8026
 59.8396  6014.5  77.7897
 59.8816  5919.34  77.7122
 59.9236  6120.96  78.6656
 59.9656  6069.56  78.5935
 60.0076  6167.27  78.5765
 60.0496  5984.13  77.9028
 60.0916  6181.66  78.5893
 60.1336  5991.6  78.4746
 60.1756  5916.51  79.1536
 60.1996  0.0000000E+00  0.0000000E+00