File: docs/examples/opeando_xrd/IS17_D/Data/IS17_D/17_Da_f00104.xye
# /beamlines/bl04/projects/cycle2025-II/20250340211-lsimonelli/DATA/IS17_D/17_Da_f00104.xye : mythproc.py merge -s 0.006 -l 0.5 -f /beamlines/bl04/inhouse/ff/FlatField/ff_20Nov2024rod8mm60s_17keV.raw -b True -c true -o xye /beamlines/bl04/projects/cycle2025-II/20250340211-lsimonelli/DATA/IS17_D/17_Da_00104.dat
# IsMon = [6754040, 6751205, 6751360]  IsPos = [-1.4999, -2.4884, -3.4988]
# Wave = 0.4962  CalPath /beamlines/bl04/projects/cycle2025-II/20250340211-lsimonelli/DATA/Align/Si_Pos1_25keV_f00001.cal
# Date = 2025-09-24_22:32:11 Dt = 4.8000  Bin = 0.0060  <imon> = 6752202 +/- 1301 (Min/Max) 6751205 / 6754040
# icurr 249.7678  mocoIn 1.7043E-05  mocoOut 0.7991  i15 7.07349e+06  imon 6.7522e+06  i7 6.0000  iEMpd_timer 4.8000  iEMpd_1 3.2926E-08  iEMpd_2 7.8118E-08  iEMpd_3 1.7362E-08  iEMpd_4 4.8529E-08  iEMhp_timer 4.8000  iEMhp_1 4.8791E-06  iEMhp_2 -2.5616E-08  iEMhp_3 -2.5210E-08  iEMhp_4 -2.0171E-08
#      9776
 1.5856  40051.6  205.473
 1.6276  47221  219.278
 1.6696  54420  234.57
 1.7116  63478.2  253.836
 1.7536  71881.9  268.966
 1.7956  76886  278.865
 1.8376  73284.6  272.688
 1.8796  61274.5  247.505
 1.9216  49336.8  222.98
 1.9636  42022.1  204.944
 2.0056  37969.3  194.055
 2.0476  35329.2  189.239
 2.0896  34089.1  184.798
 2.1316  33244.7  181.618
 2.1736  31417.6  177.957
 2.2156  31979.4  178.1
 2.2576  31020.6  176.04
 2.2996  29954.3  173.622
 2.3416  30423.9  173.582
 2.3836  29764.8  171.796
 2.4256  28919.8  169.892
 2.4676  28465.7  168.314
 2.5096  28490.2  168.442
 2.5516  27762.7  170.156
 2.5936  27995.1  167.404
 2.6356  27306.7  166.035
 2.6776  27192.9  164.569
 2.7196  27011  164.537
 2.7616  27027.5  164.362
 2.8036  26334.6  162.413
 2.8456  26531.7  163.648
 2.8876  26036.9  161.995
 2.9296  25381.2  160.063
 2.9716  25164.7  158.866
 3.0136  25082  158.672
 3.0556  25121.5  159.202
 3.0976  25068.6  157.943
 3.1396  24808.5  157.848
 3.1816  24273.9  156.076
 3.2236  24245.8  155.989
 3.2656  24058.4  154.415
 3.3076  23812.1  155.081
 3.3496  24325.7  155.675
 3.3916  24584  156.32
 3.4336  25021.3  158.286
 3.4756  25288.5  159.051
 3.5176  26080.6  161.326
 3.5596  25619.6  162.321
 3.6016  25893.7  160.805
 3.6436  25094.6  159.411
 3.6856  24713.9  156.487
 3.7276  23788.1  154.619
 3.7696  23441.4  153.683
 3.8116  23374.3  153.348
 3.8536  23182.8  152.647
 3.8956  23159.8  152.4
 3.9376  23004.2  152.14
 3.9796  23134.3  152.078
 4.0216  23070.1  150.903
 4.0636  23013.6  152.194
 4.1056  22918.3  151.52
 4.1476  23131.9  152.53
 4.1896  23411.4  153.319
 4.2316  23444.2  153.246
 4.2736  23998  154.839
 4.3156  24145.3  155.543
 4.3576  24963.6  158.078
 4.3996  25085.3  158.721
 4.4416  25881.8  160.804
 4.4836  26046  161.469
 4.5256  26467.2  163.374
 4.5676  26488.2  163.7
 4.6096  27092.1  164.199
 4.6516  27363.3  164.735
 4.6936  27688.8  166.531
 4.7356  27661.3  166.275
 4.7776  27898.9  166.824
 4.8196  27277.4  165.587
 4.8616  27022.4  164.309
 4.9036  26668.4  162.959
 4.9456  26655.6  163.582
 4.9876  25849.8  160.991
 5.0296  26283  162.15
 5.0716  26168.2  162.581
 5.1136  26497.3  163.303
 5.1556  26688.4  163.356
 5.1976  26985.9  164.247
 5.2396  27328.5  164.987
 5.2816  27134.4  164.856
 5.3236  27258.1  164.944
 5.3656  26743.2  164.296
 5.4076  26561.9  163.891
 5.4496  26584.2  163.448
 5.4916  26590.9  163.226
 5.5336  26781.5  163.822
 5.5756  26409.4  162.696
 5.6176  26603.2  162.733
 5.6596  26840.8  164.426
 5.7016  27051.5  164.344
 5.7436  27092  164.73
 5.7856  27089.9  164.783
 5.8276  27409.2  165.487
 5.8696  27681.4  166.474
 5.9116  27476.2  166.458
 5.9536  27630.8  166.671
 5.9956  27930.8  166.949
 6.0376  28154.6  168.253
 6.0796  28049.7  167.771
 6.1216  28323.7  168.799
 6.1636  28446.4  168.218
 6.2056  28518.8  169.104
 6.2476  28661.8  169.397
 6.2896  29065.7  170.264
 6.3316  28828.2  169.734
 6.3736  28967.4  170.046
 6.4156  28922.4  169.798
 6.4576  29370.7  170.723
 6.4996  29431.1  171.387
 6.5416  29383  171.38
 6.5836  29350.4  171.521
 6.6256  29530.3  171.602
 6.6676  30309.2  173.415
 6.7096  29839.8  172.909
 6.7516  30223  173.678
 6.7936  30318.7  173.383
 6.8356  30574.7  174.191
 6.8776  31024.4  176.281
 6.9196  30948.8  176.459
 6.9616  31418.8  177.241
 7.0036  31885.9  178.202
 7.0456  31833.5  177.35
 7.0876  31535.1  178.199
 7.1296  31814  178.123
 7.1716  31667.3  177.245
 7.2136  31356.3  176.159
 7.2556  31672.8  177.208
 7.2976  31599  177.5
 7.3396  31785.9  178.236
 7.3816  31531.2  177.735
 7.4236  31779.6  177.725
 7.4656  31942.4  177.666
 7.5076  32244.2  178.637
 7.5496  32173.2  178.982
 7.5916  32236.9  179.186
 7.6336  32545.7  179.938
 7.6756  32829.1  180.57
 7.7176  32961.1  181.241
 7.7596  32985.3  182.556
 7.8016  33365.3  185.771
 7.8436  33856.5  183.834
 7.8856  34066.5  184.014
 7.9276  34492.3  185.554
 7.9696  34813.6  186.73
 8.0116  35632.8  187.447
 8.0536  35755.5  188.032
 8.0956  35722.3  189.104
 8.1376  36074.5  189.518
 8.1796  36397.2  190.909
 8.2216  37093.2  191.46
 8.2636  37561.2  192.913
 8.3056  37149.7  192.626
 8.3476  37895.3  193.872
 8.3896  37642.5  193.308
 8.4316  37937.8  194.23
 8.4736  37779.6  193.289
 8.5156  37598.2  193.103
 8.5576  37304.7  193.323
 8.5996  37195.4  191.91
 8.6416  37069.6  192.843
 8.6836  37023.7  192.56
 8.7256  37254.5  192.604
 8.7676  36966.4  194.738
 8.8096  36527.1  190.893
 8.8516  36739.6  191.062
 8.8936  36127.8  189.347
 8.9356  35960  189.245
 8.9776  36139.1  189.822
 9.0196  36068.9  189.306
 9.0616  35972.1  188.536
 9.1036  36082  190.018
 9.1456  35875.4  188.833
 9.1876  35665.5  188.221
 9.2296  35897.2  188.25
 9.2716  35316.5  186.774
 9.3136  35143.7  186.292
 9.3556  35405.6  186.974
 9.3976  34207.4  184.303
 9.4396  34387.6  184.685
 9.4816  33865.3  183.133
 9.5236  33998.2  183.413
 9.5656  33609.8  182.678
 9.6076  33550  183.054
 9.6496  33529.4  182.915
 9.6916  33538.6  182.92
 9.7336  33416.3  182.358
 9.7756  33719.6  184.452
 9.8176  32823.2  181.473
 9.8596  32500.4  179.039
 9.9016  32186.9  178.165
 9.9436  31993.5  177.547
 9.9856  31776.2  177.167
 10.0276  31258.5  176.814
 10.0696  31527.9  176.616
 10.1116  30720.6  174.601
 10.1536  30572.5  174.346
 10.1956  30106.3  172.613
 10.2376  29756.3  171.108
 10.2796  29782.2  171.319
 10.3216  29384.3  170.437
 10.3636  29303.4  170.226
 10.4056  29279.1  170.564
 10.4476  29017  169.42
 10.4896  28790.3  168.219
 10.5316  28291.4  167.454
 10.5736  28081.1  167.225
 10.6156  27815.2  166.199
 10.6576  27997.7  165.337
 10.6996  27705.6  165.13
 10.7416  27304.9  164.164
 10.7836  27540.4  165.565
 10.8256  27029.8  164.442
 10.8676  27330  164.895
 10.9096  26892.3  163.603
 10.9516  26617.4  161.711
 10.9936  26664.1  162.039
 11.0356  26518.3  162.233
 11.0776  26454.4  161.362
 11.1196  25865.9  160.292
 11.1616  25767.9  159.677
 11.2036  26030.2  160.346
 11.2456  25750.4  160.177
 11.2876  25612.1  159.468
 11.3296  25317.7  158.46
 11.3716  25686.1  159.298
 11.4136  25500.9  159.617
 11.4556  25771.2  160.133
 11.4976  25795.5  159.188
 11.5396  26015.4  160.031
 11.5816  26461.2  161.859
 11.6236  26906.3  163.439
 11.6656  26797.7  162.241
 11.7076  25740.3  159.855
 11.7496  25319.6  162.451
 11.7916  25049.3  156.964
 11.8336  24793.9  157.044
 11.8756  24689.1  156.242
 11.9176  24769.9  156.159
 11.9596  24419.1  155.224
 12.0016  24313.5  155.689
 12.0436  24385.1  155.328
 12.0856  24136.1  155.071
 12.1276  24061.4  154.749
 12.1696  24086  153.964
 12.2116  24336.7  154.765
 12.2536  24008.2  154.541
 12.2956  23967.6  153.748
 12.3376  23749.9  153.245
 12.3796  23844.4  154.013
 12.4216  23994.3  153.723
 12.4636  23576.5  153.274
 12.5056  23690.9  152.926
 12.5476  24002.2  153.464
 12.5896  24175.4  154.653
 12.6316  23575.4  152.87
 12.6736  23689.9  153.734
 12.7156  23515.2  153.021
 12.7576  23683.2  153.809
 12.7996  23828.6  152.934
 12.8416  23569.3  153.141
 12.8836  24054.2  154.544
 12.9256  24131.9  153.806
 12.9676  24359.2  154.961
 13.0096  24065.2  155.1
 13.0516  24187.4  154.543
 13.0936  24354.4  155.469
 13.1356  24747.4  155.709
 13.1776  24389.9  155.561
 13.2196  24631.5  155.994
 13.2616  24580.4  156.147
 13.3036  24602.8  156.181
 13.3456  24654.3  156.706
 13.3876  24354.2  155.034
 13.4296  24322.4  155.085
 13.4716  24548.7  155.417
 13.5136  24619.2  155.795
 13.5556  24609.5  156.371
 13.5976  24558.5  156.351
 13.6396  24579.9  155.799
 13.6816  24304.6  155.413
 13.7236  24849.6  156.795
 13.7656  24300  155.575
 13.8076  24562.3  155.202
 13.8496  24163.9  154.527
 13.8916  24080.3  155.265
 13.9336  24160.9  154.755
 13.9756  24044.8  153.729
 14.0176  24104  154.608
 14.0596  23878.8  153.846
 14.1016  23622.7  153.408
 14.1436  23413.4  151.863
 14.1856  23294.7  151.773
 14.2276  22892.9  150.93
 14.2696  23290.8  152.092
 14.3116  22951  150.877
 14.3536  22457.9  149.424
 14.3956  22579.3  149.56
 14.4376  22699.9  149.733
 14.4796  22666.7  149.617
 14.5216  22227.9  148.952
 14.5636  22036.2  147.875
 14.6056  22173.3  147.913
 14.6476  22146.1  147.052
 14.6896  21862.7  146.654
 14.7316  21626.7  146.891
 14.7736  21491.8  145.579
 14.8156  21154.8  144.465
 14.8576  21158.5  144.331
 14.8996  20767.2  144.195
 14.9416  20323.4  142.646
 14.9836  20550.9  143.402
 15.0256  20292.8  141.435
 15.0676  20189.8  141.396
 15.1096  20230  141.273
 15.1516  19892.8  140.648
 15.1936  19854.5  139.94
 15.2356  19456.6  138.809
 15.2776  19355.8  138.037
 15.3196  19093.4  138.097
 15.3616  19105.8  137.895
 15.4036  18865  136.884
 15.4456  19092.6  137.357
 15.4876  18865.7  136.218
 15.5296  18857  136.468
 15.5716  18422.8  134.489
 15.6136  18366.6  134.613
 15.6556  18498.5  134.339
 15.6976  18341.9  134.061
 15.7396  18231.2  134.049
 15.7816  18098.5  133.068
 15.8236  17859.1  132.885
 15.8656  17952.5  133.018
 15.9076  17600.3  131.535
 15.9496  17654.6  134.503
 15.9916  17440.5  134.124
 16.0336  17190  130.067
 16.0756  17377.9  131.096
 16.1176  17197.3  130.481
 16.1596  16847.3  130.32
 16.2016  17050.9  129.855
 16.2436  16886.2  129.611
 16.2856  16808.5  128.855
 16.3276  16610.9  128.512
 16.3696  16741.8  128.831
 16.4116  16517.4  128.429
 16.4536  16609.6  128.568
 16.4956  16413.8  127.548
 16.5376  16332.6  127.416
 16.5796  16280.1  126.574
 16.6216  16204.6  126.588
 16.6636  16269.1  126.995
 16.7056  16269.3  126.852
 16.7476  16325.6  126.608
 16.7896  16236.7  127.003
 16.8316  16295.5  127.208
 16.8736  16035.5  126.442
 16.9156  16192.3  127.388
 16.9576  16041.8  127.601
 16.9996  16112.7  128.375
 17.0416  16329.8  127.582
 17.0836  16426.9  127.714
 17.1256  16009.4  126.091
 17.1676  16095.2  126.422
 17.2096  15753  124.946
 17.2516  15769.9  124.795
 17.2936  15689.9  124.793
 17.3356  15459.6  123.885
 17.3776  15614.4  124.697
 17.4196  15586.5  124.282
 17.4616  15342.4  123.223
 17.5036  15228.2  123.132
 17.5456  14976.8  122.738
 17.5876  15004.4  121.908
 17.6296  15163.2  122.372
 17.6716  14738  121.203
 17.7136  14637.6  120.931
 17.7556  14726.8  121.592
 17.7976  14640.3  120.979
 17.8396  14534.5  120.045
 17.8816  14625.2  120.969
 17.9236  14381  119.753
 17.9656  14754.6  121.848
 18.0076  14592.5  120.751
 18.0496  14564.9  119.784
 18.0916  14440.2  119.801
 18.1336  14510.9  120.191
 18.1756  14629  120.204
 18.2176  14198.4  118.655
 18.2596  14375.1  119.131
 18.3016  14333.7  119.205
 18.3436  14493.4  119.873
 18.3856  14052.3  118.158
 18.4276  14342.6  119.067
 18.4696  14088.3  118.095
 18.5116  14208.4  118.878
 18.5536  14246.4  119.395
 18.5956  14028.5  118.034
 18.6376  14037.7  118.473
 18.6796  13998.2  117.643
 18.7216  14226.8  119.083
 18.7636  13865.6  117.544
 18.8056  14012.1  118.112
 18.8476  13879.5  118.174
 18.8896  13846.7  117.374
 18.9316  14179.7  118.766
 18.9736  13861.4  117.118
 19.0156  13852.9  117.491
 19.0576  13976.9  116.879
 19.0996  14039.8  117.851
 19.1416  13717.4  116.87
 19.1836  13892  117.221
 19.2256  13674.9  116.514
 19.2676  14017.2  118.055
 19.3096  14090.7  118.612
 19.3516  13768  117.204
 19.3936  13739.3  116.986
 19.4356  13754.4  116.914
 19.4776  13745.9  116.979
 19.5196  13762.9  116.909
 19.5616  13853  117.539
 19.6036  13833.9  116.962
 19.6456  13908.6  117.392
 19.6876  13910.4  117.058
 19.7296  13742.2  116.787
 19.7716  13683.6  116.708
 19.8136  13766.1  117.259
 19.8556  14056.6  117.972
 19.8976  13817  117.029
 19.9396  14028.2  117.496
 19.9816  14196.3  118.443
 20.0236  14148  118.457
 20.0656  14537.5  120.075
 20.1076  14417  120.034
 20.1496  14642.7  120.982
 20.1916  14815.4  121.187
 20.2336  14698.1  120.645
 20.2756  14280.4  119.356
 20.3176  13993.8  117.898
 20.3596  13868.7  117.35
 20.4016  13814.9  116.92
 20.4436  13733.5  117.138
 20.4856  13463.3  115.765
 20.5276  13461.7  116.227
 20.5696  13272.5  114.86
 20.6116  13122.3  114.484
 20.6536  13213.5  114.387
 20.6956  13306.1  114.918
 20.7376  13207.3  114.722
 20.7796  13183.2  114.295
 20.8216  13375.1  114.834
 20.8636  12991  113.533
 20.9056  13067.7  113.821
 20.9476  13033.5  113.508
 20.9896  13235.4  114.263
 21.0316  13257.8  114.26
 21.0736  12942.9  113.407
 21.1156  13016  113.886
 21.1576  13077  114.198
 21.1996  12910.4  113.447
 21.2416  12895  113.211
 21.2836  12923.6  113.301
 21.3256  12829  112.966
 21.3676  12990.1  113.228
 21.4096  12884.7  113.078
 21.4516  12750  112.365
 21.4936  12583.7  111.878
 21.5356  12809.6  112.819
 21.5776  12895.9  113.034
 21.6196  12786.9  112.595
 21.6616  12772  112.618
 21.7036  12688.7  112.03
 21.7456  12717.5  112.231
 21.7876  12722.3  112.004
 21.8296  12639.1  111.494
 21.8716  12683.7  111.918
 21.9136  12955.4  113.314
 21.9556  12574.5  111.311
 21.9976  12559.8  111.263
 22.0396  12548.2  111.446
 22.0816  12674.7  112.568
 22.1236  12723.8  112.231
 22.1656  12719.2  112.344
 22.2076  12701.4  111.746
 22.2496  12713.5  111.826
 22.2916  12693.2  111.615
 22.3336  12648.2  112.146
 22.3756  12603  111.665
 22.4176  12635.8  111.666
 22.4596  12335  110.914
 22.5016  12617.8  111.673
 22.5436  12853.6  112.588
 22.5856  12643.2  111.914
 22.6276  12522.1  111.51
 22.6696  12688.6  112.601
 22.7116  12487.6  111.223
 22.7536  12715.4  112.207
 22.7956  12603.8  111.047
 22.8376  12574.4  111.44
 22.8796  12513.4  110.967
 22.9216  12750.7  112.565
 22.9636  12604.5  111.071
 23.0056  12532.9  110.885
 23.0476  12601.2  111.761
 23.0896  12930.5  112.58
 23.1316  12717.8  112.089
 23.1736  12599.5  114.509
 23.2156  12726.1  112.444
 23.2576  12790.2  112.847
 23.2996  12707.2  112.276
 23.3416  12649.7  112.535
 23.3836  12586.5  111.493
 23.4256  12762.4  112.373
 23.4676  12486.3  110.865
 23.5096  12510.6  111.644
 23.5516  12556.3  111.131
 23.5936  12634.3  112.375
 23.6356  12648.8  112.109
 23.6776  12541.4  111.85
 23.7196  12456.1  111.038
 23.7616  12601.2  111.605
 23.8036  12501.2  111.201
 23.8456  12573.1  111.094
 23.8876  12220  109.86
 23.9296  12255.7  110.522
 23.9716  12442.1  110.546
 24.0136  12440.9  111.431
 24.0556  12317.3  110.624
 24.0976  12172.2  109.778
 24.1396  12148.9  112.318
 24.1816  12004.7  110.083
 24.2236  11923.3  109.32
 24.2656  11888.1  108.637
 24.3076  11864.7  108.774
 24.3496  11868  108.69
 24.3916  11982.8  109.262
 24.4336  11928.9  109.219
 24.4756  11768.3  108.354
 24.5176  11632.5  107.379
 24.5596  11600  107.356
 24.6016  11503.2  107.189
 24.6436  11609.6  107.168
 24.6856  11610.5  106.945
 24.7276  11454.5  106.535
 24.7696  11478.2  106.76
 24.8116  11355.5  106.374
 24.8536  11283.9  106.02
 24.8956  11372.2  106.181
 24.9376  11364  106.082
 24.9796  11040  104.905
 25.0216  11048.7  105.052
 25.0636  11370.4  106.226
 25.1056  10913.1  104.764
 25.1476  11329.7  108.424
 25.1896  11296.9  106.736
 25.2316  11267.3  105.863
 25.2736  11229  105.343
 25.3156  11145.8  105.021
 25.3576  11149.4  105.452
 25.3996  11149.3  105.443
 25.4416  11180  105.564
 25.4836  10879.5  104.662
 25.5256  11059.7  104.892
 25.5676  11000.1  104.342
 25.6096  10900.5  104.437
 25.6516  11091.4  104.845
 25.6936  10867.6  104.079
 25.7356  10902.5  104.391
 25.7776  10952.7  104.236
 25.8196  10735.1  103.429
 25.8616  10979.3  104.526
 25.9036  10963.3  103.921
 25.9456  10935.6  104.385
 25.9876  10728.1  103.45
 26.0296  10916.7  103.873
 26.0716  10815.5  103.796
 26.1136  10754.3  103.458
 26.1556  10956  103.802
 26.1976  10780.2  103.884
 26.2396  10869.9  103.481
 26.2816  10909.2  104.27
 26.3236  10802.1  103.92
 26.3656  10732.3  103.303
 26.4076  10842.7  104.045
 26.4496  11461.3  106.417
 26.4916  10921.4  103.92
 26.5336  10849.5  103.902
 26.5756  11010.8  104.531
 26.6176  10833.4  103.742
 26.6596  10706  103.431
 26.7016  10639.8  102.872
 26.7436  10581.2  102.71
 26.7856  10578.3  102.682
 26.8276  10459.1  102.056
 26.8696  10602  102.633
 26.9116  10524.2  102.197
 26.9536  10514.9  102.195
 26.9956  10501.4  102.166
 27.0376  10335.2  101.563
 27.0796  10411.5  101.672
 27.1216  10396.8  101.671
 27.1636  10355.2  101.639
 27.2056  10391.4  101.697
 27.2476  10438.1  101.923
 27.2896  10389.6  101.803
 27.3316  10308  101.112
 27.3736  10245.2  101.072
 27.4156  10124.2  100.313
 27.4576  10319.2  101.508
 27.4996  10119.4  100.116
 27.5416  10241.8  101.04
 27.5836  10241.7  100.855
 27.6256  10484.6  102.183
 27.6676  10429.4  101.963
 27.7096  10182.7  100.617
 27.7516  10090.7  100.316
 27.7936  10151.9  100.778
 27.8356  10160.4  100.444
 27.8776  10097.9  100.177
 27.9196  9963.12  99.362
 27.9616  10159.2  100.528
 28.0036  10200.7  100.706
 28.0456  10065  100.17
 28.0876  9992.13  99.893
 28.1296  9959.24  99.57
 28.1716  9873.01  99.1381
 28.2136  10020.3  99.8464
 28.2556  9866.66  99.1921
 28.2976  9849.46  99.0891
 28.3396  9934.54  99.2855
 28.3816  9941.38  99.3377
 28.4236  9831.3  98.9431
 28.4656  9882.09  99.2315
 28.5076  9736.19  98.1265
 28.5496  9725.39  98.3414
 28.5916  10002.4  99.5352
 28.6336  9624.74  97.9736
 28.6756  9909.34  98.6201
 28.7176  9861.19  98.9265
 28.7596  9890.14  98.9708
 28.8016  9850.82  98.8099
 28.8436  9703.97  98.3095
 28.8856  9723.76  98.2604
 28.9276  9784.08  98.8083
 28.9696  9609.48  97.5845
 29.0116  9654.25  97.9966
 29.0536  9616.21  97.9984
 29.0956  9608.18  97.6805
 29.1376  9554.2  97.3687
 29.1796  9645  97.8678
 29.2216  9576.62  97.3705
 29.2636  9708.16  98.106
 29.3056  9645.09  97.5847
 29.3476  9564.44  97.6978
 29.3896  9606.6  98.0037
 29.4316  9840.6  98.5335
 29.4736  9589.92  97.3386
 29.5156  9684.65  97.7356
 29.5576  9548.16  97.7844
 29.5996  9520.77  96.9072
 29.6416  9539.29  97.1153
 29.6836  9689.5  97.809
 29.7256  9544.6  97.6357
 29.7676  9628.08  97.7222
 29.8096  9564.2  97.3429
 29.8516  9519.43  97.4386
 29.8936  9427.44  97.0663
 29.9356  9701.65  98.2222
 29.9776  9423.44  96.9544
 30.0196  9498.36  96.7293
 30.0616  9406.53  96.6318
 30.1036  9517.12  97.0239
 30.1456  9458.45  96.9534
 30.1876  9540.73  97.3583
 30.2296  9407.6  96.6211
 30.2716  9539.7  96.9359
 30.3136  9604.97  98.1252
 30.3556  9480.02  97.4932
 30.3976  9409.81  98.6278
 30.4396  9531.81  96.6141
 30.4816  9426.44  95.6772
 30.5236  9329.82  95.209
 30.5656  9491.79  96.684
 30.6076  9351.72  95.4021
 30.6496  9442.38  96.2456
 30.6916  9306.05  95.6469
 30.7336  9244.91  95.4782
 30.7756  9286.89  95.7843
 30.8176  9265.83  95.5932
 30.8596  9343.72  95.7643
 30.9016  9415.88  96.4734
 30.9436  9527.54  96.7985
 30.9856  9349.8  95.9912
 31.0276  9245.07  95.0612
 31.0696  9208.98  95.4576
 31.1116  9387.7  96.3542
 31.1536  9332.06  95.949
 31.1956  9245.52  95.5929
 31.2376  9150.7  95.1152
 31.2796  9208.41  94.9504
 31.3216  9201.19  94.856
 31.3636  9341.42  96.27
 31.4056  9162.83  96.6516
 31.4476  9164.17  94.5558
 31.4896  9178.05  95.1332
 31.5316  9149.06  94.3912
 31.5736  9350.78  95.2476
 31.6156  9146.79  94.2173
 31.6576  9324.61  95.2253
 31.6996  9237.01  94.4503
 31.7416  8942.02  93.9722
 31.7836  9382.56  95.2671
 31.8256  9032.1  93.7389
 31.8676  9093.96  94.0602
 31.9096  8958.41  93.7073
 31.9516  8786.39  92.9608
 31.9936  9006.84  93.9498
 32.0356  9058.16  94.2702
 32.0776  9154.71  94.6638
 32.1196  9062.96  94.2781
 32.1616  9194.35  94.4185
 32.2036  8946.81  93.6393
 32.2456  9128.44  94.9703
 32.2876  8985.87  93.7249
 32.3296  8867.9  93.0741
 32.3716  9016.16  93.9536
 32.4136  8968.78  93.9201
 32.4556  9103.03  93.9991
 32.4976  9047.24  93.6176
 32.5396  8948.35  93.1772
 32.5816  8930.91  93.2028
 32.6236  8951.73  93.3879
 32.6656  8981.81  94.0738
 32.7076  8942.79  93.5296
 32.7496  8984.37  93.4163
 32.7916  8967.22  93.2898
 32.8336  8950.16  93.2957
 32.8756  9064.02  93.6055
 32.9176  8803.16  92.7208
 32.9596  8873.84  93.1723
 33.0016  8827.22  92.7266
 33.0436  9015.58  93.885
 33.0856  8865  93.1659
 33.1276  8680.81  91.9342
 33.1696  8839.27  92.6001
 33.2116  8943.67  93.3788
 33.2536  8844.66  92.8598
 33.2956  8870.5  93.0805
 33.3376  8770.11  92.2922
 33.3796  8896.89  93.1651
 33.4216  8827.82  92.3962
 33.4636  8806.03  92.4328
 33.5056  8778.69  92.5346
 33.5476  8718.7  92.1943
 33.5896  8912.99  93.0043
 33.6316  8727.74  92.3386
 33.6736  8763.2  92.7728
 33.7156  8768.71  92.8435
 33.7576  8844.72  92.8751
 33.7996  8901.09  92.9358
 33.8416  8604.73  91.5573
 33.8836  8770.81  92.2133
 33.9256  8664.24  91.7125
 33.9676  8863.28  92.6596
 34.0096  8582.71  91.487
 34.0516  8640.09  91.4388
 34.0936  8616.43  91.5717
 34.1356  8842.29  92.5035
 34.1776  8641.28  91.4683
 34.2196  8540  91.1041
 34.2616  8522.06  91.1429
 34.3036  8463.42  91.0702
 34.3456  8602.19  91.5738
 34.3876  8588.77  91.4577
 34.4296  8606.94  91.2523
 34.4716  8717.07  91.9792
 34.5136  8552.53  91.312
 34.5556  8596.71  91.8088
 34.5976  8654.67  91.9131
 34.6396  8428.17  90.4172
 34.6816  8460.66  90.6999
 34.7236  8526.45  90.843
 34.7656  8538.48  91.1014
 34.8076  8489.91  91.1592
 34.8496  8448.44  90.7993
 34.8916  8569.99  91.3228
 34.9336  8637.74  91.6496
 34.9756  8616.84  91.4531
 35.0176  8525.06  91.5016
 35.0596  8373.07  90.5002
 35.1016  8592.15  91.4465
 35.1436  8579.36  91.0665
 35.1856  8406.45  90.2689
 35.2276  8528.99  91.0991
 35.2696  8411.94  90.6596
 35.3116  8551.38  91.5092
 35.3536  8377.54  90.2813
 35.3956  8555.94  90.94
 35.4376  8436.2  90.842
 35.4796  8422.12  90.8447
 35.5216  8431.4  90.8471
 35.5636  8263.94  90.682
 35.6056  8486.98  90.9196
 35.6476  8522.99  91.0011
 35.6896  8508.55  91.0192
 35.7316  8383.57  90.3172
 35.7736  8396.58  90.5861
 35.8156  8296.7  90.0435
 35.8576  8365.05  90.6677
 35.8996  8525.43  91.4798
 35.9416  8361.66  90.1105
 35.9836  8302.43  90.1439
 36.0256  8426.12  90.835
 36.0676  8413.32  90.5269
 36.1096  8215.95  89.5908
 36.1516  8352.81  90.227
 36.1936  8206.63  89.2815
 36.2356  8315.71  90.5141
 36.2776  8308.92  89.9607
 36.3196  8291.82  89.5373
 36.3616  8209.29  89.2192
 36.4036  8333.34  89.9404
 36.4456  8302.53  89.9841
 36.4876  8128.2  88.9842
 36.5296  8264.44  89.7662
 36.5716  8299.71  90.7364
 36.6136  8418.18  90.1515
 36.6556  8383.66  90.1764
 36.6976  8355.29  90.5218
 36.7396  8212.64  89.477
 36.7816  8274.81  90.1897
 36.8236  8175.56  89.5648
 36.8656  8180.25  89.6637
 36.9076  8221  89.7691
 36.9496  8190.53  89.5883
 36.9916  8166.4  89.0899
 37.0336  8259.87  89.9085
 37.0756  8302.3  89.9342
 37.1176  8083.41  89.0091
 37.1596  8159.8  89.4337
 37.2016  8208.59  89.9285
 37.2436  8259.98  89.5246
 37.2856  8086.4  88.8339
 37.3276  8246.11  89.0528
 37.3696  8081.43  89.0379
 37.4116  8104.04  89.0723
 37.4536  8091.6  88.871
 37.4956  8082.79  88.8651
 37.5376  8097.95  90.5011
 37.5796  8085.8  90.3791
 37.6216  7846.89  87.331
 37.6636  7950.32  87.7973
 37.7056  8048.13  88.5316
 37.7476  8060.25  88.1276
 37.7896  8131.08  89.0222
 37.8316  7789.02  87.2958
 37.8736  8053.3  88.2981
 37.9156  8075.72  88.4178
 37.9576  8030.7  88.0516
 37.9996  7806.46  86.5469
 38.0416  7916.73  87.9565
 38.0836  8108.04  88.9189
 38.1256  8056.8  88.5825
 38.1676  7697.6  86.7339
 38.2096  7982.43  87.9437
 38.2516  8004.56  88.2758
 38.2936  7934.37  87.679
 38.3356  8064.43  88.3166
 38.3776  7954.53  87.9875
 38.4196  7899.29  87.5355
 38.4616  8069.14  88.7092
 38.5036  7993.4  88.1342
 38.5456  7943.74  88.7005
 38.5876  7979.03  88.9232
 38.6296  7710.96  86.4088
 38.6716  7810.07  86.7572
 38.7136  7807.68  86.6857
 38.7556  7786.83  87.0725
 38.7976  7884.12  87.5486
 38.8396  7687.1  86.8964
 38.8816  7650.72  86.4641
 38.9236  7788.29  87.0607
 38.9656  7868.5  87.4199
 39.0076  7780.54  86.3453
 39.0496  7884.02  87.452
 39.0916  7869.69  87.0175
 39.1336  7818.76  87.1533
 39.1756  7842.84  87.3544
 39.2176  7819.26  87.7541
 39.2596  7968.08  88.5035
 39.3016  7797.18  87.1258
 39.3436  7802.75  87.5785
 39.3856  7723.61  86.5878
 39.4276  7865.34  87.8681
 39.4696  7785.88  87.0576
 39.5116  7745.26  87.3313
 39.5536  7997.75  89.1837
 39.5956  7871.72  87.5801
 39.6376  7872.15  87.5866
 39.6796  7891.46  87.4362
 39.7216  7891.06  87.5324
 39.7636  7888.79  88.0842
 39.8056  7934.88  88.113
 39.8476  7778.58  87.5029
 39.8896  7880.56  87.6925
 39.9316  7813.15  87.5835
 39.9736  7983.56  88.0975
 40.0156  7904.17  87.4811
 40.0576  7842.14  87.5037
 40.0996  7948.5  87.2746
 40.1416  7980.73  88.2449
 40.1836  7908.8  87.7282
 40.2256  8016.97  88.3789
 40.2676  7878.67  87.7182
 40.3096  7912.59  87.831
 40.3516  7950.09  88.1491
 40.3936  7992.1  87.9432
 40.4356  7734.92  86.704
 40.4776  7997.53  88.5771
 40.5196  7924.68  88.3027
 40.5616  7879.65  87.69
 40.6036  7838.9  87.719
 40.6456  7942.06  87.8999
 40.6876  7975.64  88.0709
 40.7296  7907.34  87.8408
 40.7716  8004.59  88.4998
 40.8136  7839.25  87.5313
 40.8556  7973.03  88.4022
 40.8976  7994.67  88.4401
 40.9396  7895.88  88.2435
 40.9816  7917.55  87.6534
 41.0236  8010.94  87.9529
 41.0656  8139.07  89.196
 41.1076  7929.07  87.8123
 41.1496  7935.44  87.7557
 41.1916  7968.08  88.2569
 41.2336  7872.09  87.7104
 41.2756  7908.55  87.5202
 41.3176  7928.54  88.2443
 41.3596  7868.18  87.6439
 41.4016  7955.77  88.3872
 41.4436  8024.28  88.5526
 41.4856  7967.49  88.4098
 41.5276  7849.74  87.7681
 41.5696  7835.37  87.3194
 41.6116  7743.48  87.1913
 41.6536  7899.81  87.929
 41.6956  7876.26  87.8442
 41.7376  7828.35  87.6176
 41.7796  7832.85  87.5226
 41.8216  7880.32  88.0231
 41.8636  7836.26  87.718
 41.9056  7875.32  87.7203
 41.9476  8030.82  88.8184
 41.9896  7914.48  87.8361
 42.0316  7963.25  88.1944
 42.0736  7831.92  87.5703
 42.1156  7758.71  87.0041
 42.1576  7813.55  87.4135
 42.1996  7927.98  88.1892
 42.2416  7893.93  87.5862
 42.2836  7661.63  86.3956
 42.3256  7692.26  86.6836
 42.3676  7892.8  87.6059
 42.4096  7861.25  87.3935
 42.4516  7746.73  86.8399
 42.4936  7695.52  86.626
 42.5356  7752.1  87.0804
 42.5776  7714.33  86.7984
 42.6196  7861.57  87.6805
 42.6616  7650.9  86.6682
 42.7036  7778.82  86.7751
 42.7456  7729.93  86.8554
 42.7876  7737.49  86.9921
 42.8296  7748.55  86.8898
 42.8716  7677.34  86.654
 42.9136  7698.69  86.5647
 42.9556  7729.33  86.871
 42.9976  7725.24  86.8127
 43.0396  7738.49  86.6131
 43.0816  7653.69  86.5134
 43.1236  7748.49  87.1071
 43.1656  7761.94  87.0111
 43.2076  7631.84  86.3789
 43.2496  7625.92  86.1635
 43.2916  7655.4  86.697
 43.3336  7730.89  86.9609
 43.3756  7682.3  86.4395
 43.4176  7637.17  86.2705
 43.4596  7608.33  85.9608
 43.5016  7626.65  86.4679
 43.5436  7552.59  85.9484
 43.5856  7567.08  86.0596
 43.6276  7604.91  86.1611
 43.6696  7589.6  86.3392
 43.7116  7674.97  86.3224
 43.7536  7683.8  86.858
 43.7956  7545.93  87.261
 43.8376  7685.72  86.6124
 43.8796  7547.97  85.9117
 43.9216  7586.76  86.0491
 43.9636  7636.9  86.4456
 44.0056  7690.52  86.9741
 44.0476  7534.39  85.7232
 44.0896  7455.42  85.6122
 44.1316  7625.18  86.1047
 44.1736  7525.35  85.6591
 44.2156  7505.87  85.4059
 44.2576  7502.95  85.7146
 44.2996  7550.55  85.9438
 44.3416  7475.86  85.2934
 44.3836  7342.81  84.8522
 44.4256  7419.05  84.9406
 44.4676  7372.51  84.8281
 44.5096  7495.85  85.6767
 44.5516  7499.96  85.6652
 44.5936  7429.35  85.2118
 44.6356  7532.91  85.5447
 44.6776  7438.37  85.3159
 44.7196  7505.71  86.0161
 44.7616  7444.93  86.9747
 44.8036  7409.14  85.2073
 44.8456  7456.6  85.6732
 44.8876  7407.01  85.2392
 44.9296  7561.12  85.577
 44.9716  7338.57  84.7266
 45.0136  7432.86  85.208
 45.0556  7478.48  85.4385
 45.0976  7410.92  85.2285
 45.1396  7200.8  83.773
 45.1816  7293.98  84.2451
 45.2236  7451.77  85.0522
 45.2656  7397.15  85.2417
 45.3076  7230.77  84.0649
 45.3496  7298.35  84.7558
 45.3916  7287.46  84.9538
 45.4336  7268.75  84.6868
 45.4756  7217.71  84.2515
 45.5176  7349.11  84.6305
 45.5596  7395.73  85.0231
 45.6016  7258.19  84.6437
 45.6436  7308.94  84.1295
 45.6856  7204.94  84.1746
 45.7276  7105.82  84.891
 45.7696  7312.75  85.7795
 45.8116  7357.63  85.4865
 45.8536  7210.88  84.5241
 45.8956  7307.12  84.4418
 45.9376  7324.22  84.0089
 45.9796  7311.41  84.6128
 46.0216  7211.01  84.3718
 46.0636  7370.55  84.4472
 46.1056  7272.77  83.8673
 46.1476  7178.52  83.9083
 46.1896  7215.36  84.2722
 46.2316  7185.55  83.97
 46.2736  7250.11  84.704
 46.3156  7243.1  84.2592
 46.3576  7286.23  84.7121
 46.3996  7292.14  84.9053
 46.4416  7241.4  84.1798
 46.4836  7180.78  84.1871
 46.5256  7142.17  83.8995
 46.5676  7139.78  83.9991
 46.6096  7291.36  84.8183
 46.6516  7213.46  83.4214
 46.6936  7311.79  84.4724
 46.7356  7215.35  84.0138
 46.7776  7069.3  83.9984
 46.8196  7097.82  83.7602
 46.8616  6903.08  82.5602
 46.9036  7053.65  83.1156
 46.9456  7057.17  82.787
 46.9876  7117.29  83.2181
 47.0296  7127.81  83.966
 47.0716  7067.65  83.4305
 47.1136  7060  83.0691
 47.1556  7084.62  83.0836
 47.1976  7134.55  83.4424
 47.2396  7096.83  83.619
 47.2816  6985.68  82.6791
 47.3236  7000.94  83.1346
 47.3656  7103.13  83.6711
 47.4076  7040.59  83.1045
 47.4496  6992.59  82.9062
 47.4916  7014.33  83.2281
 47.5336  7168.81  83.9582
 47.5756  7186.96  84.1768
 47.6176  7086.91  83.4943
 47.6596  6929.12  82.2732
 47.7016  7189.7  83.6314
 47.7436  7016.85  82.9461
 47.7856  7047.01  83.1503
 47.8276  6960.05  82.6795
 47.8696  7052.77  83.3185
 47.9116  7052.37  83.0326
 47.9536  6990.58  82.6115
 47.9956  6968.77  83.1794
 48.0376  6927.23  82.7045
 48.0796  6997.17  83.2459
 48.1216  7087.44  83.6078
 48.1636  7151.26  83.553
 48.2056  7012.41  83.0052
 48.2476  7012.1  83.3049
 48.2896  6944.73  82.8184
 48.3316  6864.56  82.2849
 48.3736  6986.5  83.0327
 48.4156  6848.85  82.0693
 48.4576  6962.22  83.0315
 48.4996  7030.66  82.901
 48.5416  7007.15  83.0744
 48.5836  6960.47  82.4773
 48.6256  6990.32  82.861
 48.6676  6922.51  82.973
 48.7096  7001.69  82.7267
 48.7516  6942.03  82.5113
 48.7936  6769.31  81.5429
 48.8356  7002.32  82.9827
 48.8776  6895.88  82.9086
 48.9196  6966.19  82.7053
 48.9616  6856.79  82.4331
 49.0036  6938.25  83.2587
 49.0456  6847.99  82.6987
 49.0876  6843.63  82.2178
 49.1296  6805.05  82.1428
 49.1716  6714.25  81.4734
 49.2136  6875.8  82.3814
 49.2556  6853.16  82.2651
 49.2976  6907.47  82.6567
 49.3396  6763.38  81.8489
 49.3816  6957.73  82.4482
 49.4236  6789.22  81.8617
 49.4656  6804.05  81.9767
 49.5076  6810.74  81.764
 49.5496  6820.72  81.8881
 49.5916  6831.14  81.8555
 49.6336  6860.4  82.2463
 49.6756  6745.31  81.7702
 49.7176  6835.44  82.2673
 49.7596  6761.44  81.5891
 49.8016  6810.51  81.8056
 49.8436  6697.15  81.4172
 49.8856  6737.83  81.6637
 49.9276  6712.45  81.6142
 49.9696  6752.49  81.8385
 50.0116  6841.98  82.4944
 50.0536  6679.48  81.4687
 50.0956  6745.03  81.9417
 50.1376  6764.43  81.7611
 50.1796  6708.45  81.685
 50.2216  6695.93  81.6023
 50.2636  6720.82  81.3829
 50.3056  6601.17  80.822
 50.3476  6570.07  80.6567
 50.3896  6679.38  81.2939
 50.4316  6739.97  81.5002
 50.4736  6553.34  80.5731
 50.5156  6699.99  81.4608
 50.5576  6785.01  81.7469
 50.5996  6635.04  81.1072
 50.6416  6652.78  81.1456
 50.6836  6717.25  81.5892
 50.7256  6692.84  81.3781
 50.7676  6719.4  81.8493
 50.8096  6620.58  80.794
 50.8516  6571.33  80.896
 50.8936  6586.76  80.7836
 50.9356  6722.91  81.7149
 50.9776  6626.09  81.2697
 51.0196  6530.56  80.8188
 51.0616  6575.57  80.4332
 51.1036  6662.78  81.3127
 51.1456  6611.66  80.9167
 51.1876  6614.95  80.2916
 51.2296  6561.26  80.5891
 51.2716  6629.17  80.709
 51.3136  6452.56  80.0727
 51.3556  6529  80.1801
 51.3976  6563.1  80.54
 51.4396  6318.52  79.3203
 51.4816  6447.43  79.9811
 51.5236  6536.47  80.6168
 51.5656  6503.38  80.022
 51.6076  6563.39  80.4726
 51.6496  6576.38  80.7403
 51.6916  6596.84  81.2133
 51.7336  6608.8  81.3817
 51.7756  6548.46  80.711
 51.8176  6547.93  80.8126
 51.8596  6595.54  81.1234
 51.9016  6688.16  81.3001
 51.9436  6493.14  81.5397
 51.9856  6461.51  81.7533
 52.0276  6511.4  80.6002
 52.0696  6472.18  80.4161
 52.1116  6547.93  81.0092
 52.1536  6497.28  80.5757
 52.1956  6460.15  79.8197
 52.2376  6540.13  80.4821
 52.2796  6407.43  79.4773
 52.3216  6465.36  80.52
 52.3636  6406.08  79.7374
 52.4056  6484.33  80.0807
 52.4476  6390.88  79.863
 52.4896  6459.42  80.3399
 52.5316  6395.52  79.9808
 52.5736  6480.32  80.2485
 52.6156  6339.69  79.7305
 52.6576  6510.98  80.2656
 52.6996  6268.59  79.703
 52.7416  6375.2  80.2177
 52.7836  6448.37  80.5711
 52.8256  6545.58  80.3923
 52.8676  6371.1  79.8768
 52.9096  6390.72  80.1002
 52.9516  6421.3  80.6627
 52.9936  6291.37  80.2239
 53.0356  6324.86  79.4527
 53.0776  6260.62  79.3017
 53.1196  6261.02  79.4305
 53.1616  6213.25  79.1738
 53.2036  6244.72  79.3243
 53.2456  6225.37  79.3077
 53.2876  6207.12  78.8999
 53.3296  6237.21  79.4114
 53.3716  6305.11  79.5853
 53.4136  6233.39  79.2809
 53.4556  6227.49  79.2772
 53.4976  6167.64  78.7478
 53.5396  6315.13  80.0754
 53.5816  6330.91  79.8052
 53.6236  6250.11  79.6305
 53.6656  6173.63  78.7817
 53.7076  6264.33  79.323
 53.7496  6260.17  79.4096
 53.7916  6216.92  79.2626
 53.8336  6080.58  78.282
 53.8756  6136.94  79.1909
 53.9176  6308.19  79.6448
 53.9596  6241.1  79.9836
 54.0016  6112.89  78.4975
 54.0436  6223.17  79.4153
 54.0856  6348.96  79.6327
 54.1276  6254.97  79.2443
 54.1696  6225.45  79.225
 54.2116  6204.48  78.8521
 54.2536  6214.7  78.7381
 54.2956  6255.34  79.042
 54.3376  6258.86  79.5444
 54.3796  6231.4  79.2721
 54.4216  6240.88  79.3704
 54.4636  6299.68  79.7059
 54.5056  6255.59  79.2522
 54.5476  6125.5  78.7508
 54.5896  6227.61  79.2354
 54.6316  6255.67  79.2756
 54.6736  6269.15  79.4374
 54.7156  6296.1  79.6297
 54.7576  6116.18  78.4807
 54.7996  6202.22  79.1602
 54.8416  6162.36  78.9565
 54.8836  6092.33  78.6147
 54.9256  6179.49  78.9321
 54.9676  6237.23  79.1592
 55.0096  6212.25  79.0692
 55.0516  6225.25  79.3811
 55.0936  6239.17  79.1017
 55.1356  6117.57  78.3727
 55.1776  6209.27  79.214
 55.2196  6183.34  78.8399
 55.2616  6194.38  79.1198
 55.3036  6204.06  79.341
 55.3456  6266.11  79.8869
 55.3876  6187.26  79.1295
 55.4296  6182.74  79.081
 55.4716  6179.67  79.0878
 55.5136  6210.63  79.0459
 55.5556  6154.95  78.7562
 55.5976  6168.93  78.908
 55.6396  6037.65  77.9988
 55.6816  6140.92  78.5559
 55.7236  6188.89  78.9018
 55.7656  6124.5  78.2524
 55.8076  6151.25  78.4059
 55.8496  6151.51  78.7231
 55.8916  6057.73  78.3275
 55.9336  6138.04  78.6597
 55.9756  6077.78  78.1668
 56.0176  6127.52  78.6362
 56.0596  6145.97  78.7388
 56.1016  6129.29  78.642
 56.1436  6179.54  79.2202
 56.1856  6165.31  78.8692
 56.2276  6067.33  78.298
 56.2696  6085.53  78.3942
 56.3116  6062.7  78.6382
 56.3536  6136.9  78.7843
 56.3956  6059.95  78.2794
 56.4376  6121.18  78.705
 56.4796  6086.86  78.2835
 56.5216  6075.43  78.5862
 56.5636  6110.33  78.4036
 56.6056  6007.25  77.9625
 56.6476  6031.21  77.755
 56.6896  6121.47  78.7773
 56.7316  6096.96  78.5246
 56.7736  6117.72  78.6637
 56.8156  6119.42  78.6762
 56.8576  6082.93  78.3854
 56.8996  6141.28  78.6954
 56.9416  6128.73  78.9159
 56.9836  5988  77.5204
 57.0256  5930.51  77.4639
 57.0676  6099.44  78.6737
 57.1096  6131.69  78.6811
 57.1516  6088.15  78.4669
 57.1936  6148.54  78.5974
 57.2356  6098.83  78.6024
 57.2776  6105.58  78.6004
 57.3196  6054.43  78.6316
 57.3616  6061.85  78.1809
 57.4036  6060.79  78.2338
 57.4456  6059.17  78.1822
 57.4876  6128.59  78.4951
 57.5296  6008.84  78.0575
 57.5716  6028.94  78.1814
 57.6136  6055.36  78.174
 57.6556  6031.76  78.1595
 57.6976  6104.64  78.4393
 57.7396  5989.22  78.0792
 57.7816  5972.9  78.3258
 57.8236  6084.7  78.8475
 57.8656  6051.48  78.2906
 57.9076  6070.33  78.4389
 57.9496  6044.18  78.6247
 57.9916  6056.21  78.2138
 58.0336  5971.32  77.9376
 58.0756  6014.16  77.8536
 58.1176  6162.13  78.799
 58.1596  6035.86  78.5593
 58.2016  6182.65  78.7313
 58.2436  6139.84  78.8758
 58.2856  6106.22  78.5782
 58.3276  6065.48  78.684
 58.3696  6035.53  78.2435
 58.4116  6023.13  78.029
 58.4536  6106.29  78.4509
 58.4956  6024.13  78.103
 58.5376  6000.22  77.5218
 58.5796  6032.01  78.1474
 58.6216  6138.33  78.6363
 58.6636  6036.07  78.1997
 58.7056  5996.99  77.8084
 58.7476  6006.47  78.3131
 58.7896  6002.3  77.9309
 58.8316  6101.44  78.5674
 58.8736  6103.46  78.5887
 58.9156  6028.8  78.1492
 58.9576  6135.18  79.1616
 58.9996  6218.72  78.9228
 59.0416  6280.22  79.6777
 59.0836  6163.12  78.8682
 59.1256  5993.49  78.472
 59.1676  6056.58  79.197
 59.2096  6076.07  78.6291
 59.2516  6178.3  78.8641
 59.2936  6151.27  79.0225
 59.3356  6173.49  79.0415
 59.3776  6103.58  78.7626
 59.4196  6113.09  78.7593
 59.4616  6056.36  78.253
 59.5036  6023.64  78.0768
 59.5456  6297.87  79.5209
 59.5876  6110.44  78.5209
 59.6296  6050.14  78.2018
 59.6716  6191.37  79.1679
 59.7136  6192.24  79.1616
 59.7556  5969.74  77.8621
 59.7976  6073.7  78.2785
 59.8396  6212.47  79.0605
 59.8816  6117.66  79.0029
 59.9236  6086.47  78.4445
 59.9656  6048.49  78.4604
 60.0076  6004.55  77.5339
 60.0496  6137.04  78.8927
 60.0916  6174.79  78.5464
 60.1336  6158.14  79.5586
 60.1756  6104.6  80.4028
 60.1996  0.0000000E+00  0.0000000E+00