File: docs/examples/opeando_xrd/IS17_D/Data/IS17_D/17_Db_f00065.xye
# /beamlines/bl04/projects/cycle2025-II/20250340211-lsimonelli/DATA/IS17_D/17_Db_f00065.xye : mythproc.py merge -s 0.006 -l 0.5 -f /beamlines/bl04/inhouse/ff/FlatField/ff_20Nov2024rod8mm60s_17keV.raw -b True -c true -o xye /beamlines/bl04/projects/cycle2025-II/20250340211-lsimonelli/DATA/IS17_D/17_Db_00065.dat
# IsMon = [6761414, 6762487, 6765539]  IsPos = [-1.5000, -2.4885, -3.4988]
# Wave = 0.4962  CalPath /beamlines/bl04/projects/cycle2025-II/20250340211-lsimonelli/DATA/Align/Si_Pos1_25keV_f00001.cal
# Date = 2025-09-24_11:48:32 Dt = 4.8000  Bin = 0.0060  <imon> = 6763147 +/- 1747 (Min/Max) 6761414 / 6765539
# icurr 250.4588  mocoIn 1.7091E-05  mocoOut 0.8021  i15 7.08608e+06  imon 6.76315e+06  i7 4.6667  iEMpd_timer 4.8000  iEMpd_1 3.2041E-08  iEMpd_2 7.8825E-08  iEMpd_3 1.6134E-08  iEMpd_4 4.6920E-08  iEMhp_timer 4.8000  iEMhp_1 4.8933E-06  iEMhp_2 -2.5430E-08  iEMhp_3 -2.4867E-08  iEMhp_4 -2.1359E-08
#      9776
 1.5856  43648.2  214.557
 1.6276  50418.1  226.639
 1.6696  55753.3  237.489
 1.7116  63601.4  254.15
 1.7536  70954.1  267.295
 1.7956  75114.5  275.707
 1.8376  71812.5  270.006
 1.8796  61794  248.629
 1.9216  50933.7  226.619
 1.9636  44114.1  210.57
 2.0056  39889  198.953
 2.0476  37261.7  194.397
 2.0896  35529.5  188.712
 2.1316  35110.7  186.695
 2.1736  33397.5  183.527
 2.2156  33698.1  182.872
 2.2576  32397.6  179.951
 2.2996  31467.6  178.001
 2.3416  31797.1  177.502
 2.3836  31114.7  175.695
 2.4256  30059.3  173.252
 2.4676  29529.8  171.476
 2.5096  29914.1  172.645
 2.5516  31565.3  181.392
 2.5936  80136.4  283.092
 2.6356  29557.1  172.748
 2.6776  28073.7  167.248
 2.7196  27003.8  164.516
 2.7616  26638.1  163.192
 2.8036  26317.8  162.358
 2.8456  26371.1  163.17
 2.8876  25848.5  161.384
 2.9296  25531.2  160.543
 2.9716  25367.5  159.52
 3.0136  25158.4  158.932
 3.0556  24971.7  158.729
 3.0976  25051.3  157.884
 3.1396  24710  157.536
 3.1816  24248.9  155.997
 3.2236  24290.8  156.118
 3.2656  24386.1  155.479
 3.3076  24048.1  155.859
 3.3496  24351.3  156
 3.3916  24736.4  156.803
 3.4336  24939.1  158.041
 3.4756  25372.2  159.345
 3.5176  25886.9  160.706
 3.5596  25536.6  162.61
 3.6016  25919.4  160.878
 3.6436  24887.6  158.748
 3.6856  24746.6  156.601
 3.7276  23588.9  153.965
 3.7696  23730.7  154.407
 3.8116  23163.4  152.65
 3.8536  23349.2  153.189
 3.8956  23297.2  152.838
 3.9376  23332.7  153.227
 3.9796  23174  152.191
 4.0216  23061.6  150.865
 4.0636  23054.8  152.298
 4.1056  23023  151.862
 4.1476  23551.5  153.902
 4.1896  23362.3  153.138
 4.2316  23654.6  153.926
 4.2736  24065  155.055
 4.3156  24036.5  155.183
 4.3576  25141.7  158.633
 4.3996  25101.7  158.771
 4.4416  25923.5  160.931
 4.4836  26669  163.393
 4.5256  26776  164.329
 4.5676  26615.1  164.09
 4.6096  27077  164.527
 4.6516  27526  165.216
 4.6936  27439.1  165.774
 4.7356  28172.1  167.802
 4.7776  27663.3  166.103
 4.8196  27529.5  166.359
 4.8616  26906.5  164.085
 4.9036  26790.3  163.334
 4.9456  26620.8  163.457
 4.9876  25999.7  161.449
 5.0296  26124.7  161.683
 5.0716  26015.6  161.945
 5.1136  26199.8  162.383
 5.1556  26338.8  162.272
 5.1976  30550  174.747
 5.2396  27072.4  164.204
 5.2816  26989.8  164.428
 5.3236  26863.7  163.738
 5.3656  26450.3  163.398
 5.4076  26219  162.817
 5.4496  26200  162.258
 5.4916  26460.9  162.821
 5.5336  26311.6  162.366
 5.5756  26422.8  162.725
 5.6176  26330.8  161.892
 5.6596  26867.5  164.35
 5.7016  26780.8  163.515
 5.7436  27009.2  164.49
 5.7856  26787.2  163.879
 5.8276  27072.6  164.459
 5.8696  27379.2  165.454
 5.9116  27166.2  165.52
 5.9536  27547.4  166.418
 5.9956  27625.1  166.045
 6.0376  27776.7  167.118
 6.0796  27925.9  167.395
 6.1216  27718.3  166.964
 6.1636  28057.3  167.05
 6.2056  28119  167.902
 6.2476  28555.6  168.901
 6.2896  28715.8  169.236
 6.3316  28625.3  169.134
 6.3736  28548.5  168.804
 6.4156  28736.8  169.302
 6.4576  28886.6  169.31
 6.4996  28860.5  169.706
 6.5416  28970.7  170.152
 6.5836  29151.8  170.923
 6.6256  28949.7  169.896
 6.6676  29537  171.184
 6.7096  29777.4  172.737
 6.7516  29871.2  172.663
 6.7936  30547.2  174.001
 6.8356  30850.9  174.96
 6.8776  30530.1  174.854
 6.9196  30657.4  175.621
 6.9616  30939.1  175.843
 7.0036  31385.5  176.786
 7.0456  31445.7  176.254
 7.0876  31554.6  178.159
 7.1296  31364.3  176.841
 7.1716  31150.5  175.782
 7.2136  30971.6  175.06
 7.2556  31233.5  175.956
 7.2976  31422.6  176.985
 7.3396  31146.1  176.424
 7.3816  31061.6  176.403
 7.4236  31428.1  176.731
 7.4656  31836.2  177.331
 7.5076  32054.5  178.101
 7.5496  31681.6  177.586
 7.5916  31933.9  178.343
 7.6336  32392.4  179.511
 7.6756  32335.2  179.197
 7.7176  32878.4  181.028
 7.7596  32701  181.755
 7.8016  35364  191.318
 7.8436  33261.6  182.182
 7.8856  33119.8  181.403
 7.9276  33552.5  182.976
 7.9696  33665.1  183.595
 8.0116  35186.9  186.248
 8.0536  34947.2  185.864
 8.0956  36140.3  190.198
 8.1376  35512.8  188.013
 8.1796  35693.2  189.031
 8.2216  36604.9  190.168
 8.2636  37247.4  192.082
 8.3056  36550.4  191.033
 8.3476  38062.8  194.274
 8.3896  37182.5  192.096
 8.4316  36978.7  191.731
 8.4736  37072.7  191.448
 8.5156  36343.4  189.829
 8.5576  36529.5  191.285
 8.5996  36424.8  189.889
 8.6416  36330.6  190.897
 8.6836  36068.9  190.03
 8.7256  36902.4  191.674
 8.7676  37905.9  197.225
 8.8096  38539.7  196.101
 8.8516  37439.3  192.916
 8.8936  37622  193.277
 8.9356  36987.5  191.98
 8.9776  36521.5  190.838
 9.0196  37010.1  191.792
 9.0616  36965.1  191.162
 9.1036  37273.3  193.147
 9.1456  35911.3  188.909
 9.1876  35902.3  188.835
 9.2296  35525.1  187.274
 9.2716  35441.4  187.104
 9.3136  35702  187.782
 9.3556  36007.6  188.563
 9.3976  34544.2  185.201
 9.4396  34766.3  185.704
 9.4816  34408.6  184.61
 9.5236  34327.8  184.274
 9.5656  33829.3  183.296
 9.6076  33297.6  182.362
 9.6496  33434.7  182.628
 9.6916  33124.5  181.719
 9.7336  33651.1  182.949
 9.7756  33375.4  183.44
 9.8176  33141.8  182.348
 9.8596  33103.2  180.687
 9.9016  32528.5  179.117
 9.9436  32229.3  178.022
 9.9856  32263.7  178.566
 10.0276  31824.8  178.42
 10.0696  32118.5  178.264
 10.1116  31271.7  176.18
 10.1536  31321.8  175.979
 10.1956  30627.2  174.119
 10.2376  30229.5  172.498
 10.2796  30454.9  173.252
 10.3216  30003.1  172.091
 10.3636  29949.7  172.122
 10.4056  30788.8  174.922
 10.4476  31098.5  175.406
 10.4896  32584.7  178.965
 10.5316  31218.3  175.572
 10.5736  29326.2  170.923
 10.6156  29215.7  170.348
 10.6576  31110.2  174.298
 10.6996  28665.1  168.013
 10.7416  28309.6  167.181
 10.7836  28031.5  167.021
 10.8256  27414.7  165.592
 10.8676  27313.8  164.837
 10.9096  27335.9  164.931
 10.9516  27285.1  163.72
 10.9936  27339.2  164.095
 11.0356  27175.6  164.217
 11.0776  27506.9  164.531
 11.1196  27268.8  164.597
 11.1616  26297.2  161.309
 11.2036  26730.2  162.48
 11.2456  27394  165.215
 11.2876  26394.9  161.897
 11.3296  26005.7  160.611
 11.3716  26498.8  161.845
 11.4136  26546.9  162.853
 11.4556  26708.4  162.998
 11.4976  27511.4  164.404
 11.5396  27181.6  163.584
 11.5816  26405.6  161.669
 11.6236  25779.4  160.193
 11.6656  25836.9  159.316
 11.7076  25038.9  157.656
 11.7496  24924  161.271
 11.7916  25171.2  157.322
 11.8336  24385.3  155.758
 11.8756  24724.8  156.364
 11.9176  24397.2  155.002
 11.9596  24430.4  155.274
 12.0016  24242.6  155.441
 12.0436  24204.2  154.775
 12.0856  23946.6  154.453
 12.1276  23840.2  154.053
 12.1696  23889.6  153.333
 12.2116  24069.4  153.908
 12.2536  24909.1  157.379
 12.2956  23836.3  153.315
 12.3376  24168  154.594
 12.3796  23838.8  154.018
 12.4216  24100.5  154.051
 12.4636  24212  155.35
 12.5056  23715.7  153.02
 12.5476  23944.5  153.268
 12.5896  23560.7  152.669
 12.6316  23682.6  153.223
 12.6736  23565.3  153.329
 12.7156  23865.5  154.145
 12.7576  23661.8  153.744
 12.7996  23740.3  152.638
 12.8416  23882.1  154.153
 12.8836  24268.6  155.214
 12.9256  24244.8  154.165
 12.9676  24072.8  154.025
 13.0096  24252.6  155.723
 13.0516  24088.9  154.221
 13.0936  24142  154.517
 13.1356  24408.7  154.616
 13.1776  24182.7  154.914
 13.2196  24240.5  154.745
 13.2616  23876.8  153.888
 13.3036  24220.6  155.135
 13.3456  23865.7  153.952
 13.3876  24390.2  155.127
 13.4296  24068.1  154.269
 13.4716  24380.8  154.883
 13.5136  24186.1  154.402
 13.5556  24321.4  155.457
 13.5976  24431.6  155.98
 13.6396  24378.6  155.166
 13.6816  24500.6  155.912
 13.7236  24896.6  156.865
 13.7656  26256.2  161.539
 13.8076  27475.6  163.898
 13.8496  25911.2  160.008
 13.8916  24702.6  157.188
 13.9336  23893.4  153.862
 13.9756  23960.8  153.454
 14.0176  23538.6  152.783
 14.0596  23979.7  154.131
 14.1016  23495.5  152.998
 14.1436  23605.8  152.494
 14.1856  23155.8  151.32
 14.2276  23084.4  151.569
 14.2696  23025.5  151.226
 14.3116  22468.2  149.287
 14.3536  22184.5  148.509
 14.3956  22252.2  148.465
 14.4376  22376.8  148.67
 14.4796  22420.6  148.809
 14.5216  21916.9  147.914
 14.5636  22063.1  147.979
 14.6056  21932.1  147.094
 14.6476  21791.2  145.869
 14.6896  21467.9  145.323
 14.7316  21177.9  145.372
 14.7736  20945.5  143.718
 14.8156  20816.2  143.298
 14.8576  20833.1  143.215
 14.8996  20456  143.101
 14.9416  20052  141.691
 14.9836  19986.9  141.44
 15.0256  19493.5  138.61
 15.0676  19555.4  139.138
 15.1096  19416.7  138.384
 15.1516  19159.3  138.024
 15.1936  19026.9  136.973
 15.2356  18775  136.338
 15.2776  18929.7  136.491
 15.3196  18470.2  135.805
 15.3616  18263.6  134.8
 15.4036  18304.1  134.819
 15.4456  18652.2  135.743
 15.4876  18273.8  134.048
 15.5296  18098.5  133.685
 15.5716  17777.7  132.103
 15.6136  17861.4  132.742
 15.6556  18393.5  133.94
 15.6976  17987.9  132.533
 15.7396  17718.8  132.131
 15.7816  17588.8  131.168
 15.8236  17284.2  130.704
 15.8656  17139.8  129.961
 15.9076  17361.2  130.621
 15.9496  18095  136.196
 15.9916  17439.6  134.111
 16.0336  17651.3  131.787
 16.0756  17458.8  131.371
 16.1176  17152.6  130.134
 16.1596  16906.7  130.539
 16.2016  16803.7  128.905
 16.2436  16824.2  129.366
 16.2856  16612.7  128.067
 16.3276  16432.4  127.816
 16.3696  16732.3  128.788
 16.4116  16605.3  128.756
 16.4536  16711.3  128.964
 16.4956  16954.2  129.643
 16.5376  16588.8  128.419
 16.5796  16401.3  127.059
 16.6216  16494  127.674
 16.6636  16301.5  127.118
 16.7056  16329  127.094
 16.7476  16570.8  127.554
 16.7896  16560.9  128.268
 16.8316  16456.6  127.84
 16.8736  16563.4  128.513
 16.9156  16497.2  128.585
 16.9576  16146.6  127.997
 16.9996  16040.8  128.046
 17.0416  16204.5  127.099
 17.0836  16281.7  127.167
 17.1256  16009.3  126.099
 17.1676  16159  126.647
 17.2096  15988.6  125.881
 17.2516  15944.1  125.797
 17.2936  15669.4  124.757
 17.3356  15524.1  124.16
 17.3776  15519.7  124.334
 17.4196  15344.5  123.33
 17.4616  15536.9  124.008
 17.5036  15517.5  124.295
 17.5456  14986.4  122.786
 17.5876  15010.5  121.93
 17.6296  15362  123.163
 17.6716  15121  122.791
 17.7136  15503.9  124.471
 17.7556  14955.7  122.546
 17.7976  14876.9  121.815
 17.8396  14865.4  121.415
 17.8816  14600  120.879
 17.9236  14688  121.04
 17.9656  14797.8  122.164
 18.0076  15035.3  122.56
 18.0496  15389.5  123.114
 18.0916  17262  130.987
 18.1336  16062.8  126.455
 18.1756  15231.4  122.679
 18.2176  15101.6  122.373
 18.2596  14647.6  120.247
 18.3016  14868.3  121.41
 18.3436  15141.5  122.765
 18.3856  14911.2  121.727
 18.4276  14517.9  119.796
 18.4696  14474.8  119.698
 18.5116  14645.5  120.685
 18.5536  14442.3  120.202
 18.5956  14285.9  119.11
 18.6376  14351.7  119.796
 18.6796  14323.4  119.005
 18.7216  14338.9  119.614
 18.7636  14167.7  118.834
 18.8056  13978.9  117.962
 18.8476  13929.5  118.371
 18.8896  13928.6  117.714
 18.9316  14021.1  117.922
 18.9736  14071.3  117.992
 19.0156  13973.9  118.002
 19.0576  14277.2  118.11
 19.0996  14108.2  118.128
 19.1416  13960.9  117.909
 19.1836  13750  116.622
 19.2256  13685.7  116.563
 19.2676  13908.1  117.598
 19.3096  13777.2  117.282
 19.3516  14024.6  118.113
 19.3936  13737.9  116.972
 19.4356  13895.2  117.527
 19.4776  13899.5  117.631
 19.5196  13800.3  117.065
 19.5616  13850.3  117.535
 19.6036  13730.3  116.523
 19.6456  13874.4  117.25
 19.6876  14089.1  117.782
 19.7296  14174.8  118.613
 19.7716  14009.5  117.945
 19.8136  14305.5  119.526
 19.8556  14476.3  119.722
 19.8976  14487.1  119.826
 19.9396  14848.3  120.881
 19.9816  14627.1  120.233
 20.0236  14635.2  120.46
 20.0656  13991.5  117.787
 20.1076  13887  117.818
 20.1496  13655.1  116.823
 20.1916  13889.8  117.295
 20.2336  13573.7  115.914
 20.2756  13455.4  115.838
 20.3176  13392.9  115.334
 20.3596  13244.3  114.672
 20.4016  13365.1  114.985
 20.4436  13254.2  115.084
 20.4856  13279  114.973
 20.5276  13216.6  115.165
 20.5696  13103.2  114.227
 20.6116  13108.5  114.419
 20.6536  12908.6  113.118
 20.6956  13091.7  113.996
 20.7376  12959.4  113.627
 20.7796  12947  113.267
 20.8216  13194  114.058
 20.8636  13316.6  114.965
 20.9056  13493.6  115.658
 20.9476  13250.1  114.462
 20.9896  13450.4  115.186
 21.0316  13153.6  113.802
 21.0736  13256.9  114.772
 21.1156  13093.1  114.221
 21.1576  13139.1  114.455
 21.1996  12916  113.465
 21.2416  13074.9  113.995
 21.2836  13019  113.727
 21.3256  12882.9  113.207
 21.3676  13033.4  113.395
 21.4096  13029.8  113.755
 21.4516  12712.8  112.182
 21.4936  12602.8  111.97
 21.5356  12834.2  112.936
 21.5776  12800  112.618
 21.6196  12765.9  112.508
 21.6616  12806.3  112.768
 21.7036  12753.4  112.302
 21.7456  12677.9  112.051
 21.7876  12667.5  111.765
 21.8296  12510.8  110.922
 21.8716  12691.7  111.943
 21.9136  12720.3  112.27
 21.9556  12835  112.451
 21.9976  12581.9  111.368
 22.0396  12661.5  111.973
 22.0816  12544.5  111.968
 22.1236  12788.9  112.525
 22.1656  12463.1  111.268
 22.2076  12250.3  109.725
 22.2496  12361.1  110.256
 22.2916  12357.3  110.122
 22.3336  12355.7  110.809
 22.3756  12370.6  110.618
 22.4176  12187.8  109.65
 22.4596  11957.6  109.184
 22.5016  12339.8  110.421
 22.5436  12391.4  110.53
 22.5856  12513.7  111.325
 22.6276  12449.5  111.177
 22.6696  12321.8  110.949
 22.7116  12348.1  110.589
 22.7536  12300.6  110.348
 22.7956  12323.8  109.799
 22.8376  12054.8  109.095
 22.8796  12217.4  109.635
 22.9216  12363.8  110.827
 22.9636  12214.5  109.324
 23.0056  12139.4  109.114
 23.0476  12189.3  109.906
 23.0896  12550.5  110.902
 23.1316  12464.4  110.955
 23.1736  12400.8  113.6
 23.2156  12619.4  111.972
 23.2576  12648.3  112.237
 23.2996  12318.5  110.532
 23.3416  12696.9  112.757
 23.3836  12535.8  111.271
 23.4256  12746.1  112.325
 23.4676  12599.1  111.365
 23.5096  12510.2  111.63
 23.5516  12492.8  110.846
 23.5936  12653.6  112.476
 23.6356  12801.6  112.791
 23.6776  12361  111.037
 23.7196  12452.9  111.252
 23.7616  12540.1  111.334
 23.8036  12550.3  111.443
 23.8456  12292.5  109.84
 23.8876  12352.3  110.471
 23.9296  12217  110.345
 23.9716  12143.6  109.225
 24.0136  12258.4  110.639
 24.0556  12353.9  110.782
 24.0976  12124.2  109.568
 24.1396  12005  111.64
 24.1816  12106.5  110.862
 24.2236  12192.9  110.547
 24.2656  12010.8  109.193
 24.3076  12079.1  109.78
 24.3496  11909.4  108.866
 24.3916  12276.9  110.606
 24.4336  11967.7  109.391
 24.4756  12051.7  109.673
 24.5176  11897.4  108.595
 24.5596  11891.8  108.895
 24.6016  11701.5  108.117
 24.6436  11911.7  108.587
 24.6856  11758.8  107.632
 24.7276  11656.4  107.478
 24.7696  11687.7  107.731
 24.8116  11478  106.944
 24.8536  11549.4  107.282
 24.8956  11523.9  106.896
 24.9376  11651.9  107.668
 24.9796  11256.4  105.938
 25.0216  11346.8  106.478
 25.0636  11517.1  106.924
 25.1056  11162.6  105.693
 25.1476  11223.3  107.864
 25.1896  11186.6  106.207
 25.2316  11243.2  105.739
 25.2736  11246.2  105.42
 25.3156  11142.3  104.998
 25.3576  10973.7  104.63
 25.3996  11091  105.173
 25.4416  11117.5  105.277
 25.4836  10933  104.916
 25.5256  11073.1  104.951
 25.5676  11086.7  104.742
 25.6096  10821.5  104.054
 25.6516  10889.5  103.886
 25.6936  11061.6  105.021
 25.7356  10935.2  104.552
 25.7776  11000.4  104.531
 25.8196  10792  103.705
 25.8616  10825.2  103.792
 25.9036  11038.7  104.268
 25.9456  10898.6  104.199
 25.9876  10884.4  104.051
 26.0296  11055.3  104.619
 26.0716  10998.4  104.686
 26.1136  10937.3  104.325
 26.1556  10980.5  103.911
 26.1976  10683.2  103.42
 26.2396  10851.9  103.635
 26.2816  10856.1  104.02
 26.3236  10837.4  104.077
 26.3656  10987.7  104.528
 26.4076  10720.9  103.452
 26.4496  11039.5  104.559
 26.4916  11025.1  104.377
 26.5336  11360  106.316
 26.5756  11656.5  107.569
 26.6176  10912.3  104.094
 26.6596  10807.5  103.911
 26.7016  10648.5  102.904
 26.7436  10755.7  103.549
 26.7856  10419.5  101.905
 26.8276  10583.2  102.671
 26.8696  10553.1  102.395
 26.9116  10471.2  101.932
 26.9536  10550.5  102.362
 26.9956  10361.5  101.477
 27.0376  10536.5  102.559
 27.0796  10480.7  102.086
 27.1216  10611.2  102.712
 27.1636  10420.8  101.953
 27.2056  10328.2  101.381
 27.2476  10342.1  101.435
 27.2896  10269.5  101.196
 27.3316  10315.4  101.148
 27.3736  10107.4  100.382
 27.4156  10341.9  101.378
 27.4576  10293  101.362
 27.4996  10443.6  101.707
 27.5416  10214.8  100.895
 27.5836  10268.4  100.993
 27.6256  10188.6  100.775
 27.6676  10202.7  100.834
 27.7096  10258.6  100.995
 27.7516  10386.9  101.771
 27.7936  10659  103.249
 27.8356  10475.8  101.96
 27.8776  10498.7  102.146
 27.9196  10269.6  100.871
 27.9616  10198.1  100.726
 28.0036  10150.9  100.446
 28.0456  10013.9  99.9076
 28.0876  10045.8  100.152
 28.1296  9972.83  99.6204
 28.1716  10063.1  100.095
 28.2136  10055.5  100.026
 28.2556  10098.6  100.354
 28.2976  9902.13  99.3658
 28.3396  9943.24  99.3653
 28.3816  9971.55  99.4742
 28.4236  9860.38  99.0719
 28.4656  9849.43  99.0605
 28.5076  9852.7  98.7178
 28.5496  9852.96  98.9781
 28.5916  9833.85  98.6969
 28.6336  9854.64  99.1426
 28.6756  9903.9  98.585
 28.7176  9739.69  98.3148
 28.7596  9781.46  98.4226
 28.8016  9835.72  98.7311
 28.8436  9675.12  98.1545
 28.8856  9762.03  98.4488
 28.9276  9894.32  99.3589
 28.9696  9649.56  97.7732
 29.0116  9538.85  97.4029
 29.0536  9542.66  97.6314
 29.0956  9719.82  98.2342
 29.1376  9780.6  98.5154
 29.1796  9641.25  97.8613
 29.2216  9538.41  97.1739
 29.2636  9705.17  98.0172
 29.3056  9544.77  97.0693
 29.3476  9611.45  97.9323
 29.3896  9589.82  97.9299
 29.4316  9418.22  96.3878
 29.4736  9500.39  96.8661
 29.5156  9322.43  95.8801
 29.5576  9250.37  96.2373
 29.5996  9396.58  96.2603
 29.6416  9418.89  96.4922
 29.6836  9424.87  96.4517
 29.7256  9381.56  96.7879
 29.7676  9412.28  96.6053
 29.8096  9436.53  96.6784
 29.8516  9338.87  96.5032
 29.8936  9237.94  96.0738
 29.9356  9346.04  96.3925
 29.9776  9279.58  96.2008
 30.0196  9316.45  95.7896
 30.0616  9309.85  96.1228
 30.1036  9266.82  95.7286
 30.1456  9198.03  95.5925
 30.1876  9307.82  96.1531
 30.2296  9176.48  95.4154
 30.2716  9266.66  95.5271
 30.3136  9295.08  96.5226
 30.3556  9423.05  97.1862
 30.3976  9352.67  98.3129
 30.4396  9640.53  97.1627
 30.4816  9559.17  96.3527
 30.5236  9546.2  96.2884
 30.5656  9555.86  96.9937
 30.6076  9402.71  95.9727
 30.6496  9582.66  96.9393
 30.6916  9361.2  95.9177
 30.7336  9348.46  95.9869
 30.7756  9304.37  95.8462
 30.8176  9339.47  95.9533
 30.8596  9384.12  95.9556
 30.9016  9396.4  95.8847
 30.9436  9399.94  96.1246
 30.9856  9572.54  97.1298
 31.0276  9292.17  95.3203
 31.0696  9249.61  95.6594
 31.1116  9247.39  95.6141
 31.1536  9168.47  95.0774
 31.1956  9399.3  96.3693
 31.2376  9124.34  94.9639
 31.2796  9276.19  95.2875
 31.3216  9262.19  95.1512
 31.3636  9250.21  95.7876
 31.4056  9249.14  97.0967
 31.4476  9323.67  95.392
 31.4896  9215.51  95.3308
 31.5316  9343.17  95.4397
 31.5736  9733.47  97.1968
 31.6156  9500.65  96.0326
 31.6576  9296.95  95.0842
 31.6996  9597.55  96.2694
 31.7416  9479.11  96.6296
 31.7836  9356.94  95.1432
 31.8256  9245.59  94.9135
 31.8676  9303.4  95.1279
 31.9096  9091.13  94.2533
 31.9516  9176.07  95.0066
 31.9936  9088.08  94.3716
 32.0356  9180.61  94.8926
 32.0776  9402.72  95.9431
 32.1196  9304.88  95.4571
 32.1616  9243.58  94.677
 32.2036  9156.08  94.7406
 32.2456  9218.43  95.443
 32.2876  9009.82  93.6905
 32.3296  9133.26  94.4607
 32.3716  8923.51  93.4783
 32.4136  8893.78  93.522
 32.4556  9176.79  94.4397
 32.4976  9098.83  93.9322
 32.5396  8911.97  92.9856
 32.5816  8886.26  92.973
 32.6236  8896.34  93.0904
 32.6656  9071.7  94.5394
 32.7076  8905.51  93.3383
 32.7496  8851.89  92.7324
 32.7916  8978.69  93.3485
 32.8336  8905.49  93.0646
 32.8756  8983.71  93.1843
 32.9176  8864.64  93.0561
 32.9596  9003.46  93.8484
 33.0016  8918.84  93.1861
 33.0436  8854.38  93.0141
 33.0856  8791.25  92.7796
 33.1276  8665.43  91.8504
 33.1696  8885.08  92.8281
 33.2116  8956.19  93.4417
 33.2536  8984.16  93.5783
 33.2956  8886.62  93.1561
 33.3376  8807.41  92.5603
 33.3796  8852.02  92.9287
 33.4216  8837.75  92.4405
 33.4636  8892.1  92.8887
 33.5056  8703.95  92.1411
 33.5476  8811.28  92.682
 33.5896  8958.42  93.2219
 33.6316  8754.99  92.4906
 33.6736  8603.13  91.9278
 33.7156  8557.98  91.7138
 33.7576  8793.04  92.6116
 33.7996  8823.39  92.5303
 33.8416  8510.63  91.0631
 33.8836  8520.92  90.8959
 33.9256  8690.69  91.8526
 33.9676  8830.99  92.4886
 34.0096  8596.39  91.565
 34.0516  8550.56  90.9584
 34.0936  8685.66  91.9485
 34.1356  8745.22  92.0014
 34.1776  8566.64  91.0544
 34.2196  8629.56  91.5667
 34.2616  8463.18  90.8213
 34.3036  8701.88  92.3415
 34.3456  8566.85  91.3792
 34.3876  8649.16  91.8694
 34.4296  8546.2  90.924
 34.4716  8588.19  91.3035
 34.5136  8626.49  91.6915
 34.5556  8419.76  90.8425
 34.5976  8648.41  91.9182
 34.6396  8586.84  91.267
 34.6816  8567.49  91.2736
 34.7236  8553.47  90.9775
 34.7656  8571.95  91.281
 34.8076  8443.92  90.9254
 34.8496  8458.38  90.8531
 34.8916  8614.84  91.5464
 34.9336  8502.4  90.9323
 34.9756  8631.59  91.5725
 35.0176  8652.83  92.1866
 35.0596  8611.53  91.7846
 35.1016  8504.99  90.9669
 35.1436  8716.1  91.7789
 35.1856  8469  90.5912
 35.2276  8417.37  90.49
 35.2696  8563.08  91.459
 35.3116  8442.71  90.9168
 35.3536  8515.93  91.0466
 35.3956  8384.97  90.0298
 35.4376  8541.9  91.4355
 35.4796  8501.3  91.2558
 35.5216  8389.62  90.6226
 35.5636  8239.05  90.5388
 35.6056  8385.76  90.3632
 35.6476  8366.55  90.1578
 35.6896  8481.3  90.9476
 35.7316  8339.75  90.0849
 35.7736  8411.89  90.666
 35.8156  8377.57  90.476
 35.8576  8423.99  90.9806
 35.8996  8407.1  90.8494
 35.9416  8363.66  90.1071
 35.9836  8323.22  90.3519
 36.0256  8494.6  91.195
 36.0676  8507.48  90.7762
 36.1096  8311.99  90.1026
 36.1516  8465.55  90.8289
 36.1936  8490.88  90.785
 36.2356  8358.33  90.7413
 36.2776  8414.95  90.5099
 36.3196  8392.87  90.0718
 36.3616  8337.8  89.904
 36.4036  8307.24  89.809
 36.4456  8436.76  90.7132
 36.4876  8256.26  89.6683
 36.5296  8332.12  90.1302
 36.5716  8260.46  90.5122
 36.6136  8408.84  90.0956
 36.6556  8147.97  88.8844
 36.6976  8122.74  89.241
 36.7396  8017.55  88.3987
 36.7816  8000.31  88.6702
 36.8236  8124.04  89.2789
 36.8656  8035.11  88.8533
 36.9076  8088.7  89.1591
 36.9496  7929.82  88.1397
 36.9916  7951.79  87.8988
 37.0336  8083.77  88.9336
 37.0756  8101.63  88.8269
 37.1176  7912.91  88.0537
 37.1596  7876.59  87.8568
 37.2016  7914.51  88.2447
 37.2436  8026.02  88.2268
 37.2856  7985.53  88.2528
 37.3276  7957.27  87.4699
 37.3696  7955.65  88.3337
 37.4116  8073.54  88.8895
 37.4536  7881.19  87.6954
 37.4956  7881.82  87.7406
 37.5376  8126.63  90.6881
 37.5796  7999.13  89.8969
 37.6216  8007.36  88.2208
 37.6636  8125.15  88.7563
 37.7056  8035.88  88.4563
 37.7476  8171.95  88.7478
 37.7896  7998.3  88.298
 37.8316  8017.92  88.5711
 37.8736  8093.47  88.5002
 37.9156  7966.44  87.8057
 37.9576  8039.32  88.1183
 37.9996  7947.95  87.3305
 38.0416  7956.83  88.176
 38.0836  8047.83  88.5875
 38.1256  8041.09  88.5248
 38.1676  7857.89  87.6245
 38.2096  8148.26  88.8475
 38.2516  8057.74  88.5547
 38.2936  8105.32  88.6312
 38.3356  7979.89  87.864
 38.3776  7903.86  87.6966
 38.4196  8035.51  88.2769
 38.4616  7999.33  88.328
 38.5036  8107.52  88.7676
 38.5456  7815.66  87.9698
 38.5876  7878.35  88.3491
 38.6296  7928.4  87.6029
 38.6716  7913.9  87.3349
 38.7136  7845.65  86.9014
 38.7556  7847.39  87.4136
 38.7976  7983.27  88.096
 38.8396  7885.66  88.0161
 38.8816  7986.67  88.372
 38.9236  7984.91  88.1567
 38.9656  7889.11  87.5372
 39.0076  7918.3  87.1065
 39.0496  8155.63  88.9642
 39.0916  7940.59  87.4276
 39.1336  7959.41  87.9353
 39.1756  7910.61  87.7293
 39.2176  7826.5  87.7999
 39.2596  7845.54  87.8264
 39.3016  7997.63  88.2566
 39.3436  7880.07  88.0136
 39.3856  7965.88  87.9294
 39.4276  8059.19  88.9643
 39.4696  7960.89  88.0401
 39.5116  7887.87  88.1451
 39.5536  7921.02  88.734
 39.5956  7915.04  87.8202
 39.6376  7927.72  87.8818
 39.6796  7935.9  87.6777
 39.7216  7887.55  87.5107
 39.7636  7908.16  88.1698
 39.8056  7980  88.3746
 39.8476  7896.88  88.1606
 39.8896  7902.26  87.8269
 39.9316  7849.36  87.7784
 39.9736  7946.03  87.8908
 40.0156  7936.57  87.6712
 40.0576  7852.83  87.5533
 40.0996  7888.49  86.9409
 40.1416  7858.93  87.5684
 40.1836  7910.56  87.7494
 40.2256  7944.78  87.9632
 40.2676  7769.94  87.1738
 40.3096  7965.71  88.1174
 40.3516  7877.48  87.7411
 40.3936  8040.05  88.1967
 40.4356  7918.17  87.7339
 40.4776  7983.68  88.3165
 40.5196  7954.62  88.4646
 40.5616  8102.17  88.9234
 40.6036  7826.03  87.6459
 40.6456  7939.28  87.8768
 40.6876  8026.18  88.354
 40.7296  7839.83  87.4611
 40.7716  7905.05  87.9358
 40.8136  7803.36  87.3261
 40.8556  8063.46  88.9033
 40.8976  7927.02  88.0645
 40.9396  7963.67  88.6168
 40.9816  7957.9  87.8791
 41.0236  7909.47  87.3852
 41.0656  7926.13  88.0201
 41.1076  7899.77  87.6428
 41.1496  7910.05  87.6042
 41.1916  7774.42  87.1757
 41.2336  7916.72  87.9627
 41.2756  7930.45  87.6397
 41.3176  7867.79  87.9076
 41.3596  7800.84  87.2639
 41.4016  7944.33  88.3224
 41.4436  7928.57  88.0192
 41.4856  7896.58  88.0091
 41.5276  7897.99  88.0331
 41.5696  7976.48  88.0841
 41.6116  7936.26  88.268
 41.6536  7884.27  87.8318
 41.6956  8074.29  88.8687
 41.7376  7906.19  88.0462
 41.7796  7738.24  87.0343
 41.8216  7921.54  88.245
 41.8636  7894.03  88.0348
 41.9056  7874.25  87.7118
 41.9476  7815.39  87.6199
 41.9896  7998.42  88.3082
 42.0316  7946.42  88.1074
 42.0736  8055.27  88.8388
 42.1156  7967.22  88.1589
 42.1576  7897.35  87.8778
 42.1996  7963.58  88.3737
 42.2416  7893.7  87.5754
 42.2836  7964.27  88.0859
 42.3256  7786.87  87.1949
 42.3676  8002.35  88.2087
 42.4096  7872.73  87.4549
 42.4516  7909.97  87.7528
 42.4936  7833.41  87.386
 42.5356  7769.9  87.1696
 42.5776  7915.92  87.9234
 42.6196  7909.63  87.9501
 42.6616  7728.65  87.1086
 42.7036  7850  87.1727
 42.7456  7920.89  87.923
 42.7876  7889.16  87.8228
 42.8296  7840.44  87.3992
 42.8716  7681.38  86.6741
 42.9136  7692.48  86.4805
 42.9556  7866.9  87.6373
 42.9976  7734.15  86.8562
 43.0396  7755.58  86.7119
 43.0816  7871.19  87.7398
 43.1236  7813.97  87.4684
 43.1656  7709.39  86.7098
 43.2076  7772.83  87.1679
 43.2496  7767.68  86.9651
 43.2916  7700.08  86.9474
 43.3336  7753.85  87.0769
 43.3756  7719.02  86.6483
 43.4176  7589.1  85.9873
 43.4596  7604.21  85.9356
 43.5016  7642.3  86.5452
 43.5436  7750.52  87.0662
 43.5856  7705.3  86.8375
 43.6276  7771.87  87.1035
 43.6696  7649.44  86.5572
 43.7116  7765.74  86.8275
 43.7536  7792.03  87.4719
 43.7956  7644.49  87.8267
 43.8376  7543.96  85.8031
 43.8796  7500.93  85.6321
 43.9216  7604.47  86.1416
 43.9636  7579.61  86.1011
 44.0056  7490.73  85.8289
 44.0476  7560.41  85.8564
 44.0896  7487.95  85.7882
 44.1316  7395.82  84.9316
 44.1736  7462.47  85.2857
 44.2156  7518.29  85.4699
 44.2576  7489.03  85.6206
 44.2996  7578.32  86.1069
 44.3416  7498.51  85.4062
 44.3836  7455.14  85.4818
 44.4256  7526.69  85.5392
 44.4676  7361.54  84.7504
 44.5096  7522.57  85.8199
 44.5516  7507.22  85.6989
 44.5936  7318.16  84.5645
 44.6356  7524.54  85.4846
 44.6776  7448.11  85.3607
 44.7196  7394.29  85.3584
 44.7616  7553.31  87.6092
 44.8036  7639.55  86.7206
 44.8456  7544.41  86.1833
 44.8876  7577.19  86.2148
 44.9296  7676.69  86.2181
 44.9716  7553.93  85.9582
 45.0136  7611.34  86.2149
 45.0556  7574.66  86.1035
 45.0976  7604.07  86.3253
 45.1396  7532.21  85.6586
 45.1816  7421.38  84.9722
 45.2236  7576.83  85.764
 45.2656  7441.69  85.4853
 45.3076  7528.2  85.7699
 45.3496  7572.28  86.3184
 45.3916  7581.13  86.651
 45.4336  7517.77  86.1369
 45.4756  7508.7  85.927
 45.5176  7537.92  85.7198
 45.5596  7670.2  86.5842
 45.6016  7558.22  86.3768
 45.6436  7474.44  85.0661
 45.6856  7510.66  85.9415
 45.7276  7418.46  86.7091
 45.7696  7511.4  86.9439
 45.8116  7500.22  86.3064
 45.8536  7312.25  85.1192
 45.8956  7465  85.358
 45.9376  7571.01  85.4222
 45.9796  7561.53  86.0724
 46.0216  7612.15  86.692
 46.0636  7733.93  86.495
 46.1056  7539.43  85.4046
 46.1476  7538.23  85.9946
 46.1896  7564.42  86.2882
 46.2316  7585.66  86.2772
 46.2736  7493.16  85.9615
 46.3156  7422.01  85.3026
 46.3576  7550.11  86.2374
 46.3996  7515.15  86.1896
 46.4416  7558.75  85.9982
 46.4836  7329.04  85.0604
 46.5256  7543.79  86.2359
 46.5676  7474.31  85.9546
 46.6096  7435.59  85.6402
 46.6516  7495.13  85.0353
 46.6936  7650.65  86.4236
 46.7356  7580.2  86.1213
 46.7776  7365.83  85.7426
 46.8196  7376.06  85.5445
 46.8616  7328.1  85.0593
 46.9036  7333.58  84.7526
 46.9456  7361.58  84.5483
 46.9876  7301.56  84.2873
 47.0296  7403.2  85.5675
 47.0716  7285.22  84.707
 47.1136  7428.75  85.2159
 47.1556  7411.62  84.9814
 47.1976  7450.99  85.3603
 47.2396  7451.46  85.6856
 47.2816  7321.78  84.6427
 47.3236  7351.09  85.1814
 47.3656  7408.99  85.4486
 47.4076  7402.96  85.1401
 47.4496  7334.15  84.9133
 47.4916  7316.26  85.0031
 47.5336  7494.06  85.8426
 47.5756  7503.49  86.0135
 47.6176  7327.05  84.8853
 47.6596  7371.14  84.8634
 47.7016  7475.98  85.276
 47.7436  7458.72  85.5269
 47.7856  7474.14  85.6327
 47.8276  7427.42  85.4175
 47.8696  7449.25  85.6234
 47.9116  7397.15  85.0374
 47.9536  7381.73  84.8852
 47.9956  7235.98  84.7596
 48.0376  7310.46  84.9644
 48.0796  7412.47  85.6699
 48.1216  7312.02  84.9225
 48.1636  7441.19  85.2375
 48.2056  7400.39  85.2707
 48.2476  7434.77  85.7835
 48.2896  7427.98  85.6422
 48.3316  7461.99  85.7818
 48.3736  7458  85.7848
 48.4156  7398.37  85.2927
 48.4576  7315.44  85.1118
 48.4996  7546.98  85.8891
 48.5416  7368.28  85.1973
 48.5836  7389.57  84.9901
 48.6256  7362.02  85.0408
 48.6676  7403.51  85.8081
 48.7096  7361.52  84.805
 48.7516  7338.31  84.8367
 48.7936  7231.79  84.279
 48.8356  7398.59  85.2984
 48.8776  7478.43  86.2462
 48.9196  7495.03  85.7814
 48.9616  7382.3  85.5188
 49.0036  7381.08  85.8745
 49.0456  7333.65  85.5837
 49.0876  7305.91  85.0551
 49.1296  7296.55  85.0565
 49.1716  7229.71  84.5356
 49.2136  7363.59  85.2342
 49.2556  7257.94  84.6552
 49.2976  7283.5  84.8816
 49.3396  7268.39  84.8446
 49.3816  7302.02  84.4696
 49.4236  7330.31  85.0583
 49.4656  7202.28  84.3379
 49.5076  7370.39  85.0601
 49.5496  7308.47  84.7666
 49.5916  7380.81  85.0916
 49.6336  7312.95  84.9112
 49.6756  7356.8  85.4093
 49.7176  7263.06  84.7965
 49.7596  7300.25  84.7798
 49.8016  7411.05  85.3308
 49.8436  7225.12  84.5622
 49.8856  7248.39  84.6936
 49.9276  7234.63  84.7235
 49.9696  7246.73  84.7767
 50.0116  7266.75  85.0266
 50.0536  7281.96  85.0439
 50.0956  7368.17  85.633
 50.1376  7264.9  84.7215
 50.1796  7132.51  84.2224
 50.2216  7224.6  84.7605
 50.2636  7210.11  84.2906
 50.3056  7244.36  84.6708
 50.3476  7185.67  84.3394
 50.3896  7109.99  83.8731
 50.4316  7265.51  84.6145
 50.4736  7139.25  84.0986
 50.5156  7142.95  84.109
 50.5576  7339.95  85.0195
 50.5996  7213.22  84.562
 50.6416  7141.18  84.0582
 50.6836  7297.46  85.0426
 50.7256  7337.09  85.1911
 50.7676  7382.78  85.7488
 50.8096  7210.6  84.3098
 50.8516  7135.68  84.3004
 50.8936  7149.65  84.1575
 50.9356  7219.15  84.6756
 50.9776  7195.75  84.6949
 51.0196  6946.83  83.3427
 51.0616  6993.72  82.9417
 51.1036  7246.36  84.7895
 51.1456  7060.88  83.6146
 51.1876  7058.78  82.9164
 51.2296  7098.39  83.7981
 51.2716  7049.15  83.2146
 51.3136  6900.4  82.799
 51.3556  6985.16  82.9201
 51.3976  7042.92  83.418
 51.4396  6805.98  82.3143
 51.4816  7067.86  83.7347
 51.5236  7165.77  84.4009
 51.5656  6889.17  82.3512
 51.6076  7038.21  83.3243
 51.6496  6950.96  82.9911
 51.6916  6983.28  83.5559
 51.7336  6982.42  83.6346
 51.7756  7044.87  83.6998
 51.8176  6912.67  83.0194
 51.8596  6937.76  83.1865
 51.9016  7061.35  83.5266
 51.9436  6946.83  84.3529
 51.9856  7028.12  85.266
 52.0276  7140.97  84.3952
 52.0696  7229.59  84.9959
 52.1116  6933.09  83.3492
 52.1536  7077.14  84.0461
 52.1956  7045.28  83.3621
 52.2376  7177.66  84.3134
 52.2796  7146.59  83.9512
 52.3216  6924.54  83.333
 52.3636  7039.29  83.5726
 52.4056  7039.47  83.4408
 52.4476  7071.74  84.0008
 52.4896  6826.68  82.5728
 52.5316  7014.27  83.7684
 52.5736  6908.09  82.8348
 52.6156  7117.19  84.496
 52.6576  6910.2  82.6819
 52.6996  6776.91  82.8731
 52.7416  6955.56  83.8071
 52.7836  7035.24  84.1768
 52.8256  7004.7  83.1886
 52.8676  6814.78  82.6281
 52.9096  6955.52  83.5573
 52.9516  6938.82  83.8575
 52.9936  6898.31  83.9942
 53.0356  6975.25  83.4406
 53.0776  7039.52  84.1307
 53.1196  6989.29  83.9246
 53.1616  6923.38  83.5851
 53.2036  6813.1  82.875
 53.2456  6862.34  83.2798
 53.2876  6975.79  83.6462
 53.3296  7037.23  84.3504
 53.3716  7077.97  84.3393
 53.4136  6896.44  83.4063
 53.4556  6883.54  83.3597
 53.4976  6914.46  83.3828
 53.5396  6830.65  83.2743
 53.5816  6922.14  83.4578
 53.6236  6844.82  83.3506
 53.6656  7011.01  83.9376
 53.7076  6827.49  82.8005
 53.7496  6908.67  83.413
 53.7916  6869.25  83.3259
 53.8336  6857.51  83.1451
 53.8756  6743.7  83.0019
 53.9176  6899.11  83.2885
 53.9596  6612.99  82.2945
 54.0016  6630.65  81.7197
 54.0436  6477.38  81.0033
 54.0856  6724.14  81.9374
 54.1276  6647.27  81.6892
 54.1696  6605.43  81.5899
 54.2116  6794.39  82.4971
 54.2536  6695.7  81.6989
 54.2956  6686.57  81.6883
 54.3376  6672.9  82.1089
 54.3796  6589.1  81.4704
 54.4216  6652.78  81.9384
 54.4636  6647.84  81.8597
 54.5056  6680.77  81.8657
 54.5476  6608.2  81.7625
 54.5896  6531.59  81.1287
 54.6316  6666.92  81.8067
 54.6736  6561.17  81.1923
 54.7156  6683.31  82.0296
 54.7576  6412.87  80.3318
 54.7996  6710.82  82.3402
 54.8416  6606.74  81.7461
 54.8836  6624.67  81.9385
 54.9256  6508.69  80.9881
 54.9676  6394.84  80.1327
 55.0096  6522.85  80.9627
 55.0516  6428.2  80.5615
 55.0936  6466.6  80.5258
 55.1356  6456.29  80.488
 55.1776  6644.83  81.8965
 55.2196  6589.95  81.3454
 55.2616  6699.93  82.2611
 55.3036  6440.39  80.8083
 55.3456  6408.16  80.7641
 55.3876  6568.43  81.4715
 55.4296  6403.28  80.4641
 55.4716  6481.15  80.9638
 55.5136  6439.32  80.4678
 55.5556  6526.65  81.0552
 55.5976  6440.26  80.6035
 55.6396  6477.23  80.6948
 55.6816  6435.3  80.3745
 55.7236  6347.91  79.8934
 55.7656  6524.24  80.7151
 55.8076  6380.12  79.829
 55.8496  6581.31  81.5113
 55.8916  6406.09  80.4875
 55.9336  6493.65  80.9004
 55.9756  6377.67  80.0374
 56.0176  6283.91  79.5986
 56.0596  6346.85  79.9903
 56.1016  6280.03  79.6148
 56.1436  6351.81  80.2993
 56.1856  6249.09  79.389
 56.2276  6534.67  81.2384
 56.2696  6348.29  80.0594
 56.3116  6502.27  81.373
 56.3536  6357.92  80.1458
 56.3956  6316.91  79.8657
 56.4376  6320.79  79.9467
 56.4796  6284.26  79.5372
 56.5216  6197.37  79.3535
 56.5636  6265.01  79.3573
 56.6056  6394.74  80.4072
 56.6476  6205.86  78.8295
 56.6896  6473.71  80.9841
 56.7316  6342.94  80.0866
 56.7736  6322.65  79.9337
 56.8156  6278.93  79.6853
 56.8576  6143.58  78.7652
 56.8996  6401.67  80.3114
 56.9416  6276.2  79.8104
 56.9836  6358.66  79.8749
 57.0256  6198.23  79.1589
 57.0676  6341.84  80.1937
 57.1096  6290.93  79.6425
 57.1516  6202.51  79.1283
 57.1936  6211.13  78.9741
 57.2356  6193.61  79.1666
 57.2776  6242.22  79.4588
 57.3196  6297.28  80.1444
 57.3616  6221.47  79.1591
 57.4036  6260.65  79.4685
 57.4456  6323.93  79.8569
 57.4876  6276.12  79.4338
 57.5296  6196.78  79.1434
 57.5716  6085.71  78.5155
 57.6136  6164.31  78.872
 57.6556  6249.29  79.5436
 57.6976  6191.87  79.0048
 57.7396  6055.19  78.4746
 57.7816  6053.59  78.8239
 57.8236  6182.54  79.4594
 57.8656  6255.96  79.5976
 57.9076  6163.15  79.0226
 57.9496  6189.15  79.5482
 57.9916  6206.23  79.1707
 58.0336  6161.92  79.1628
 58.0756  6229.43  79.1809
 58.1176  6144.2  78.6729
 58.1596  6144.12  79.2635
 58.2016  6047.63  77.8561
 58.2436  5922.58  77.452
 58.2856  5925.51  77.3932
 58.3276  5943.31  77.8737
 58.3696  5951.56  77.6898
 58.4116  5958.13  77.5978
 58.4536  6046.51  78.0575
 58.4956  5893.69  77.2427
 58.5376  6013.34  77.5938
 58.5796  5871.24  77.0852
 58.6216  5970.91  77.5477
 58.6636  5993.11  77.9133
 58.7056  6042.33  78.0915
 58.7476  5882.99  77.4938
 58.7896  5840.85  76.8666
 58.8316  5962.78  77.6589
 58.8736  6016.33  78.0181
 58.9156  5883.34  77.1968
 58.9576  5911.25  77.6924
 58.9996  5987.47  77.4489
 59.0416  5940.74  77.5022
 59.0836  5880.74  77.029
 59.1256  5884.85  77.7493
 59.1676  5894.24  78.1183
 59.2096  5785.27  76.7062
 59.2516  5919.12  77.1737
 59.2936  5925.75  77.5419
 59.3356  5923.56  77.4065
 59.3776  6020.99  78.2092
 59.4196  5853.09  77.0466
 59.4616  5736.06  76.1374
 59.5036  5736.8  76.1766
 59.5456  5880.64  76.8233
 59.5876  5844.95  76.7778
 59.6296  5695.14  75.8547
 59.6716  5876.32  77.109
 59.7136  5842.52  76.8753
 59.7556  5913.73  77.4774
 59.7976  5690.25  75.7492
 59.8396  5837.86  76.6214
 59.8816  5833.99  77.1309
 59.9236  5804.7  76.5888
 59.9656  5921.38  77.6122
 60.0076  5902.82  76.8558
 60.0496  5973.28  77.8088
 60.0916  6034.75  77.6321
 60.1336  5906.18  77.8955
 60.1756  5819.4  78.4834
 60.1996  0.0000000E+00  0.0000000E+00