File: docs/examples/opeando_xrd/IS17_D/Data/IS17_D/17_Db_f00046.xye
# /beamlines/bl04/projects/cycle2025-II/20250340211-lsimonelli/DATA/IS17_D/17_Db_f00046.xye : mythproc.py merge -s 0.006 -l 0.5 -f /beamlines/bl04/inhouse/ff/FlatField/ff_20Nov2024rod8mm60s_17keV.raw -b True -c true -o xye /beamlines/bl04/projects/cycle2025-II/20250340211-lsimonelli/DATA/IS17_D/17_Db_00046.dat
# IsMon = [6754748, 6751104, 6758913]  IsPos = [-1.4999, -2.4885, -3.4986]
# Wave = 0.4962  CalPath /beamlines/bl04/projects/cycle2025-II/20250340211-lsimonelli/DATA/Align/Si_Pos1_25keV_f00001.cal
# Date = 2025-09-24_06:31:32 Dt = 4.8000  Bin = 0.0060  <imon> = 6754922 +/- 3190 (Min/Max) 6751104 / 6758913
# icurr 249.7557  mocoIn 1.7050E-05  mocoOut 0.7994  i15 7.07526e+06  imon 6.75492e+06  i7 7.6667  iEMpd_timer 4.8000  iEMpd_1 3.4406E-08  iEMpd_2 7.8012E-08  iEMpd_3 1.6738E-08  iEMpd_4 4.9814E-08  iEMhp_timer 4.8000  iEMhp_1 4.8795E-06  iEMhp_2 -2.4785E-08  iEMhp_3 -2.3267E-08  iEMhp_4 -2.0525E-08
#      9776
 1.5856  44667.2  217.022
 1.6276  52212  230.609
 1.6696  57607.3  241.377
 1.7116  64987.4  256.874
 1.7536  73019.9  271.127
 1.7956  77102.6  279.3
 1.8376  73590.2  273.296
 1.8796  63783.4  252.578
 1.9216  53051.9  231.257
 1.9636  45906.2  214.238
 2.0056  41557.1  203.047
 2.0476  39433.8  199.96
 2.0896  37640  194.214
 2.1316  36954.6  191.512
 2.1736  35167.1  188.305
 2.2156  35878.5  188.674
 2.2576  34543.7  185.793
 2.2996  33222.8  182.876
 2.3416  33721.4  182.774
 2.3836  32905.3  180.659
 2.4256  32169  179.208
 2.4676  31442.7  176.923
 2.5096  31349.8  176.719
 2.5516  30099.4  177.15
 2.5936  30194.5  173.869
 2.6356  29509  172.614
 2.6776  29224  170.648
 2.7196  28979.6  170.435
 2.7616  28799.7  169.69
 2.8036  28342.9  168.511
 2.8456  28495.1  169.622
 2.8876  27936.7  167.788
 2.9296  27289.9  165.992
 2.9716  27116.8  164.941
 3.0136  26624.9  163.508
 3.0556  26478.7  163.457
 3.0976  26657.3  162.892
 3.1396  26383.2  162.799
 3.1816  26082.2  161.802
 3.2236  25918.4  161.275
 3.2656  25650.3  159.477
 3.3076  25372.6  160.099
 3.3496  25741.2  160.398
 3.3916  25953  160.631
 3.4336  26448.4  162.753
 3.4756  26699.4  163.458
 3.5176  27117  164.502
 3.5596  26908.6  166.343
 3.6016  27146.3  164.642
 3.6436  26194.6  162.874
 3.6856  25952.3  160.372
 3.7276  24874.2  158.111
 3.7696  24733.3  157.846
 3.8116  24289.9  156.319
 3.8536  24449.8  156.752
 3.8956  24252.1  155.947
 3.9376  24066.1  155.638
 3.9796  24124.4  155.292
 4.0216  24255.6  154.736
 4.0636  23972.4  155.308
 4.1056  24015.2  155.109
 4.1476  24427.9  156.738
 4.1896  24303.5  156.196
 4.2316  24468.8  156.542
 4.2736  24819  157.462
 4.3156  25058.5  158.448
 4.3576  25883.8  160.94
 4.3996  25940.5  161.202
 4.4416  26523.3  162.784
 4.4836  26901.7  164.113
 4.5256  27486.6  166.489
 4.5676  27342.4  166.315
 4.6096  28017.6  166.985
 4.6516  28237.5  167.331
 4.6936  28398.6  168.643
 4.7356  28527  168.855
 4.7776  28450.2  168.451
 4.8196  28337.3  168.774
 4.8616  27539.6  166.006
 4.9036  27504.6  165.491
 4.9456  27305.8  165.559
 4.9876  26761.9  163.8
 5.0296  26992.4  164.337
 5.0716  26728.7  164.15
 5.1136  26871  164.45
 5.1556  27189.2  164.868
 5.1976  27596.3  166.097
 5.2396  27494.8  165.484
 5.2816  27629.7  166.361
 5.3236  27631.3  166.061
 5.3656  27079.5  165.329
 5.4076  26972.2  165.139
 5.4496  26816.3  164.157
 5.4916  27104.8  164.791
 5.5336  27002.6  164.491
 5.5756  26993.6  164.474
 5.6176  27225.3  164.621
 5.6596  27370.1  166.05
 5.7016  27422.1  165.462
 5.7436  27448.4  165.818
 5.7856  27324.8  165.515
 5.8276  27475.1  165.681
 5.8696  27943.6  167.263
 5.9116  27689.5  167.065
 5.9536  28325.8  168.751
 5.9956  28214.5  167.807
 6.0376  28276.1  168.609
 6.0796  28573.3  169.324
 6.1216  28435.6  169.119
 6.1636  28895  169.529
 6.2056  28458.6  168.922
 6.2476  28852.7  169.956
 6.2896  29276.9  170.879
 6.3316  29309.5  171.146
 6.3736  29309.4  171.031
 6.4156  29536.7  171.575
 6.4576  29441.7  170.928
 6.4996  29609.3  171.896
 6.5416  29590.7  171.976
 6.5836  29622.6  172.304
 6.6256  29811.9  172.403
 6.6676  30323.2  173.445
 6.7096  30447.8  174.662
 6.7516  30727.7  175.126
 6.7936  31008.6  175.061
 6.8356  30896.4  175.102
 6.8776  31041.3  176.317
 6.9196  31217.4  177.22
 6.9616  31606.6  177.729
 7.0036  32201.6  179.07
 7.0456  31847.9  177.381
 7.0876  31966.1  179.41
 7.1296  32031  178.723
 7.1716  32048.6  178.295
 7.2136  31840  177.496
 7.2556  31932.4  177.919
 7.2976  32148.6  179.011
 7.3396  31726.2  178.07
 7.3816  31758.5  178.363
 7.4236  32208.2  178.917
 7.4656  32391.6  178.872
 7.5076  32499.6  179.324
 7.5496  32477.9  179.801
 7.5916  32342.2  179.483
 7.6336  33027.4  181.263
 7.6756  33054.6  181.178
 7.7176  33411.7  182.49
 7.7596  33334.5  183.506
 7.8016  33949.2  187.439
 7.8436  33659.8  183.282
 7.8856  33708.2  183.025
 7.9276  34258.2  184.89
 7.9696  34372.3  185.52
 8.0116  35354.1  187.051
 8.0536  35444.4  187.187
 8.0956  35445.6  188.392
 8.1376  35812  188.815
 8.1796  35970.8  189.782
 8.2216  37076.8  191.397
 8.2636  36968.5  191.372
 8.3056  36844.2  191.8
 8.3476  37455.5  192.728
 8.3896  37212.5  192.608
 8.4316  37494.6  193.077
 8.4736  37472.3  192.489
 8.5156  37413.9  192.616
 8.5576  36680.3  191.7
 8.5996  36609.3  190.381
 8.6416  36653.3  191.766
 8.6836  36400.1  190.901
 8.7256  36994.5  191.939
 8.7676  36791.2  194.294
 8.8096  37200.8  192.647
 8.8516  37102.6  191.958
 8.8936  36516.2  190.392
 8.9356  36931.1  191.808
 8.9776  36858.2  191.691
 9.0196  37034.2  191.829
 9.0616  36447.5  189.796
 9.1036  36313.4  190.621
 9.1456  35906.3  188.862
 9.1876  36276.6  189.783
 9.2296  35934.5  188.324
 9.2716  35683.9  187.716
 9.3136  35449.7  187.095
 9.3556  35782.4  187.948
 9.3976  34960.5  186.292
 9.4396  34922.5  186.098
 9.4816  34748.5  185.498
 9.5236  34348.7  184.306
 9.5656  34335.6  184.638
 9.6076  33409.8  182.649
 9.6496  33951.8  184.017
 9.6916  33250.8  182.053
 9.7336  33890.8  183.598
 9.7756  33646.6  184.31
 9.8176  33609.8  183.661
 9.8596  33232.9  181.064
 9.9016  32777.1  179.802
 9.9436  32499.1  178.947
 9.9856  32353.2  178.824
 10.0276  31933.3  178.735
 10.0696  32060.8  178.126
 10.1116  31545.4  176.955
 10.1536  31035.6  175.668
 10.1956  30716.8  174.382
 10.2376  30709.7  173.861
 10.2796  30520.1  173.446
 10.3216  29815.1  171.714
 10.3636  29860.7  171.874
 10.4056  29166.4  170.27
 10.4476  29613.9  171.176
 10.4896  29541.2  170.404
 10.5316  28876.7  169.206
 10.5736  28653.1  168.952
 10.6156  28600  168.551
 10.6576  28742.8  167.55
 10.6996  28027.1  166.143
 10.7416  27750.4  165.532
 10.7836  27374.2  165.063
 10.8256  27153  164.81
 10.8676  27008.7  163.925
 10.9096  26879.7  163.541
 10.9516  26795.2  162.245
 10.9936  26611.8  161.889
 11.0356  26429.9  161.949
 11.0776  26325.6  160.965
 11.1196  25892.2  160.392
 11.1616  25686.1  159.437
 11.2036  25819.3  159.684
 11.2456  25564.4  159.605
 11.2876  25842.9  160.191
 11.3296  25029.6  157.568
 11.3716  25568.6  158.932
 11.4136  25473  159.518
 11.4556  25177.3  158.251
 11.4976  25622  158.654
 11.5396  25654.2  158.936
 11.5816  26034.6  160.537
 11.6236  26575  162.646
 11.6656  27361.6  163.942
 11.7076  26301.6  161.581
 11.7496  25823.8  164.165
 11.7916  25482  158.302
 11.8336  24656.6  156.629
 11.8756  24695  156.274
 11.9176  24700.6  156.205
 11.9596  24786.1  156.4
 12.0016  24334.5  155.73
 12.0436  24669.9  156.253
 12.0856  24211.1  155.292
 12.1276  24336.1  155.648
 12.1696  24283.8  154.586
 12.2116  24359.7  154.835
 12.2536  24166.9  155.04
 12.2956  23887  153.485
 12.3376  24326  155.097
 12.3796  23996.7  154.525
 12.4216  23999.7  153.734
 12.4636  23847.1  154.178
 12.5056  24062  154.133
 12.5476  24080.6  153.707
 12.5896  23787.7  153.409
 12.6316  23894.3  153.906
 12.6736  23748.1  153.769
 12.7156  23977.4  154.505
 12.7576  23866  154.396
 12.7996  23865.7  153.037
 12.8416  23528.4  153.002
 12.8836  24193.8  154.969
 12.9256  24314.2  154.397
 12.9676  24199.1  154.426
 13.0096  24324.2  155.946
 13.0516  24430.5  155.321
 13.0936  24646  156.409
 13.1356  24915.1  156.209
 13.1776  24512.2  155.969
 13.2196  24828.6  156.61
 13.2616  24679.2  156.457
 13.3036  24960.7  157.31
 13.3456  24635.7  156.411
 13.3876  25039.7  157.184
 13.4296  24652.5  156.13
 13.4716  24840.6  156.34
 13.5136  24764.4  156.239
 13.5556  24559.7  156.231
 13.5976  24800  157.154
 13.6396  24660  156.061
 13.6816  24687.1  156.627
 13.7236  25190.6  157.787
 13.7656  26650.6  162.768
 13.8076  27632.2  164.334
 13.8496  26895.8  162.814
 13.8916  24810.3  157.534
 13.9336  24260.5  155.041
 13.9756  24230.9  154.326
 14.0176  23882  153.892
 14.0596  24205.3  154.862
 14.1016  23890.5  154.279
 14.1436  23958.5  153.623
 14.1856  23405  152.134
 14.2276  23258.1  152.135
 14.2696  23350.9  152.29
 14.3116  22804.8  150.407
 14.3536  22697.2  150.216
 14.3956  22540.2  149.432
 14.4376  22768.1  149.955
 14.4796  22664.1  149.613
 14.5216  22391.9  149.509
 14.5636  22011.8  147.803
 14.6056  22409  148.675
 14.6476  22246.5  147.39
 14.6896  21858.1  146.643
 14.7316  21305.9  145.813
 14.7736  21302.3  144.947
 14.8156  21258.3  144.802
 14.8576  20981.6  143.724
 14.8996  20705.6  143.968
 14.9416  20390.4  142.888
 14.9836  20505.5  143.257
 15.0256  19927.9  140.153
 15.0676  19857  140.215
 15.1096  19814  139.803
 15.1516  19459.9  139.115
 15.1936  19387.2  138.273
 15.2356  19242  138.031
 15.2776  19091.7  137.082
 15.3196  18425.3  135.648
 15.3616  18429.6  135.411
 15.4036  18626  136.011
 15.4456  18637.4  135.462
 15.4876  18439.8  134.663
 15.5296  18255  134.282
 15.5716  18116.9  133.368
 15.6136  18165.8  133.888
 15.6556  18208  133.271
 15.6976  18014.6  132.638
 15.7396  17857.3  132.644
 15.7816  17536.1  130.971
 15.8236  17426.2  131.239
 15.8656  17492.7  131.3
 15.9076  17339.6  130.546
 15.9496  18063.3  136.074
 15.9916  17750  135.305
 16.0336  17852  132.524
 16.0756  17723.7  132.36
 16.1176  17431.1  131.343
 16.1596  17101.6  131.273
 16.2016  16902.1  129.269
 16.2436  16954.5  129.854
 16.2856  16934  129.279
 16.3276  16647.9  128.63
 16.3696  16822  129.128
 16.4116  16597.6  128.693
 16.4536  16839.8  129.45
 16.4956  16741.9  128.809
 16.5376  16491.8  128.031
 16.5796  16359.6  126.884
 16.6216  16338.7  127.049
 16.6636  16077.2  126.225
 16.7056  16401  127.357
 16.7476  16270.4  126.52
 16.7896  16370.9  127.512
 16.8316  16199  126.825
 16.8736  16340.5  127.634
 16.9156  16231.2  127.535
 16.9576  16028.8  127.538
 16.9996  16067.5  128.164
 17.0416  16465.2  128.135
 17.0836  16373.8  127.531
 17.1256  16215.4  126.919
 17.1676  16499.9  127.98
 17.2096  16315.2  127.17
 17.2516  16076.7  126.025
 17.2936  16314  127.301
 17.3356  16060.3  126.287
 17.3776  15768.2  125.329
 17.4196  15862.5  125.41
 17.4616  15742.8  124.834
 17.5036  15277.1  123.339
 17.5456  15172.8  123.55
 17.5876  15357.5  123.346
 17.6296  15251.2  122.75
 17.6716  15103.2  122.726
 17.7136  15094.7  122.819
 17.7556  14952.6  122.539
 17.7976  14604.2  120.7
 17.8396  14719.5  120.825
 17.8816  14597.4  120.882
 17.9236  14688.1  121.042
 17.9656  14472.1  120.808
 18.0076  14475.3  120.254
 18.0496  14460  119.34
 18.0916  14470.3  119.917
 18.1336  14309.6  119.353
 18.1756  14483.4  119.629
 18.2176  14093.4  118.214
 18.2596  14103.4  118
 18.3016  14293.8  119.038
 18.3436  14447.6  119.917
 18.3856  14221.5  118.877
 18.4276  14162.9  118.322
 18.4696  14076.3  118.035
 18.5116  14113.6  118.47
 18.5536  14034.7  118.484
 18.5956  13996.5  117.9
 18.6376  13890.1  117.852
 18.6796  13931.1  117.337
 18.7216  14083.1  118.544
 18.7636  14029.8  118.25
 18.8056  13893.2  117.598
 18.8476  13703.9  117.114
 18.8896  13874.5  117.488
 18.9316  13869.6  117.287
 18.9736  13921  117.366
 19.0156  13778.5  117.158
 19.0576  13919  116.611
 19.0996  13836.4  116.99
 19.1416  13849.6  117.439
 19.1836  13702.6  116.421
 19.2256  13625.2  116.311
 19.2676  13808.6  117.177
 19.3096  13630.5  116.66
 19.3516  13554.5  116.289
 19.3936  13683.5  116.804
 19.4356  13876.2  117.436
 19.4776  13751.3  117.001
 19.5196  13745.3  116.832
 19.5616  13609.6  116.509
 19.6036  13745.6  116.451
 19.6456  13691.9  116.481
 19.6876  13611.9  115.782
 19.7296  13767.6  116.898
 19.7716  13625.9  116.32
 19.8136  13844.4  117.587
 19.8556  13971.4  117.607
 19.8976  13761  116.781
 19.9396  13759.6  116.371
 19.9816  13898.3  117.201
 20.0236  14096.9  118.227
 20.0656  14132.5  118.383
 20.1076  14367.8  119.839
 20.1496  14462.3  120.227
 20.1916  14877.5  121.444
 20.2336  14868.2  121.329
 20.2756  14648.6  120.868
 20.3176  14448.7  119.783
 20.3596  14162.2  118.581
 20.4016  13980.6  117.616
 20.4436  13701.1  117.001
 20.4856  13800.7  117.21
 20.5276  13707.8  117.287
 20.5696  13700.4  116.694
 20.6116  13445.7  115.885
 20.6536  13308.9  114.868
 20.6956  13402.8  115.342
 20.7376  13187.9  114.621
 20.7796  13156.2  114.179
 20.8216  13477.7  115.283
 20.8636  13149.1  114.234
 20.9056  13147.1  114.156
 20.9476  13155.8  114.051
 20.9896  13381  114.887
 21.0316  13207.6  114.036
 21.0736  13243.9  114.718
 21.1156  12982.9  113.742
 21.1576  13019.6  113.935
 21.1996  13090.1  114.237
 21.2416  13068.3  113.959
 21.2836  13121.3  114.172
 21.3256  12957.1  113.529
 21.3676  13005  113.284
 21.4096  12905.3  113.155
 21.4516  12882.5  112.933
 21.4936  12524.5  111.602
 21.5356  12835.7  112.941
 21.5776  12892.9  113.017
 21.6196  12807.6  112.688
 21.6616  12643  112.047
 21.7036  12713.9  112.121
 21.7456  12817.8  112.667
 21.7876  12691.6  111.874
 21.8296  12798.7  112.192
 21.8716  12747.8  112.199
 21.9136  13001.1  113.499
 21.9556  12726  111.972
 21.9976  12635.8  111.602
 22.0396  12529.9  111.391
 22.0816  12626.5  112.339
 22.1236  12745.2  112.333
 22.1656  12499.9  111.435
 22.2076  12300.4  109.959
 22.2496  12460.9  110.713
 22.2916  12324.9  109.982
 22.3336  12417.5  111.092
 22.3756  12372.9  110.635
 22.4176  12205  109.733
 22.4596  12170.3  110.153
 22.5016  12188.2  109.755
 22.5436  12414.2  110.63
 22.5856  12628  111.828
 22.6276  12674  112.186
 22.6696  12427.1  111.431
 22.7116  12361.3  110.661
 22.7536  12403.6  110.816
 22.7956  12376.9  110.046
 22.8376  12213.7  109.811
 22.8796  12236.2  109.725
 22.9216  12418.6  111.074
 22.9636  12347.3  109.923
 23.0056  12083.3  108.867
 23.0476  12384.9  110.79
 23.0896  12586.1  111.066
 23.1316  12402.8  110.682
 23.1736  12415  113.669
 23.2156  12701.7  112.252
 23.2576  12894.8  113.315
 23.2996  12554.5  111.582
 23.3416  12774.3  113.09
 23.3836  12701.9  111.965
 23.4256  12964.7  113.269
 23.4676  12580.2  111.271
 23.5096  12632.2  112.146
 23.5516  12691.5  111.717
 23.5936  12636.1  112.385
 23.6356  12919.2  113.295
 23.6776  12570.5  112.296
 23.7196  12624.2  111.782
 23.7616  12671.7  111.905
 23.8036  12810.7  112.581
 23.8456  12547  110.963
 23.8876  12390.3  110.625
 23.9296  12352.2  110.945
 23.9716  12445.3  110.56
 24.0136  12489  111.661
 24.0556  12497.3  111.408
 24.0976  12370.1  110.661
 24.1396  12097.4  112.049
 24.1816  12303.5  111.765
 24.2236  12355.1  111.291
 24.2656  12192.5  110.027
 24.3076  12146.8  110.094
 24.3496  12093.6  109.735
 24.3916  12114.3  109.878
 24.4336  12208.5  110.507
 24.4756  11985.5  109.375
 24.5176  12041  109.251
 24.5596  11782.4  108.202
 24.6016  11823.3  108.682
 24.6436  11868.8  108.392
 24.6856  11896.3  108.262
 24.7276  11682.1  107.616
 24.7696  11753.9  108.043
 24.8116  11543.4  107.258
 24.8536  11577.5  107.419
 24.8956  11522.1  106.895
 24.9376  11434.8  106.41
 24.9796  11316.8  106.225
 25.0216  11358.7  106.527
 25.0636  11321.9  106.016
 25.1056  11134.3  105.567
 25.1476  11342.9  108.462
 25.1896  11140.9  105.994
 25.2316  11100.9  104.961
 25.2736  11126.4  104.843
 25.3156  11146.1  105.015
 25.3576  11183.4  105.627
 25.3996  11073.3  105.088
 25.4416  11145  105.404
 25.4836  10997  105.216
 25.5256  10933.6  104.287
 25.5676  11021.4  104.442
 25.6096  10970.6  104.768
 25.6516  11028.6  104.555
 25.6936  11045.2  104.943
 25.7356  10935.7  104.555
 25.7776  11011.4  104.511
 25.8196  10857.7  104.024
 25.8616  10782.2  103.586
 25.9036  10925  103.728
 25.9456  10848.2  103.975
 25.9876  10654.7  103.091
 26.0296  10901.2  103.884
 26.0716  10882.3  104.124
 26.1136  10849.1  103.91
 26.1556  10905.2  103.471
 26.1976  10786.3  103.91
 26.2396  10688.7  102.855
 26.2816  10847.8  103.976
 26.3236  10755.5  103.605
 26.3656  10962  104.397
 26.4076  10745.4  103.569
 26.4496  11031.2  104.528
 26.4916  11051.2  104.519
 26.5336  11439.9  106.686
 26.5756  11564.9  107.145
 26.6176  10958  104.317
 26.6596  10852  104.121
 26.7016  10782.3  103.588
 26.7436  10900.3  104.236
 26.7856  10715.1  103.343
 26.8276  10664.4  103.061
 26.8696  10787.6  103.524
 26.9116  10537.6  102.251
 26.9536  10458.1  101.92
 26.9956  10580.6  102.548
 27.0376  10488.5  102.323
 27.0796  10407  101.688
 27.1216  10425.7  101.802
 27.1636  10397.8  101.833
 27.2056  10227.6  100.881
 27.2476  10440.3  101.913
 27.2896  10303.4  101.301
 27.3316  10290.7  101.023
 27.3736  10252.9  101.101
 27.4156  10295.1  101.146
 27.4576  10333.3  101.561
 27.4996  10366.5  101.328
 27.5416  10304.9  101.329
 27.5836  10106.8  100.196
 27.6256  10190.2  100.784
 27.6676  10119.5  100.423
 27.7096  10194.8  100.681
 27.7516  10137.2  100.545
 27.7936  10484.6  102.404
 27.8356  10350.3  101.339
 27.8776  10453.9  101.916
 27.9196  10211.8  100.592
 27.9616  10192.7  100.698
 28.0036  9939.84  99.4039
 28.0456  10005.3  99.8664
 28.0876  9966.17  99.7576
 28.1296  9956.46  99.5403
 28.1716  9991.13  99.7359
 28.2136  10039  99.9394
 28.2556  10034.4  100.022
 28.2976  9910.51  99.4068
 28.3396  9875.64  99.0268
 28.3816  9951.96  99.3762
 28.4236  9743.64  98.4914
 28.4656  9844.05  99.0365
 28.5076  9950.26  99.207
 28.5496  9913.87  99.2766
 28.5916  9919.08  99.1207
 28.6336  9773.62  98.7284
 28.6756  9908.52  98.6001
 28.7176  9795.11  98.5931
 28.7596  9775.2  98.3804
 28.8016  9757.39  98.4143
 28.8436  9727.82  98.4246
 28.8856  9659.8  97.9299
 28.9276  9760.29  98.6858
 28.9696  9707.39  98.0764
 29.0116  9558.66  97.491
 29.0536  9574.38  97.7927
 29.0956  9728.36  98.281
 29.1376  9581.52  97.503
 29.1796  9733.68  98.3298
 29.2216  9664.98  97.8131
 29.2636  9792.08  98.4531
 29.3056  9682.59  97.7701
 29.3476  9675.78  98.2536
 29.3896  9603.16  97.9946
 29.4316  9502.96  96.8258
 29.4736  9399.71  96.3516
 29.5156  9467.5  96.6283
 29.5576  9420.96  97.1322
 29.5996  9544.21  97.0194
 29.6416  9340.69  96.1032
 29.6836  9448.39  96.5776
 29.7256  9361.83  96.6888
 29.7676  9318.79  96.1252
 29.8096  9387.73  96.4337
 29.8516  9093.93  95.2272
 29.8936  9344.84  96.6342
 29.9356  9467.81  97.024
 29.9776  9251.67  96.0598
 30.0196  9306.68  95.7457
 30.0616  9241.95  95.7771
 30.1036  9328.88  96.0619
 30.1456  9344.53  96.3801
 30.1876  9217.67  95.6974
 30.2296  9182.79  95.4436
 30.2716  9373.6  96.0786
 30.3136  9360.69  96.5977
 30.3556  9623.23  98.22
 30.3976  9388.94  98.5161
 30.4396  9620.14  97.0433
 30.4816  9516.44  96.1239
 30.5236  9617.47  96.646
 30.5656  9535.74  96.8818
 30.6076  9542.16  96.3272
 30.6496  9417.68  96.0975
 30.6916  9311.13  95.6463
 30.7336  9417.77  96.3308
 30.7756  9252.52  95.7803
 30.8176  9444.39  96.4825
 30.8596  9503.29  96.5413
 30.9016  9399.32  96.3706
 30.9436  9585.82  97.0529
 30.9856  9652.66  97.5071
 31.0276  9375.5  95.7364
 31.0696  9476.45  96.6853
 31.1116  9481.36  96.7967
 31.1536  9337.44  95.9378
 31.1956  9302.06  95.8547
 31.2376  9102.45  94.8448
 31.2796  9310.2  95.4564
 31.3216  9472.47  96.2097
 31.3636  9272.04  95.9085
 31.4056  9425.51  98.0011
 31.4476  9319.9  95.3774
 31.4896  9227.13  95.3955
 31.5316  9357.98  95.5219
 31.5736  9472.08  95.8889
 31.6156  9235.04  94.6806
 31.6576  9370.91  95.4491
 31.6996  9394.88  95.2411
 31.7416  9210.97  95.397
 31.7836  9279.43  94.7535
 31.8256  9248.96  94.9445
 31.8676  9319.09  95.2173
 31.9096  9147.14  94.6903
 31.9516  9120.44  94.7297
 31.9936  9055.32  94.2132
 32.0356  9259.32  95.3164
 32.0776  9208.61  94.9501
 32.1196  9262.14  95.3324
 32.1616  9371.49  95.3375
 32.2036  9177.48  94.8523
 32.2456  9259.54  95.6652
 32.2876  9082.84  94.0791
 32.3296  9100.47  94.2969
 32.3716  8984.09  93.7947
 32.4136  8969.04  93.9112
 32.4556  9018.48  93.6082
 32.4976  9040.22  93.5791
 32.5396  8925.21  93.0524
 32.5816  9137.81  94.1793
 32.6236  8948.72  93.3512
 32.6656  9072.01  94.5501
 32.7076  8966.25  93.6503
 32.7496  8969.59  93.3513
 32.7916  9048.91  93.7167
 32.8336  8923.01  93.1551
 32.8756  9033.36  93.5336
 32.9176  8891.2  93.1966
 32.9596  8886.78  93.2352
 33.0016  9057.95  93.9028
 33.0436  8892.14  93.2059
 33.0856  8912.55  93.4203
 33.1276  8761.96  92.3645
 33.1696  8996  93.4096
 33.2116  8899.68  93.1506
 33.2536  8918.28  93.2297
 33.2956  8753.68  92.4573
 33.3376  8893.89  92.8874
 33.3796  8952.64  93.4598
 33.4216  8826.67  92.3899
 33.4636  8933.15  93.1018
 33.5056  8741.22  92.1808
 33.5476  8824.69  92.7577
 33.5896  8996.03  93.4181
 33.6316  8855.83  93.0186
 33.6736  8579.17  91.8029
 33.7156  8750.46  92.746
 33.7576  8896.63  93.155
 33.7996  8822.37  92.5306
 33.8416  8773.56  92.46
 33.8836  8714.14  91.9234
 33.9256  8905.27  92.9753
 33.9676  8825.05  92.4589
 34.0096  8809.22  92.6845
 34.0516  8722.02  91.8556
 34.0936  8709.55  92.0747
 34.1356  8663.5  91.5699
 34.1776  8608.38  91.2705
 34.2196  8538.62  91.0871
 34.2616  8510.05  91.1369
 34.3036  8649.98  92.0604
 34.3456  8602.73  91.5602
 34.3876  8711.7  92.1164
 34.4296  8603.09  91.2316
 34.4716  8642.18  91.5878
 34.5136  8670.6  91.9294
 34.5556  8588.91  91.7601
 34.5976  8626.84  91.7694
 34.6396  8595.69  91.3175
 34.6816  8683.8  91.883
 34.7236  8519.56  90.7966
 34.7656  8603.21  91.4482
 34.8076  8516.63  91.3178
 34.8496  8507.61  91.1136
 34.8916  8569.93  91.3063
 34.9336  8660.25  91.7744
 34.9756  8553.15  91.1251
 35.0176  8535.95  91.5635
 35.0596  8624.01  91.8574
 35.1016  8569.83  91.3147
 35.1436  8771.98  92.0735
 35.1856  8610.87  91.3429
 35.2276  8542.16  91.165
 35.2696  8539.85  91.3384
 35.3116  8498.43  91.2202
 35.3536  8553.84  91.2275
 35.3956  8497.58  90.626
 35.4376  8584.67  91.6599
 35.4796  8631.25  91.9591
 35.5216  8553.47  91.4313
 35.5636  8317.69  90.964
 35.6056  8411.36  90.5033
 35.6476  8505.23  90.9039
 35.6896  8615.63  91.6621
 35.7316  8403.68  90.4307
 35.7736  8386.24  90.5077
 35.8156  8466.26  90.9495
 35.8576  8416.59  90.9224
 35.8996  8513.36  91.4159
 35.9416  8486.31  90.7917
 35.9836  8396.81  90.6445
 36.0256  8546.07  91.4419
 36.0676  8651.25  91.5498
 36.1096  8462.75  90.9079
 36.1516  8614.56  91.6234
 36.1936  8481.35  90.7376
 36.2356  8397.78  90.9555
 36.2776  8322.58  90.0131
 36.3196  8315.85  89.6625
 36.3616  8394.12  90.211
 36.4036  8335.08  89.959
 36.4456  8416.42  90.6106
 36.4876  8203.76  89.3942
 36.5296  8362.08  90.2836
 36.5716  8269.92  90.5576
 36.6136  8230.09  89.1378
 36.6556  8109.03  88.6698
 36.6976  8017  88.6637
 36.7396  8178.34  89.3743
 36.7816  8016.84  88.7667
 36.8236  8131.74  89.3252
 36.8656  8030.52  88.8385
 36.9076  7964.12  88.4719
 36.9496  8022.79  88.8134
 36.9916  8084.67  88.6345
 37.0336  8084.62  88.9397
 37.0756  8223.17  89.499
 37.1176  8008.19  88.6699
 37.1596  7952.62  88.2877
 37.2016  8010.59  88.7909
 37.2436  8096.86  88.6231
 37.2856  7999.53  88.3518
 37.3276  8005.63  87.738
 37.3696  8022.65  88.7184
 37.4116  8045.59  88.7342
 37.4536  7981.42  88.2565
 37.4956  7942.1  88.0681
 37.5376  8180.52  90.9844
 37.5796  8106.5  90.5007
 37.6216  8000.56  88.1753
 37.6636  8254.44  89.4528
 37.7056  8118.74  88.91
 37.7476  8242.61  89.1196
 37.7896  8033.41  88.4823
 37.8316  8132.62  89.183
 37.8736  8061.56  88.3237
 37.9156  8071.73  88.3712
 37.9576  7995.62  88.0095
 37.9996  8012.4  87.6753
 38.0416  7946.72  88.1188
 38.0836  8133.78  89.0432
 38.1256  8067.03  88.6566
 38.1676  7946.99  88.1134
 38.2096  8028.2  88.1903
 38.2516  8108.36  88.7463
 38.2936  8163.55  88.9384
 38.3356  8071.88  88.3599
 38.3776  8034.23  88.4118
 38.4196  7989.26  88.0128
 38.4616  7924.79  87.9056
 38.5036  8176.29  89.132
 38.5456  7909.84  88.4895
 38.5876  7903.83  88.5002
 38.6296  8006.41  88.043
 38.6716  7939.31  87.4766
 38.7136  7928.01  87.3628
 38.7556  8006.24  88.3005
 38.7976  7978.15  88.0817
 38.8396  7908.51  88.1512
 38.8816  7737.02  86.9825
 38.9236  7954.88  87.9975
 38.9656  8109.29  88.7578
 39.0076  7945.75  87.2648
 39.0496  8129.33  88.8197
 39.0916  8119.06  88.4099
 39.1336  7929.19  87.7698
 39.1756  8105.74  88.8174
 39.2176  7900.4  88.2244
 39.2596  7968.46  88.5181
 39.3016  8037.37  88.4823
 39.3436  7856.24  87.8785
 39.3856  7948.38  87.8485
 39.4276  8072.75  89.0388
 39.4696  7985.47  88.1747
 39.5116  8045.58  89.0227
 39.5536  7951.64  88.9183
 39.5956  8036.03  88.4929
 39.6376  7989.78  88.0713
 39.6796  7887.34  87.4127
 39.7216  7946.96  87.8348
 39.7636  7962.23  88.4926
 39.8056  8006.27  88.5102
 39.8476  7813.88  87.7019
 39.8896  7936.82  88.0083
 39.9316  7897  88.0441
 39.9736  7974.01  88.0532
 40.0156  7922.63  87.5917
 40.0576  7899.1  87.8138
 40.0996  7889.5  86.9461
 40.1416  7951.73  88.0802
 40.1836  7997.4  88.217
 40.2256  7949.09  87.9975
 40.2676  7862.66  87.6199
 40.3096  7916.23  87.8512
 40.3516  7877.19  87.8229
 40.3936  7910.43  87.4827
 40.4356  7879.5  87.5215
 40.4776  7995.74  88.5621
 40.5196  7967.82  88.5409
 40.5616  8114  88.9855
 40.6036  7825.61  87.6415
 40.6456  7951.45  87.9478
 40.6876  8102.9  88.7784
 40.7296  7917.84  87.8886
 40.7716  7922.86  88.0306
 40.8136  7927.08  88.0166
 40.8556  8062.64  88.8899
 40.8976  7998.12  88.4593
 40.9396  8023.66  88.9357
 40.9816  8039.02  88.3217
 41.0236  8010.95  87.9462
 41.0656  8109.39  89.032
 41.1076  7964.58  88.0051
 41.1496  8035.51  88.3003
 41.1916  7938.29  88.0957
 41.2336  8082.2  88.8765
 41.2756  7899.41  87.4707
 41.3176  8004.63  88.6587
 41.3596  8055.69  88.681
 41.4016  7915.75  88.1562
 41.4436  8023.02  88.5467
 41.4856  7932.28  88.2098
 41.5276  7953.84  88.3466
 41.5696  7897  87.6429
 41.6116  7902.71  88.0747
 41.6536  7920.32  88.0373
 41.6956  8068.8  88.9079
 41.7376  8035.74  88.7575
 41.7796  7816.75  87.4732
 41.8216  7995.83  88.6565
 41.8636  7947.76  88.337
 41.9056  7809.97  87.363
 41.9476  7900.09  88.0956
 41.9896  8000.31  88.3147
 42.0316  7904.52  87.875
 42.0736  7905.07  87.9801
 42.1156  7829.26  87.3823
 42.1576  7917.25  87.9885
 42.1996  8031.85  88.7604
 42.2416  7903.74  87.6299
 42.2836  7909.25  87.7757
 42.3256  7846.71  87.5342
 42.3676  8084.38  88.6449
 42.4096  7905.86  87.645
 42.4516  8024.31  88.3732
 42.4936  7823.33  87.3363
 42.5356  7756.48  87.0994
 42.5776  7913.12  87.9091
 42.6196  7830.71  87.4243
 42.6616  7615.91  86.4713
 42.7036  7877.37  87.3213
 42.7456  7906.74  87.8345
 42.7876  7978.72  88.3198
 42.8296  7864.17  87.5915
 42.8716  7769.84  87.1692
 42.9136  7816.8  87.2246
 42.9556  7863.83  87.6129
 42.9976  7826.41  87.3706
 43.0396  7781.5  86.8543
 43.0816  7834.02  87.5308
 43.1236  7835.34  87.5914
 43.1656  7819.51  87.3219
 43.2076  7844.13  87.5722
 43.2496  7767.13  86.9642
 43.2916  7789.9  87.4535
 43.3336  7848.13  87.6074
 43.3756  7788.12  87.0328
 43.4176  7753.77  86.9193
 43.4596  7731.67  86.653
 43.5016  7886.87  87.9193
 43.5436  7772.34  87.1815
 43.5856  7707.21  86.8428
 43.6276  7702.07  86.7053
 43.6696  7689.17  86.7816
 43.7116  7831.93  87.1954
 43.7536  7826.32  87.6693
 43.7956  7709.12  88.2185
 43.8376  7644.63  86.3723
 43.8796  7639.54  86.4248
 43.9216  7622.14  86.2371
 43.9636  7690.73  86.7317
 44.0056  7568.53  86.2795
 44.0476  7591.5  86.0325
 44.0896  7508.23  85.9079
 44.1316  7525.13  85.6799
 44.1736  7640.79  86.3151
 44.2156  7655.37  86.2549
 44.2576  7623.61  86.3923
 44.2996  7572.24  86.0798
 44.3416  7550.99  85.7078
 44.3836  7413.18  85.2548
 44.4256  7501.08  85.3937
 44.4676  7491.53  85.495
 44.5096  7465.3  85.4969
 44.5516  7542.36  85.9038
 44.5936  7457.86  85.3711
 44.6356  7590.82  85.8667
 44.6776  7436.29  85.3127
 44.7196  7448.4  85.6392
 44.7616  7625.15  88.0244
 44.8036  7648.35  86.5511
 44.8456  7701.98  87.0661
 44.8876  7633.45  86.5225
 44.9296  7688.84  86.2753
 44.9716  7652.71  86.509
 45.0136  7662.74  86.4913
 45.0556  7816.75  87.3501
 45.0976  7724.31  86.9926
 45.1396  7531.07  85.6399
 45.1816  7582.68  85.7096
 45.2236  7734.41  86.6406
 45.2656  7588.5  86.3151
 45.3076  7625.77  86.3117
 45.3496  7575  86.3294
 45.3916  7553.95  86.4855
 45.4336  7583.81  86.4963
 45.4756  7465.29  85.6746
 45.5176  7628.18  86.2174
 45.5596  7724.15  86.8774
 45.6016  7596.56  86.5856
 45.6436  7542.02  85.4436
 45.6856  7618.53  86.5332
 45.7276  7451.43  87.4313
 45.7696  7541.91  87.12
 45.8116  7592.51  86.8481
 45.8536  7529.43  86.3815
 45.8956  7574.63  85.9829
 45.9376  7499.24  85.0205
 45.9796  7575.19  86.1471
 46.0216  7653.33  86.9146
 46.0636  7575.91  85.5965
 46.1056  7525.73  85.3305
 46.1476  7479.98  85.6664
 46.1896  7588.07  86.4261
 46.2316  7556.29  86.1193
 46.2736  7410.48  85.6572
 46.3156  7573.78  86.1765
 46.3576  7499.86  85.9582
 46.3996  7510.29  86.1784
 46.4416  7604.75  86.2829
 46.4836  7445.86  85.7267
 46.5256  7642.5  86.8041
 46.5676  7386.91  85.4446
 46.6096  7547.38  86.2958
 46.6516  7464.32  84.8655
 46.6936  7471.54  85.4092
 46.7356  7627.29  86.3962
 46.7776  7472.54  86.3575
 46.8196  7451.5  85.8332
 46.8616  7325.78  85.0433
 46.9036  7282.17  84.4573
 46.9456  7468.87  85.1584
 46.9876  7339.09  84.5054
 47.0296  7437.25  85.7561
 47.0716  7302.39  84.8067
 47.1136  7390.32  84.9907
 47.1556  7393.2  84.8666
 47.1976  7576.01  85.9829
 47.2396  7298.13  84.8091
 47.2816  7441.75  85.3398
 47.3236  7372.17  85.3022
 47.3656  7509.5  86.0331
 47.4076  7412.57  85.2644
 47.4496  7355.75  85.0413
 47.4916  7408.66  85.5291
 47.5336  7448.22  85.5779
 47.5756  7454.81  85.6877
 47.6176  7382.41  85.2206
 47.6596  7293.19  84.4148
 47.7016  7600.54  85.9682
 47.7436  7509.79  85.8144
 47.7856  7585.97  86.2619
 47.8276  7454.99  85.5745
 47.8696  7389.47  85.2722
 47.9116  7432.46  85.2399
 47.9536  7363.49  84.7793
 47.9956  7317.19  85.2319
 48.0376  7342.24  85.1543
 48.0796  7346.5  85.3046
 48.1216  7366.13  85.2438
 48.1636  7485.81  85.4902
 48.2056  7433.19  85.4599
 48.2476  7505.56  86.188
 48.2896  7497.31  86.0404
 48.3316  7447.24  85.6937
 48.3736  7370.18  85.2811
 48.4156  7365.66  85.1045
 48.4576  7318.08  85.1224
 48.4996  7533.06  85.8121
 48.5416  7471.48  85.783
 48.5836  7421.32  85.1728
 48.6256  7383.69  85.1578
 48.6676  7416.81  85.8759
 48.7096  7332.57  84.6413
 48.7516  7304.3  84.633
 48.7936  7300.3  84.6794
 48.8356  7372.39  85.1474
 48.8776  7374.06  85.6551
 48.9196  7507.54  85.8578
 48.9616  7343.06  85.3018
 49.0036  7393.8  85.9526
 49.0456  7297.32  85.3722
 49.0876  7330.83  85.2016
 49.1296  7290.61  85.0243
 49.1716  7249.02  84.6556
 49.2136  7404.08  85.4751
 49.2556  7413.96  85.5638
 49.2976  7414.41  85.6401
 49.3396  7379.49  85.4813
 49.3816  7451.27  85.3173
 49.4236  7381.65  85.3513
 49.4656  7235.45  84.5332
 49.5076  7378.75  85.1054
 49.5496  7362.13  84.9468
 49.5916  7412.57  85.284
 49.6336  7248.89  84.5339
 49.6756  7313.14  85.1494
 49.7176  7268.19  84.83
 49.7596  7394.94  85.5108
 49.8016  7418.04  85.3778
 49.8436  7318  85.1041
 49.8856  7293.03  84.9607
 49.9276  7217.96  84.6309
 49.9696  7378.9  85.5472
 50.0116  7342.97  85.4757
 50.0536  7289.83  85.1087
 50.0956  7283.28  85.1446
 50.1376  7323.24  85.0653
 50.1796  7179.58  84.5013
 50.2216  7188.47  84.543
 50.2636  7301.16  84.8173
 50.3056  7186.99  84.3359
 50.3476  7315.02  85.0984
 50.3896  7112.59  83.884
 50.4316  7322.3  84.944
 50.4736  7214.62  84.5417
 50.5156  7283.81  84.925
 50.5576  7405.29  85.3896
 50.5996  7202.85  84.505
 50.6416  7268.72  84.8026
 50.6836  7282.13  84.9564
 50.7256  7262.15  84.7608
 50.7676  7412.28  85.9187
 50.8096  7220.82  84.3657
 50.8516  7197.51  84.6644
 50.8936  7093.08  83.8137
 50.9356  7345.79  85.4114
 50.9776  7171.38  84.5481
 51.0196  6856.35  82.7992
 51.0616  7127.27  83.7409
 51.1036  7224.64  84.6716
 51.1456  7151.36  84.1587
 51.1876  7081.58  83.0677
 51.2296  7136.58  84.0436
 51.2716  7074.55  83.3623
 51.3136  7059.66  83.7543
 51.3556  7110.95  83.6606
 51.3976  7052.89  83.4725
 51.4396  6869.74  82.705
 51.4816  6963.02  83.1164
 51.5236  7041.79  83.6783
 51.5656  6949.5  82.7123
 51.6076  7095.41  83.6713
 51.6496  7001.07  83.292
 51.6916  7072.45  84.0935
 51.7336  6994.55  83.7098
 51.7756  6991.32  83.3918
 51.8176  6948  83.2212
 51.8596  7050.9  83.8707
 51.9016  7167.91  84.1595
 51.9436  7200.1  85.8673
 51.9856  7077.69  85.5689
 52.0276  7089.19  84.0834
 52.0696  7269.55  85.2226
 52.1116  7026.02  83.9011
 52.1536  7182.12  84.7145
 52.1956  7145.29  83.9376
 52.2376  7236.82  84.6418
 52.2796  7142.6  83.9173
 52.3216  7035.72  83.9795
 52.3636  7005.2  83.3472
 52.4056  6973.58  83.0389
 52.4476  6905.86  82.999
 52.4896  6987.23  83.5356
 52.5316  7190.71  84.8045
 52.5736  7062.84  83.758
 52.6156  7206.44  85.0145
 52.6576  7032.59  83.3849
 52.6996  6890.09  83.5516
 52.7416  6830.2  83.0356
 52.7836  7005.19  83.9858
 52.8256  7056.38  83.4862
 52.8676  6735.82  82.1374
 52.9096  7198.43  84.9965
 52.9516  6950.02  83.9258
 52.9936  7058.16  84.9495
 53.0356  6955.19  83.3236
 53.0776  7041.51  84.1412
 53.1196  7013.53  84.0793
 53.1616  7103.9  84.6704
 53.2036  6986.88  83.9297
 53.2456  6901.09  83.5203
 53.2876  6959.26  83.5543
 53.3296  7037.08  84.3424
 53.3716  7035.85  84.0781
 53.4136  6999.49  84.0334
 53.4556  7011.05  84.1283
 53.4976  6954.83  83.6265
 53.5396  6936.89  83.9264
 53.5816  6963.56  83.7154
 53.6236  6832.85  83.2831
 53.6656  6939.09  83.5108
 53.7076  6993.36  83.7964
 53.7496  7098.97  84.5656
 53.7916  6951.1  83.818
 53.8336  6968.08  83.8118
 53.8756  6849.08  83.6557
 53.9176  6979.11  83.7618
 53.9596  6713.14  82.9125
 54.0016  6703.47  82.1865
 54.0436  6605.19  81.7999
 54.0856  6830.58  82.5997
 54.1276  6687.44  81.928
 54.1696  6643.47  81.8295
 54.2116  6930.68  83.2965
 54.2536  6674.11  81.5615
 54.2956  6776.17  82.2315
 54.3376  6723.2  82.3994
 54.3796  6681.48  82.038
 54.4216  6691.77  82.1777
 54.4636  6611.43  81.6406
 54.5056  6813.61  82.6761
 54.5476  6667.05  82.1343
 54.5896  6737.94  82.3885
 54.6316  6695.73  81.9701
 54.6736  6596.26  81.4272
 54.7156  6600.81  81.5108
 54.7576  6563.77  81.2709
 54.7996  6668.62  82.0605
 54.8416  6635.51  81.9117
 54.8836  6714.86  82.4933
 54.9256  6636.13  81.7754
 54.9676  6564.41  81.1893
 55.0096  6592.08  81.4134
 55.0516  6504.05  81.0299
 55.0936  6644.19  81.6225
 55.1356  6538.53  81.0193
 55.1776  6667.73  82.0604
 55.2196  6596.9  81.4087
 55.2616  6758.82  82.6247
 55.3036  6502.2  81.213
 55.3456  6419.86  80.8229
 55.3876  6603.44  81.7277
 55.4296  6426.55  80.6051
 55.4716  6531.46  81.281
 55.5136  6512.17  80.9317
 55.5556  6681.47  82.0254
 55.5976  6458.64  80.7342
 55.6396  6654.59  81.8774
 55.6816  6490.47  80.7324
 55.7236  6486.28  80.8567
 55.7656  6497.79  80.5599
 55.8076  6468.12  80.3813
 55.8496  6429.79  80.4486
 55.8916  6417.1  80.5473
 55.9336  6630.28  81.7368
 55.9756  6432.49  80.3732
 56.0176  6435.5  80.5567
 56.0596  6417.61  80.4385
 56.1016  6334.35  79.9695
 56.1436  6330.93  80.1586
 56.1856  6306.53  79.7669
 56.2276  6528.8  81.1948
 56.2696  6513.63  81.0841
 56.3116  6439.72  81.0088
 56.3536  6377.04  80.2772
 56.3956  6313.98  79.8413
 56.4376  6453.73  80.781
 56.4796  6369.24  80.0606
 56.5216  6386.15  80.5543
 56.5636  6330.14  79.7719
 56.6056  6488.57  81.0053
 56.6476  6455.98  80.3915
 56.6896  6518.84  81.269
 56.7316  6384.97  80.34
 56.7736  6389.75  80.3769
 56.8156  6396.98  80.4252
 56.8576  6270.25  79.5663
 56.8996  6416.85  80.3876
 56.9416  6268.42  79.6446
 56.9836  6473.8  80.5873
 57.0256  6280.35  79.6911
 57.0676  6436.24  80.8008
 57.1096  6264.05  79.4979
 57.1516  6228.92  79.2851
 57.1936  6282.89  79.4149
 57.2356  6161.96  78.9812
 57.2776  6279.86  79.6953
 57.3196  6358.73  80.5566
 57.3616  6306.66  79.715
 57.4036  6346.12  79.9998
 57.4456  6410.51  80.3985
 57.4876  6355.54  79.9149
 57.5296  6216.79  79.2741
 57.5716  6269.82  79.7095
 57.6136  6150.8  78.7872
 57.6556  6315.01  79.9558
 57.6976  6368.15  80.124
 57.7396  6202.75  79.4215
 57.7816  6193.59  79.743
 57.8236  6152.73  79.2382
 57.8656  6239.99  79.4834
 57.9076  6206.13  79.2911
 57.9496  6140.18  79.2248
 57.9916  6240.02  79.3302
 58.0336  6143.95  79.0496
 58.0756  6339.23  79.9075
 58.1176  6187.26  78.9575
 58.1596  6126.3  79.1489
 58.2016  6115.82  78.3188
 58.2436  6063.19  78.3679
 58.2856  5994.54  77.8422
 58.3276  5987.15  78.1648
 58.3696  5974.53  77.846
 58.4116  5990.48  77.8125
 58.4536  6017.18  77.8775
 58.4956  5925.43  77.4548
 58.5376  6084.35  78.0506
 58.5796  6009.17  77.9869
 58.6216  6007.22  77.8033
 58.6636  6090.66  78.5414
 58.7056  5956.86  77.5418
 58.7476  6145.5  79.2076
 58.7896  5954.46  77.6129
 58.8316  5991.11  77.8548
 58.8736  6145.56  78.8574
 58.9156  5985.82  77.8738
 58.9576  5976.05  78.0141
 58.9996  6085.63  78.0882
 59.0416  6033.43  78.1047
 59.0836  6085.02  78.3566
 59.1256  6024.83  78.3647
 59.1676  5943.35  78.4458
 59.2096  6001.98  78.1203
 59.2516  6168.92  78.776
 59.2936  5989.33  77.9475
 59.3356  5867.83  77.0324
 59.3776  5951.7  77.7487
 59.4196  5867.34  77.1328
 59.4616  5924.5  77.3688
 59.5036  5943.78  77.5298
 59.5456  5942.96  77.2201
 59.5876  6072.39  78.2481
 59.6296  5935.06  77.4268
 59.6716  5929.23  77.4462
 59.7136  5862.86  76.9999
 59.7556  5792.25  76.6685
 59.7976  5785.01  76.3682
 59.8396  5863.3  76.7791
 59.8816  5965.61  77.9874
 59.9236  5956.56  77.575
 59.9656  6053  78.4616
 60.0076  6033.2  77.6908
 60.0496  5921.22  77.4631
 60.0916  6169.37  78.4839
 60.1336  5810.45  77.2525
 60.1756  6113.45  80.4323
 60.1996  0.0000000E+00  0.0000000E+00