File: docs/examples/opeando_xrd/IS17_D/Data/IS17_D/17_Db_f00113.xye
# /beamlines/bl04/projects/cycle2025-II/20250340211-lsimonelli/DATA/IS17_D/17_Db_f00113.xye : mythproc.py merge -s 0.006 -l 0.5 -f /beamlines/bl04/inhouse/ff/FlatField/ff_20Nov2024rod8mm60s_17keV.raw -b True -c true -o xye /beamlines/bl04/projects/cycle2025-II/20250340211-lsimonelli/DATA/IS17_D/17_Db_00113.dat
# IsMon = [6754180, 6751744, 6749633]  IsPos = [-1.4999, -2.4884, -3.4988]
# Wave = 0.4962  CalPath /beamlines/bl04/projects/cycle2025-II/20250340211-lsimonelli/DATA/Align/Si_Pos1_25keV_f00001.cal
# Date = 2025-09-25_01:12:08 Dt = 4.8000  Bin = 0.0060  <imon> = 6751852 +/- 1858 (Min/Max) 6749633 / 6754180
# icurr 249.7347  mocoIn 1.7045E-05  mocoOut 0.7996  i15 7.07721e+06  imon 6.75185e+06  i7 4.6667  iEMpd_timer 4.8000  iEMpd_1 3.3711E-08  iEMpd_2 7.7875E-08  iEMpd_3 1.7590E-08  iEMpd_4 4.7672E-08  iEMhp_timer 4.8000  iEMhp_1 4.8791E-06  iEMhp_2 -2.5767E-08  iEMhp_3 -2.4521E-08  iEMhp_4 -2.0730E-08
#      9776
 1.5856  44809.9  217.328
 1.6276  51383  228.729
 1.6696  57505.9  241.12
 1.7116  64594.1  256.048
 1.7536  72382.1  269.89
 1.7956  76134.3  277.489
 1.8376  73031.1  272.206
 1.8796  62861.7  250.691
 1.9216  52380.7  229.747
 1.9636  45276.6  212.725
 2.0056  41572  203.046
 2.0476  38818.7  198.358
 2.0896  37415.6  193.598
 2.1316  36597.4  190.549
 2.1736  34784.3  187.243
 2.2156  35521.7  187.698
 2.2576  34054.5  184.437
 2.2996  33180.7  182.726
 2.3416  33490.8  182.113
 2.3836  32818.5  180.387
 2.4256  31701.5  177.868
 2.4676  31629.9  177.416
 2.5096  31180.6  176.209
 2.5516  30050.4  176.96
 2.5936  29908.6  173.003
 2.6356  29336.3  172.076
 2.6776  29493.2  171.393
 2.7196  28929.3  170.25
 2.7616  28857.7  169.826
 2.8036  28590  169.205
 2.8456  28331.8  169.098
 2.8876  27551.7  166.622
 2.9296  27251.6  165.836
 2.9716  27074.2  164.771
 3.0136  26732.4  163.796
 3.0556  26916.5  164.766
 3.0976  26878  163.52
 3.1396  26260.7  162.378
 3.1816  26037.7  161.63
 3.2236  25880.6  161.125
 3.2656  25705.1  159.606
 3.3076  25470.4  160.37
 3.3496  25691.9  159.969
 3.3916  25849.8  160.277
 3.4336  26427.8  162.655
 3.4756  26734.1  163.531
 3.5176  27358.7  165.195
 3.5596  26905.9  166.329
 3.6016  27240.5  164.929
 3.6436  26059.8  162.439
 3.6856  25961.4  160.401
 3.7276  24747.4  157.699
 3.7696  24491.8  157.085
 3.8116  24319.4  156.41
 3.8536  24362.8  156.478
 3.8956  24186.3  155.727
 3.9376  24191.9  156.022
 3.9796  23982.4  154.827
 4.0216  24064.6  154.112
 4.0636  24077.2  155.655
 4.1056  23923  154.797
 4.1476  24351.8  156.484
 4.1896  24175.3  155.776
 4.2316  24610.3  157.003
 4.2736  24886.1  157.673
 4.3156  25070.7  158.499
 4.3576  25844  160.814
 4.3996  25945.7  161.421
 4.4416  26550.2  162.865
 4.4836  26884.7  164.049
 4.5256  27482.3  166.47
 4.5676  27226.5  165.961
 4.6096  27949.2  166.775
 4.6516  28249.7  167.377
 4.6936  28328.7  168.453
 4.7356  28568.1  168.974
 4.7776  28323  168.084
 4.8196  28061.8  167.944
 4.8616  27549.5  165.901
 4.9036  27487.8  165.433
 4.9456  27425  165.919
 4.9876  26790.6  163.886
 5.0296  27008  164.391
 5.0716  26778.2  164.459
 5.1136  26868.3  164.443
 5.1556  27183.1  164.857
 5.1976  27680  166.338
 5.2396  27613.7  165.835
 5.2816  27809.6  166.892
 5.3236  27672.4  166.175
 5.3656  27250.6  165.853
 5.4076  27121.8  165.592
 5.4496  26934.8  164.526
 5.4916  27128.1  164.864
 5.5336  27149.8  164.943
 5.5756  27140.5  164.913
 5.6176  27305.5  164.859
 5.6596  27612.9  166.775
 5.7016  27624.1  166.07
 5.7436  27543.6  166.109
 5.7856  27447.5  165.886
 5.8276  27771.5  166.579
 5.8696  27972.9  167.35
 5.9116  27875.2  167.664
 5.9536  28296.2  168.653
 5.9956  28430.7  168.449
 6.0376  28451.1  169.136
 6.0796  28734.4  169.798
 6.1216  28447.6  169.159
 6.1636  28817.2  169.285
 6.2056  28745.6  169.776
 6.2476  29149.5  170.827
 6.2896  29330.4  171.03
 6.3316  29448.5  171.54
 6.3736  29340  171.123
 6.4156  29534.9  171.565
 6.4576  29465.9  170.994
 6.4996  29544.5  171.715
 6.5416  29659.1  172.17
 6.5836  29685.1  172.489
 6.6256  29952.7  172.812
 6.6676  30456.2  173.826
 6.7096  30582.5  175.043
 6.7516  30717.2  175.094
 6.7936  30750.2  174.59
 6.8356  31261.3  176.116
 6.8776  31121.6  176.552
 6.9196  31369.1  177.651
 6.9616  31955.2  178.738
 7.0036  32055.8  178.659
 7.0456  32303.8  178.644
 7.0876  32031.3  179.592
 7.1296  32135.8  179.005
 7.1716  32189.8  178.693
 7.2136  31814  177.431
 7.2556  32115.1  178.425
 7.2976  32237.9  179.267
 7.3396  31798.8  178.258
 7.3816  32082.1  179.272
 7.4236  32182.1  178.839
 7.4656  32446.4  179.027
 7.5076  32710  179.912
 7.5496  32604  180.168
 7.5916  32500.7  179.92
 7.6336  32876.7  180.844
 7.6756  33146.6  181.433
 7.7176  33715.3  183.301
 7.7596  33227.7  183.208
 7.8016  34124.7  187.913
 7.8436  33504.6  182.876
 7.8856  33733.6  183.109
 7.9276  34295.4  185.032
 7.9696  34753.7  186.562
 8.0116  35613  187.402
 8.0536  35343.6  186.933
 8.0956  35617.8  188.839
 8.1376  36152.3  189.727
 8.1796  36496.8  191.156
 8.2216  37149.6  191.602
 8.2636  37344.8  192.361
 8.3056  36956.5  192.131
 8.3476  37569.9  193.039
 8.3896  37307.6  192.447
 8.4316  37603.8  193.376
 8.4736  37751.5  193.225
 8.5156  37175.4  192.019
 8.5576  36952.6  192.403
 8.5996  37063.2  191.575
 8.6416  37067.4  192.839
 8.6836  36701.8  191.731
 8.7256  37236  192.556
 8.7676  37029.2  194.945
 8.8096  37511.9  193.476
 8.8516  37486.6  192.971
 8.8936  36506.7  190.393
 8.9356  37263.4  192.678
 8.9776  36991.7  192.07
 9.0196  37511.6  193.064
 9.0616  36872.4  190.926
 9.1036  36708.8  191.681
 9.1456  36146.9  189.551
 9.1876  36377.3  190.085
 9.2296  36222.3  189.125
 9.2716  35975.3  188.502
 9.3136  36106.1  188.844
 9.3556  36347.1  189.445
 9.3976  35187.1  186.92
 9.4396  35204  186.872
 9.4816  34942.4  186.012
 9.5236  34530.9  184.835
 9.5656  34532.6  185.193
 9.6076  33851.4  183.893
 9.6496  33929.7  183.966
 9.6916  33745.3  183.449
 9.7336  33898.9  183.626
 9.7756  33741.8  184.48
 9.8176  33512.4  183.339
 9.8596  33574.9  181.941
 9.9016  33343  181.294
 9.9436  32899.1  180.018
 9.9856  32593.3  179.445
 10.0276  32492.9  180.254
 10.0696  32626.7  179.656
 10.1116  31546.9  176.918
 10.1536  31674.4  177.431
 10.1956  30998.5  175.141
 10.2376  31194.8  175.187
 10.2796  30844  174.322
 10.3216  30326.6  173.13
 10.3636  30316.8  173.139
 10.4056  29384.4  170.868
 10.4476  29628.4  171.176
 10.4896  29591.9  170.518
 10.5316  28980.4  169.474
 10.5736  28885.7  169.603
 10.6156  28864.4  169.283
 10.6576  28789.4  167.634
 10.6996  28107.2  166.343
 10.7416  28036.3  166.346
 10.7836  27648.9  165.873
 10.8256  27294.5  165.235
 10.8676  27369.8  165.005
 10.9096  27120.1  164.274
 10.9516  27073.8  163.089
 10.9936  27048.8  163.218
 11.0356  26853.7  163.243
 11.0776  26744.9  162.241
 11.1196  26265.7  161.542
 11.1616  25793  159.748
 11.2036  26138.8  160.66
 11.2456  26007.6  160.974
 11.2876  26341.1  161.72
 11.3296  25737.4  159.775
 11.3716  26022.6  160.349
 11.4136  25909.8  160.891
 11.4556  25852.9  160.376
 11.4976  26327.6  160.826
 11.5396  26590.4  161.8
 11.5816  27129.2  163.882
 11.6236  27514.4  165.278
 11.6656  27126.4  163.229
 11.7076  26074.8  160.883
 11.7496  25774.7  164
 11.7916  25501.7  158.361
 11.8336  25042.4  157.823
 11.8756  24978.5  157.164
 11.9176  24869.8  156.495
 11.9596  24917.2  156.809
 12.0016  24732.1  157.014
 12.0436  24841.1  156.783
 12.0856  24393.8  155.88
 12.1276  24429.8  155.946
 12.1696  24459.6  155.146
 12.2116  24422.5  155.042
 12.2536  24005.9  154.526
 12.2956  24096.2  154.161
 12.3376  24433.3  155.433
 12.3796  24343.5  155.635
 12.4216  24259.1  154.556
 12.4636  23982.8  154.617
 12.5056  24022.5  154.002
 12.5476  24231.1  154.177
 12.5896  23974.3  154.016
 12.6316  24286.2  155.157
 12.6736  23869.6  154.313
 12.7156  23962.6  154.441
 12.7576  23981.6  154.781
 12.7996  24186.9  154.061
 12.8416  23905  154.22
 12.8836  24140  154.813
 12.9256  24496.7  154.97
 12.9676  24363.6  154.956
 13.0096  24497.9  156.492
 13.0516  24531.9  155.635
 13.0936  25018.3  157.577
 13.1356  25189.6  157.073
 13.1776  24768.9  156.782
 13.2196  24992  157.123
 13.2616  24546.3  156.04
 13.3036  24899  157.11
 13.3456  24537.5  156.325
 13.3876  24986.9  157.008
 13.4296  24504.8  155.658
 13.4716  24746.1  156.042
 13.5136  24815.9  156.398
 13.5556  24770.3  156.888
 13.5976  24824.5  157.231
 13.6396  24637.1  155.995
 13.6816  24921.3  157.362
 13.7236  25199.6  157.821
 13.7656  26662.8  162.77
 13.8076  27477.9  163.889
 13.8496  26900.9  162.846
 13.8916  25013.2  158.182
 13.9336  24359.4  155.366
 13.9756  24465  155.069
 14.0176  24079.9  154.537
 14.0596  24171.9  154.759
 14.1016  23926.6  154.392
 14.1436  24013.2  153.789
 14.1856  23492.5  152.413
 14.2276  23489.6  152.882
 14.2696  23389.9  152.417
 14.3116  22924  150.808
 14.3536  22548  149.722
 14.3956  22691.2  149.921
 14.4376  22990  150.685
 14.4796  22862.3  150.267
 14.5216  22488.3  149.827
 14.5636  22230.4  148.536
 14.6056  22620.4  149.381
 14.6476  22400.2  147.898
 14.6896  21969.7  147.018
 14.7316  21580.2  146.741
 14.7736  21372.5  145.175
 14.8156  21315.9  145.01
 14.8576  21246  144.619
 14.8996  20935.9  144.768
 14.9416  20479.1  143.185
 14.9836  20565.7  143.487
 15.0256  19881.8  140.004
 15.0676  20014.6  140.781
 15.1096  19722.3  139.487
 15.1516  19552.9  139.441
 15.1936  19607.8  139.069
 15.2356  19005.7  137.193
 15.2776  19053.5  136.957
 15.3196  18777.7  136.952
 15.3616  18849.3  136.973
 15.4036  18548.7  135.738
 15.4456  18952.3  136.855
 15.4876  18672.5  135.522
 15.5296  18558  135.388
 15.5716  18196.1  133.671
 15.6136  18219  134.073
 15.6556  18108.3  132.917
 15.6976  18016  132.87
 15.7396  17929.4  132.937
 15.7816  17826.9  132.074
 15.8236  17453.3  131.371
 15.8656  17573.6  131.614
 15.9076  17335.2  130.54
 15.9496  18076.7  136.114
 15.9916  17827.3  135.592
 16.0336  17932.6  132.815
 16.0756  17825  132.755
 16.1176  17501.4  131.629
 16.1596  17298.8  132.05
 16.2016  17181.3  130.36
 16.2436  16939.9  129.819
 16.2856  17067.5  129.795
 16.3276  16935  129.75
 16.3696  16944.1  129.611
 16.4116  16896.6  129.863
 16.4536  16956.8  129.914
 16.4956  16869.4  129.3
 16.5376  16608.6  128.496
 16.5796  16640.9  127.987
 16.6216  16710.7  128.506
 16.6636  16474.1  127.808
 16.7056  16591.3  128.11
 16.7476  16749  128.243
 16.7896  16395.2  127.616
 16.8316  16487.4  127.966
 16.8736  16714.8  129.093
 16.9156  16402.9  128.22
 16.9576  16366.5  128.872
 16.9996  16308.8  129.112
 17.0416  16616.3  128.692
 17.0836  16682.1  128.7
 17.1256  16369.3  127.495
 17.1676  16423.8  127.669
 17.2096  16069.2  126.178
 17.2516  16229.4  126.59
 17.2936  16129  126.552
 17.3356  16048.2  126.208
 17.3776  15733  125.164
 17.4196  15662.4  124.576
 17.4616  15699.4  124.637
 17.5036  15218.7  123.084
 17.5456  15409.5  124.479
 17.5876  15513.1  123.93
 17.6296  15221.9  122.598
 17.6716  15228.6  123.205
 17.7136  15120.6  122.894
 17.7556  15066.6  122.979
 17.7976  14986.4  122.375
 17.8396  14881.8  121.448
 17.8816  14883.3  122.029
 17.9236  14863.4  121.735
 17.9656  14711.6  121.644
 18.0076  14697.8  121.173
 18.0496  14632.9  120.042
 18.0916  14749.9  121.08
 18.1336  14493.1  120.11
 18.1756  14742.6  120.696
 18.2176  14276  118.978
 18.2596  14236.6  118.547
 18.3016  14498.5  119.894
 18.3436  14476.7  119.807
 18.3856  14365.8  119.472
 18.4276  14390.7  119.27
 18.4696  14274.2  118.866
 18.5116  14245.1  119.017
 18.5536  14378  119.939
 18.5956  14221.3  118.843
 18.6376  14087.2  118.68
 18.6796  14172.8  118.36
 18.7216  14183.5  118.894
 18.7636  14222.6  119.054
 18.8056  14014.1  118.1
 18.8476  13936.4  118.415
 18.8896  14019.1  118.094
 18.9316  14054.4  118.227
 18.9736  14042.8  117.877
 19.0156  13901.5  117.696
 19.0576  14213.5  117.844
 19.0996  14140.9  118.268
 19.1416  13953.9  117.871
 19.1836  13983.3  117.606
 19.2256  13951.2  117.693
 19.2676  14005.7  118.005
 19.3096  13876.7  117.715
 19.3516  13940.9  117.94
 19.3936  13860.4  117.49
 19.4356  13984.8  117.898
 19.4776  13987.7  118.002
 19.5196  13849.4  117.262
 19.5616  13815.2  117.382
 19.6036  13760.8  116.662
 19.6456  13916.5  117.433
 19.6876  13887.9  116.951
 19.7296  14055.2  118.103
 19.7716  13775.4  117.097
 19.8136  14155.6  118.894
 19.8556  14149.2  118.36
 19.8976  13916.8  117.438
 19.9396  14140.4  117.968
 19.9816  14162.8  118.318
 20.0236  14634.2  120.447
 20.0656  14714.4  120.791
 20.1076  14994.5  122.419
 20.1496  15052.8  122.655
 20.1916  15257  122.975
 20.2336  14833.9  121.18
 20.2756  14356.4  119.659
 20.3176  14014.3  117.98
 20.3596  13820.3  117.145
 20.4016  13929.4  117.393
 20.4436  13651.9  116.791
 20.4856  13840.9  117.38
 20.5276  13571.9  116.704
 20.5696  13678.1  116.589
 20.6116  13411.3  115.729
 20.6536  13453.2  115.432
 20.6956  13462.3  115.598
 20.7376  13252  114.907
 20.7796  13219.3  114.455
 20.8216  13471.4  115.254
 20.8636  13340.9  115.06
 20.9056  13271.2  114.703
 20.9476  13192.6  114.205
 20.9896  13359.2  114.785
 21.0316  13208.8  114.043
 21.0736  13122.2  114.186
 21.1156  12997.9  113.813
 21.1576  13089.6  114.25
 21.1996  13127.2  114.396
 21.2416  13187.9  114.475
 21.2836  13084.7  114.009
 21.3256  13131.1  114.285
 21.3676  13123.9  113.778
 21.4096  12923  113.234
 21.4516  12884.7  112.939
 21.4936  12676.8  112.292
 21.5356  12953  113.449
 21.5776  12915.5  113.122
 21.6196  12732.9  112.358
 21.6616  12723.5  112.404
 21.7036  12940  113.125
 21.7456  12938.6  113.193
 21.7876  12759  112.165
 21.8296  12795.2  112.173
 21.8716  12818  112.494
 21.9136  12914.8  113.131
 21.9556  12686.2  111.796
 21.9976  12605  111.471
 22.0396  12616.4  111.774
 22.0816  12650.5  112.455
 22.1236  12890.3  112.964
 22.1656  12656.3  112.086
 22.2076  12697.1  111.722
 22.2496  12570.5  111.194
 22.2916  12519.1  110.857
 22.3336  12617.8  112.01
 22.3756  12462.8  111.046
 22.4176  12331.5  110.309
 22.4596  12223.6  110.418
 22.5016  12478.6  111.057
 22.5436  12497.1  111.026
 22.5856  12561.9  111.555
 22.6276  12843.3  112.919
 22.6696  12538.6  111.94
 22.7116  12458.1  111.089
 22.7536  12521.4  111.351
 22.7956  12593.3  110.996
 22.8376  12235.9  109.936
 22.8796  12289.2  109.974
 22.9216  12385.4  110.949
 22.9636  12448.2  110.374
 23.0056  12327.5  109.973
 23.0476  12494.3  111.29
 23.0896  12565.5  110.985
 23.1316  12406.3  110.713
 23.1736  12656.5  114.758
 23.2156  12713.5  112.4
 23.2576  13103.6  114.229
 23.2996  12823.1  112.787
 23.3416  12917.9  113.728
 23.3836  12895.9  112.859
 23.4256  13001  113.433
 23.4676  12754  112.048
 23.5096  12751.6  112.697
 23.5516  12758.1  112.026
 23.5936  12636.1  112.4
 23.6356  12884.5  113.158
 23.6776  12654.8  112.361
 23.7196  12664.1  111.971
 23.7616  12578.7  111.519
 23.8036  12910.3  113.02
 23.8456  12706  111.682
 23.8876  12620.3  111.647
 23.9296  12453  111.407
 23.9716  12484.9  110.751
 24.0136  12504.4  111.745
 24.0556  12335.5  110.701
 24.0976  12344.2  110.558
 24.1396  12202.4  112.556
 24.1816  12378.1  111.757
 24.2236  12215.1  110.635
 24.2656  12135.7  109.75
 24.3076  12094.9  109.832
 24.3496  12096.4  109.72
 24.3916  12110.4  109.826
 24.4336  12222  110.544
 24.4756  12072.1  109.745
 24.5176  11968.9  108.909
 24.5596  11862  108.537
 24.6016  11761.5  108.375
 24.6436  11981.6  108.882
 24.6856  11717.4  107.418
 24.7276  11725.9  107.791
 24.7696  11795.4  108.219
 24.8116  11700.5  107.958
 24.8536  11652.9  107.742
 24.8956  11571.8  107.091
 24.9376  11719.7  107.714
 24.9796  11437.1  106.768
 25.0216  11438.6  106.881
 25.0636  11391.5  106.322
 25.1056  11376.9  106.952
 25.1476  11332.7  108.403
 25.1896  11377.2  107.107
 25.2316  11375.5  106.375
 25.2736  11284.1  105.595
 25.3156  11276.3  105.632
 25.3576  11106.4  105.263
 25.3996  11227.4  105.823
 25.4416  11140.2  105.382
 25.4836  10941.8  104.957
 25.5256  11048.2  104.822
 25.5676  11119.1  104.898
 25.6096  11012.7  104.969
 25.6516  11045.6  104.628
 25.6936  11058.6  104.999
 25.7356  11011.3  104.918
 25.7776  11073.8  104.812
 25.8196  10798.4  103.74
 25.8616  10881.3  104.07
 25.9036  11036.7  104.258
 25.9456  10848  103.961
 25.9876  10948.5  104.501
 26.0296  11021.5  104.367
 26.0716  10989.6  104.635
 26.1136  10947.3  104.38
 26.1556  10933  103.691
 26.1976  10920.5  104.565
 26.2396  10922.7  103.726
 26.2816  10950.8  104.47
 26.3236  10840.3  104.09
 26.3656  11056.1  104.838
 26.4076  10951.6  104.565
 26.4496  11046.8  104.595
 26.4916  11280.6  105.585
 26.5336  11402.4  106.504
 26.5756  11609.3  107.353
 26.6176  11008.3  104.557
 26.6596  10949.5  104.585
 26.7016  10941.5  104.31
 26.7436  10969.1  104.563
 26.7856  10664.3  103.098
 26.8276  10720.2  103.333
 26.8696  10750.4  103.343
 26.9116  10551  102.314
 26.9536  10416.8  101.718
 26.9956  10464.1  101.987
 27.0376  10555.9  102.646
 27.0796  10426.1  101.738
 27.1216  10543.3  102.366
 27.1636  10436.2  102.021
 27.2056  10449.6  101.977
 27.2476  10451.4  101.969
 27.2896  10282.8  101.263
 27.3316  10407  101.589
 27.3736  10338.2  101.529
 27.4156  10388.2  101.604
 27.4576  10313.8  101.463
 27.4996  10436.1  101.656
 27.5416  10315.8  101.394
 27.5836  10385.7  101.569
 27.6256  10286  101.253
 27.6676  10217.2  100.914
 27.7096  10208.4  100.739
 27.7516  10244.2  101.073
 27.7936  10540.8  102.669
 27.8356  10512.3  102.143
 27.8776  10487.9  102.077
 27.9196  10205.4  100.557
 27.9616  10147.1  100.473
 28.0036  10172.9  100.561
 28.0456  10077.7  100.235
 28.0876  10070.3  100.274
 28.1296  10154.7  100.53
 28.1716  10100.5  100.274
 28.2136  10080.8  100.149
 28.2556  10071  100.205
 28.2976  9936.43  99.5384
 28.3396  9915.35  99.1975
 28.3816  9963.47  99.435
 28.4236  9830.52  98.9298
 28.4656  9929.6  99.4631
 28.5076  9937.75  99.1458
 28.5496  9964.64  99.5368
 28.5916  9938.05  99.215
 28.6336  10013.6  99.9291
 28.6756  9923.85  98.675
 28.7176  9878.13  99.0086
 28.7596  9844.84  98.7386
 28.8016  9839.32  98.747
 28.8436  9670.99  98.1374
 28.8856  9823.82  98.761
 28.9276  9766.99  98.7198
 28.9696  9727.82  98.1729
 29.0116  9718.83  98.3275
 29.0536  9597.92  97.9128
 29.0956  9782.78  98.5511
 29.1376  9747.08  98.3386
 29.1796  9860.67  98.9588
 29.2216  9758.17  98.2875
 29.2636  9771.03  98.4237
 29.3056  9739.1  98.0469
 29.3476  9785.45  98.8114
 29.3896  9723.29  98.6164
 29.4316  9562.54  97.1364
 29.4736  9423.84  96.4963
 29.5156  9448.01  96.5412
 29.5576  9469.53  97.3784
 29.5996  9436.95  96.4816
 29.6416  9479.76  96.814
 29.6836  9502.09  96.8604
 29.7256  9463.86  97.226
 29.7676  9378.62  96.4551
 29.8096  9319.01  96.0883
 29.8516  9354.05  96.6009
 29.8936  9473.48  97.3058
 29.9356  9658.71  98.0064
 29.9776  9316.5  96.3996
 30.0196  9400.73  96.2303
 30.0616  9388.72  96.5429
 30.1036  9386.78  96.3568
 30.1456  9403.37  96.6768
 30.1876  9355.98  96.4067
 30.2296  9242.84  95.7794
 30.2716  9431.4  96.3872
 30.3136  9386.26  97.0076
 30.3556  9571.18  97.9523
 30.3976  9387.9  98.5043
 30.4396  9720.98  97.5544
 30.4816  9609.96  96.6098
 30.5236  9639.46  96.7418
 30.5656  9541.82  96.9317
 30.6076  9569.56  96.4862
 30.6496  9698.62  97.5417
 30.6916  9352.04  95.8761
 30.7336  9502.82  96.7779
 30.7756  9539.43  97.065
 30.8176  9594.94  97.2745
 30.8596  9627.27  97.1698
 30.9016  9523.36  97.0015
 30.9436  9650.22  97.4051
 30.9856  9764.1  98.0894
 31.0276  9518.34  96.4764
 31.0696  9456.23  96.7205
 31.1116  9413.88  96.4703
 31.1536  9338.44  95.976
 31.1956  9467.11  96.71
 31.2376  9124.89  94.9848
 31.2796  9484.97  96.3643
 31.3216  9326.39  95.4711
 31.3636  9415.02  96.6365
 31.4056  9305.89  97.3955
 31.4476  9474.29  96.1417
 31.4896  9477.7  96.6674
 31.5316  9251.23  94.9146
 31.5736  9603.05  96.5276
 31.6156  9195.69  94.4522
 31.6576  9563.62  96.4219
 31.6996  9439.38  95.4502
 31.7416  9216.16  95.4014
 31.7836  9474.83  95.7135
 31.8256  9297.58  95.0812
 31.8676  9529.02  96.2451
 31.9096  9197.43  94.9371
 31.9516  8996.13  94.0525
 31.9936  9142.58  94.6413
 32.0356  9405.8  96.0324
 32.0776  9278.47  95.2809
 32.1196  9277.93  95.3873
 32.1616  9360.51  95.2571
 32.2036  9199.81  94.9488
 32.2456  9196.9  95.3085
 32.2876  9281.89  95.2452
 32.3296  9119.22  94.3749
 32.3716  8933.4  93.5251
 32.4136  9036.19  94.2702
 32.4556  9115.81  94.0622
 32.4976  9126.8  94.0391
 32.5396  9017.18  93.5261
 32.5816  9053.09  93.8379
 32.6236  9157.98  94.4413
 32.6656  9212.97  95.282
 32.7076  8959.72  93.6205
 32.7496  9054.39  93.7834
 32.7916  9015.81  93.5408
 32.8336  9014.67  93.6316
 32.8756  9119.6  93.8931
 32.9176  8868.74  93.0788
 32.9596  8893.3  93.2753
 33.0016  9039.54  93.8085
 33.0436  8917.3  93.359
 33.0856  8912.18  93.4188
 33.1276  8873.69  92.9455
 33.1696  9092.13  93.9051
 33.2116  8924.93  93.2825
 33.2536  8988.18  93.596
 33.2956  8947.89  93.4799
 33.3376  8865.83  92.785
 33.3796  8946.01  93.4223
 33.4216  8906.53  92.7979
 33.4636  8949.37  93.181
 33.5056  8846.27  92.8918
 33.5476  8958.98  93.4571
 33.5896  8857.44  92.7198
 33.6316  8936.11  93.4423
 33.6736  8762.73  92.7811
 33.7156  8775.31  92.8749
 33.7576  8965.63  93.5189
 33.7996  8941.11  93.153
 33.8416  8728.74  92.223
 33.8836  8735.05  92.0341
 33.9256  8920.05  93.0477
 33.9676  8953.21  93.1276
 34.0096  8720.84  92.221
 34.0516  8711.33  91.8084
 34.0936  8739.18  92.2324
 34.1356  8822.34  92.4016
 34.1776  8686.01  91.6896
 34.2196  8748.87  92.2
 34.2616  8619.32  91.6566
 34.3036  8787.19  92.7881
 34.3456  8577.59  91.4295
 34.3876  8784.09  92.4913
 34.4296  8670.14  91.5861
 34.4716  8766.59  92.2474
 34.5136  8633.52  91.7343
 34.5556  8556.44  91.5848
 34.5976  8648.1  91.8832
 34.6396  8740.17  92.0775
 34.6816  8689.85  91.9147
 34.7236  8581.59  91.1239
 34.7656  8586.84  91.36
 34.8076  8551.45  91.5039
 34.8496  8506.78  91.1125
 34.8916  8680.96  91.9024
 34.9336  8677.78  91.8712
 34.9756  8638.69  91.5808
 35.0176  8623.53  92.0319
 35.0596  8799.23  92.7797
 35.1016  8688.23  91.9537
 35.1436  8826.21  92.365
 35.1856  8545.64  91.0037
 35.2276  8628.37  91.6231
 35.2696  8707.68  92.2346
 35.3116  8499.32  91.2269
 35.3536  8555.14  91.2277
 35.3956  8486.09  90.5639
 35.4376  8623.4  91.8657
 35.4796  8598.32  91.7837
 35.5216  8562.24  91.5475
 35.5636  8308.18  90.9245
 35.6056  8503.93  91.0028
 35.6476  8527.27  91.0233
 35.6896  8553.68  91.2594
 35.7316  8394.96  90.3778
 35.7736  8411.53  90.6565
 35.8156  8580.75  91.5653
 35.8576  8599.22  91.9091
 35.8996  8477.42  91.2263
 35.9416  8604.68  91.4046
 35.9836  8538.23  91.4026
 36.0256  8583.93  91.6655
 36.0676  8682.45  91.9285
 36.1096  8363.72  90.3853
 36.1516  8603.66  91.5638
 36.1936  8508.66  90.8916
 36.2356  8463.47  91.3121
 36.2776  8347.42  90.1547
 36.3196  8529.39  90.8004
 36.3616  8407.22  90.2787
 36.4036  8374.54  90.1721
 36.4456  8398.54  90.5045
 36.4876  8228.69  89.5237
 36.5296  8355.7  90.2588
 36.5716  8316.77  90.8151
 36.6136  8287.18  89.4538
 36.6556  8201.03  89.1912
 36.6976  8229.22  89.8374
 36.7396  8228.09  89.5602
 36.7816  8146.99  89.4915
 36.8236  8176.4  89.5728
 36.8656  8137.04  89.4355
 36.9076  8112.87  89.176
 36.9496  8130.86  89.2695
 36.9916  8109.28  88.7772
 37.0336  8146.22  89.296
 37.0756  8197.07  89.3612
 37.1176  7976.53  88.4205
 37.1596  8096.88  89.091
 37.2016  8060.77  89.1163
 37.2436  8040.89  88.3198
 37.2856  7957.51  88.1168
 37.3276  8125.4  88.4018
 37.3696  7943.27  88.2742
 37.4116  8118.87  89.1568
 37.4536  7953.95  88.1117
 37.4956  7885.52  87.7839
 37.5376  8143.22  90.7786
 37.5796  8095.76  90.4392
 37.6216  8026.42  88.3243
 37.6636  8105.74  88.6422
 37.7056  8149.84  89.0869
 37.7476  8347.97  89.6889
 37.7896  8078.92  88.7505
 37.8316  8137.21  89.2075
 37.8736  8011.29  88.069
 37.9156  8063.23  88.3396
 37.9576  8133.48  88.6359
 37.9996  8116.33  88.2518
 38.0416  8113.67  89.0463
 38.0836  8165.02  89.2297
 38.1256  8128.62  89.0048
 38.1676  7918.57  87.9549
 38.2096  8080.11  88.4676
 38.2516  8073.62  88.6614
 38.2936  8170.81  88.9802
 38.3356  8014.98  88.0658
 38.3776  8072.39  88.6321
 38.4196  7959.63  87.8664
 38.4616  8127.11  89.0337
 38.5036  8170.23  89.1116
 38.5456  7962.79  88.7956
 38.5876  7957  88.7938
 38.6296  7942.52  87.6752
 38.6716  8093.21  88.3011
 38.7136  7986.99  87.6693
 38.7556  8050.58  88.5213
 38.7976  8067.46  88.5412
 38.8396  7986.14  88.5568
 38.8816  8041.11  88.6572
 38.9236  8062.3  88.5672
 38.9656  8127.75  88.8353
 39.0076  8095.55  88.0573
 39.0496  8096.6  88.6224
 39.0916  8052.44  88.0261
 39.1336  7891.37  87.545
 39.1756  8165.25  89.1099
 39.2176  8006.75  88.7886
 39.2596  8139.87  89.4429
 39.3016  7911.57  87.7623
 39.3436  7985.5  88.5889
 39.3856  8094.06  88.629
 39.4276  8114.03  89.2415
 39.4696  7900.66  87.6889
 39.5116  8009.03  88.8033
 39.5536  8107.98  89.7842
 39.5956  8063.43  88.6344
 39.6376  7897.63  87.7304
 39.6796  7911.02  87.539
 39.7216  7960.67  87.9207
 39.7636  8024.99  88.8373
 39.8056  7999.79  88.482
 39.8476  7903.26  88.1961
 39.8896  8022.88  88.4923
 39.9316  7872.58  87.9056
 39.9736  7959.48  87.9616
 40.0156  7872.3  87.3147
 40.0576  7929.71  87.9827
 40.0996  8044.86  87.8033
 40.1416  8050.96  88.6297
 40.1836  8001.69  88.2524
 40.2256  7911.89  87.7879
 40.2676  7949.07  88.0988
 40.3096  8023.19  88.4407
 40.3516  8035.75  88.6118
 40.3936  8070.34  88.3555
 40.4356  7901.58  87.6401
 40.4776  8063.57  88.9331
 40.5196  7957.15  88.4785
 40.5616  8054.85  88.654
 40.6036  7901.61  88.0657
 40.6456  8038.96  88.4388
 40.6876  8206.76  89.3437
 40.7296  7909.83  87.8466
 40.7716  8055.61  88.7691
 40.8136  7947.94  88.1213
 40.8556  8168.19  89.4666
 40.8976  8006.91  88.5082
 40.9396  8052.86  89.1017
 40.9816  8119.46  88.7651
 41.0236  8056.45  88.2037
 41.0656  8049.53  88.6958
 41.1076  7988.18  88.1392
 41.1496  7958.21  87.8746
 41.1916  7988.08  88.3588
 41.2336  8079.73  88.8591
 41.2756  7876.13  87.3435
 41.3176  8110.44  89.2464
 41.3596  7970.13  88.2117
 41.4016  7951.74  88.3674
 41.4436  8063.35  88.766
 41.4856  7942.04  88.2652
 41.5276  7995.63  88.5767
 41.5696  7955.17  87.9778
 41.6116  7961.74  88.4052
 41.6536  8072.65  88.8625
 41.6956  8015.79  88.6249
 41.7376  7893.05  87.9754
 41.7796  7857.66  87.6578
 41.8216  7903.95  88.1404
 41.8636  7948.28  88.3435
 41.9056  7897.56  87.8471
 41.9476  8001.21  88.6504
 41.9896  8096.89  88.8445
 42.0316  8052.44  88.6909
 42.0736  8124.87  89.1881
 42.1156  7908  87.8321
 42.1576  7965.02  88.2542
 42.1996  8017.96  88.676
 42.2416  8026.73  88.3128
 42.2836  7970.15  88.117
 42.3256  7890.68  87.786
 42.3676  7957.97  87.9472
 42.4096  7999.74  88.1599
 42.4516  7995.59  88.2049
 42.4936  7876.77  87.6333
 42.5356  7903.85  87.9244
 42.5776  7914.75  87.9238
 42.6196  7948.61  88.1617
 42.6616  7740.53  87.1717
 42.7036  7930.13  87.6148
 42.7456  8020.19  88.4637
 42.7876  7917.5  87.9975
 42.8296  7889.29  87.6747
 42.8716  7825.12  87.48
 42.9136  7815.06  87.2127
 42.9556  7912.7  87.8957
 42.9976  7963.89  88.1419
 43.0396  7819.9  87.0694
 43.0816  7865.93  87.7085
 43.1236  7771.61  87.2369
 43.1656  7852.47  87.5102
 43.2076  7833.71  87.52
 43.2496  7833.21  87.3312
 43.2916  7809.99  87.5611
 43.3336  7795.67  87.3119
 43.3756  7843.9  87.3427
 43.4176  7799.16  87.1776
 43.4596  7774.27  86.8952
 43.5016  7698.97  86.8621
 43.5436  7796.75  87.319
 43.5856  7759.22  87.1483
 43.6276  7649.38  86.4127
 43.6696  7756.74  87.2843
 43.7116  7917.66  87.6688
 43.7536  7838.17  87.729
 43.7956  7760.12  88.5004
 43.8376  7543.88  85.8064
 43.8796  7688.54  86.7063
 43.9216  7788.85  87.1848
 43.9636  7670.01  86.6327
 44.0056  7697.64  87.0207
 44.0476  7612.44  86.1676
 44.0896  7616.1  86.5286
 44.1316  7681.04  86.4208
 44.1736  7504.43  85.5464
 44.2156  7739.94  86.7267
 44.2576  7571.31  86.1048
 44.2996  7624.83  86.3797
 44.3416  7698.99  86.5574
 44.3836  7406.79  85.2134
 44.4256  7472.17  85.2466
 44.4676  7428.79  85.1498
 44.5096  7527.89  85.8632
 44.5516  7492.58  85.6289
 44.5936  7547.76  85.8909
 44.6356  7719.49  86.5994
 44.6776  7517.21  85.7612
 44.7196  7503.88  86.0092
 44.7616  7645.14  88.1399
 44.8036  7656.05  86.6144
 44.8456  7766.58  87.4442
 44.8876  7755.99  87.2222
 44.9296  7802.23  86.9247
 44.9716  7785.28  87.2644
 45.0136  7669.33  86.5452
 45.0556  7748.02  86.9629
 45.0976  7645.66  86.5478
 45.1396  7596.54  86.0425
 45.1816  7588.17  85.9164
 45.2236  7720.12  86.5712
 45.2656  7622.96  86.5282
 45.3076  7597.68  86.1483
 45.3496  7588.07  86.4243
 45.3916  7503.94  86.2092
 45.4336  7725.52  87.3109
 45.4756  7722.8  87.1467
 45.5176  7687.88  86.56
 45.5596  7725.64  86.8977
 45.6016  7648.42  86.8916
 45.6436  7613.53  85.8454
 45.6856  7652.13  86.7467
 45.7276  7545.41  87.4509
 45.7696  7629.51  87.6234
 45.8116  7649.01  87.1531
 45.8536  7652.06  87.057
 45.8956  7533.21  85.7341
 45.9376  7587.13  85.4951
 45.9796  7629.11  86.4269
 46.0216  7516.11  86.1198
 46.0636  7858.67  87.18
 46.1056  7749.06  86.5646
 46.1476  7569.95  86.1581
 46.1896  7569.95  86.3074
 46.2316  7473.79  85.6305
 46.2736  7355.77  85.3202
 46.3156  7628.64  86.4662
 46.3576  7582.21  86.4078
 46.3996  7667.22  87.0454
 46.4416  7618.75  86.3464
 46.4836  7550.63  86.3155
 46.5256  7584.8  86.4516
 46.5676  7509.71  86.1409
 46.6096  7529.14  86.1733
 46.6516  7494.17  85.0124
 46.6936  7640.12  86.3478
 46.7356  7708.26  86.8294
 46.7776  7485.3  86.4345
 46.8196  7421.5  85.654
 46.8616  7419.91  85.5966
 46.9036  7370.17  84.9643
 46.9456  7480.46  85.2386
 46.9876  7431.27  85.0309
 47.0296  7445.17  85.8133
 47.0716  7442.76  85.6157
 47.1136  7501.68  85.6212
 47.1556  7613.04  86.1187
 47.1976  7631.29  86.3077
 47.2396  7433.38  85.5797
 47.2816  7436.03  85.2988
 47.3236  7366.86  85.2748
 47.3656  7386.48  85.3198
 47.4076  7456.06  85.5255
 47.4496  7343.1  84.9546
 47.4916  7465.5  85.8603
 47.5336  7470.78  85.7034
 47.5756  7503.61  86.0136
 47.6176  7416.58  85.4146
 47.6596  7344.45  84.706
 47.7016  7556.2  85.72
 47.7436  7553.23  86.0545
 47.7856  7551.67  86.0752
 47.8276  7357.84  85.0111
 47.8696  7409.6  85.4028
 47.9116  7467.18  85.4361
 47.9536  7417.47  85.0974
 47.9956  7359.32  85.4759
 48.0376  7406.82  85.5172
 48.0796  7485.35  86.109
 48.1216  7384.04  85.3389
 48.1636  7532.45  85.7498
 48.2056  7401.26  85.2741
 48.2476  7554.44  86.4651
 48.2896  7484.54  85.973
 48.3316  7488.39  85.9408
 48.3736  7373.37  85.2996
 48.4156  7437.48  85.5199
 48.4576  7409.41  85.6534
 48.4996  7400.91  85.052
 48.5416  7533.04  86.1359
 48.5836  7400.72  85.0513
 48.6256  7592.94  86.35
 48.6676  7378.01  85.6546
 48.7096  7481.52  85.5056
 48.7516  7461.31  85.5428
 48.7936  7282.43  84.5789
 48.8356  7426.88  85.4557
 48.8776  7468.87  86.2873
 48.9196  7548.63  86.0914
 48.9616  7390.26  85.5756
 49.0036  7384.34  85.8881
 49.0456  7386.21  85.8828
 49.0876  7461.43  85.8517
 49.1296  7368.89  85.488
 49.1716  7249.78  84.6656
 49.2136  7460.08  85.7994
 49.2556  7426.67  85.6465
 49.2976  7491.18  86.0743
 49.3396  7405.58  85.6421
 49.3816  7496.68  85.5883
 49.4236  7392.93  85.423
 49.4656  7276.36  84.7718
 49.5076  7330.68  84.8282
 49.5496  7374.81  85.1529
 49.5916  7509.35  85.8402
 49.6336  7358.18  85.1752
 49.6756  7446.56  85.9141
 49.7176  7327.63  85.1736
 49.7596  7362.79  85.1429
 49.8016  7441.95  85.5035
 49.8436  7376.62  85.4511
 49.8856  7356.49  85.3351
 49.9276  7294.06  85.0671
 49.9696  7324.9  85.2249
 50.0116  7311  85.2962
 50.0536  7289.79  85.1097
 50.0956  7246.66  84.9245
 50.1376  7345.52  85.192
 50.1796  7295.17  85.1745
 50.2216  7293.28  85.1642
 50.2636  7310.91  84.8685
 50.3056  7241.46  84.6484
 50.3476  7305.48  85.0432
 50.3896  7311.97  85.0554
 50.4316  7306.07  84.8501
 50.4736  7238.86  84.6844
 50.5156  7212.6  84.5136
 50.5576  7278.81  84.651
 50.5996  7265.14  84.87
 50.6416  7281.3  84.8887
 50.6836  7281.5  84.9452
 50.7256  7264.7  84.7783
 50.7676  7420.85  86.0015
 50.8096  7284.17  84.7399
 50.8516  7318.79  85.374
 50.8936  7161.78  84.2324
 50.9356  7281.09  85.0358
 50.9776  7174.3  84.5754
 51.0196  6989  83.6049
 51.0616  7181.54  84.0581
 51.1036  7209.55  84.5899
 51.1456  7246.62  84.7135
 51.1876  7258.45  84.1051
 51.2296  7121.33  83.9597
 51.2716  6931.29  82.5344
 51.3136  7037.74  83.6326
 51.3556  7039.48  83.2558
 51.3976  7148.97  84.0524
 51.4396  6928.07  83.0617
 51.4816  7085.97  83.8535
 51.5236  7177.62  84.4795
 51.5656  6906.99  82.4691
 51.6076  7091.2  83.6443
 51.6496  7025.19  83.4536
 51.6916  6985.85  83.5783
 51.7336  6933.51  83.3597
 51.7756  6955.92  83.1828
 51.8176  7012.26  83.6338
 51.8596  7022.48  83.7096
 51.9016  7195.9  84.3283
 51.9436  7069.99  85.1043
 51.9856  7161.61  86.0638
 52.0276  7213.25  84.8218
 52.0696  7376.14  85.8442
 52.1116  7069.72  84.1798
 52.1536  7183.68  84.721
 52.1956  7107.52  83.7404
 52.2376  7318.87  85.1328
 52.2796  7009.43  83.1418
 52.3216  6921.4  83.3166
 52.3636  7079.48  83.803
 52.4056  7075.64  83.6571
 52.4476  7034.43  83.779
 52.4896  7112.56  84.294
 52.5316  7006.85  83.7162
 52.5736  6909.37  82.8491
 52.6156  7156.54  84.7174
 52.6576  6984.18  83.1324
 52.6996  6804.53  83.045
 52.7416  6957.5  83.8231
 52.7836  7117.09  84.665
 52.8256  7072.61  83.5937
 52.8676  6913.22  83.225
 52.9096  7071.13  84.2503
 52.9516  7065.68  84.6149
 52.9936  6968.61  84.4082
 53.0356  7190.82  84.6996
 53.0776  7047.4  84.1324
 53.1196  7042.82  84.2286
 53.1616  7071.03  84.4564
 53.2036  6896.7  83.3678
 53.2456  6973.56  83.9387
 53.2876  7099.46  84.376
 53.3296  7084.87  84.6118
 53.3716  7090.24  84.3985
 53.4136  7112.97  84.685
 53.4556  6960.47  83.8076
 53.4976  6907.82  83.3216
 53.5396  6841.45  83.3334
 53.5816  7041.4  84.1615
 53.6236  6930.62  83.855
 53.6656  7006.21  83.9047
 53.7076  7034.48  84.0363
 53.7496  7144.57  84.8136
 53.7916  7120.01  84.8205
 53.8336  6948.15  83.6676
 53.8756  6875.83  83.7984
 53.9176  6917.02  83.3817
 53.9596  6737.26  83.0699
 54.0016  6705.58  82.179
 54.0436  6650.81  82.0933
 54.0856  6820.45  82.5405
 54.1276  6748.3  82.2966
 54.1696  6712.38  82.2428
 54.2116  6842.85  82.7765
 54.2536  6747.87  82.0062
 54.2956  6766.98  82.1842
 54.3376  6670.75  82.0995
 54.3796  6630.89  81.7505
 54.4216  6698.32  82.2142
 54.4636  6642.03  81.8283
 54.5056  6768.2  82.3912
 54.5476  6693.59  82.2926
 54.5896  6697.67  82.1615
 54.6316  6591.25  81.3406
 54.6736  6750.68  82.4193
 54.7156  6648.94  81.811
 54.7576  6549.03  81.1769
 54.7996  6653.13  81.9714
 54.8416  6702.43  82.3299
 54.8836  6706.35  82.4466
 54.9256  6605.51  81.5922
 54.9676  6583.75  81.3038
 55.0096  6661.64  81.8302
 55.0516  6483.29  80.9602
 55.0936  6665.34  81.7558
 55.1356  6525.3  80.9209
 55.1776  6742.63  82.5078
 55.2196  6593.36  81.3771
 55.2616  6792.07  82.8152
 55.3036  6504.03  81.2218
 55.3456  6436.11  80.9453
 55.3876  6635.05  81.8986
 55.4296  6445.74  80.725
 55.4716  6528.87  81.2607
 55.5136  6553.67  81.1799
 55.5556  6668.61  81.9401
 55.5976  6541.4  81.2284
 55.6396  6614.02  81.6293
 55.6816  6536.48  81.0019
 55.7236  6497.48  80.8389
 55.7656  6573.73  81.0014
 55.8076  6425.83  80.121
 55.8496  6441.54  80.5335
 55.8916  6436.15  80.7083
 55.9336  6634.07  81.7531
 55.9756  6471.86  80.644
 56.0176  6360.32  80.0833
 56.0596  6399.06  80.3205
 56.1016  6376.82  80.2019
 56.1436  6432.31  80.804
 56.1856  6347.38  80.023
 56.2276  6576.5  81.4894
 56.2696  6404.72  80.395
 56.3116  6524.26  81.539
 56.3536  6416.12  80.52
 56.3956  6406.54  80.4458
 56.4376  6355.67  80.1843
 56.4796  6354.6  79.9753
 56.5216  6418.03  80.7408
 56.5636  6370.16  80.0186
 56.6056  6528.36  81.2275
 56.6476  6317.37  79.5253
 56.6896  6572.26  81.5861
 56.7316  6417.98  80.5468
 56.7736  6444.91  80.7153
 56.8156  6333.3  80.0196
 56.8576  6246.48  79.4252
 56.8996  6428.57  80.4583
 56.9416  6313.38  80.0513
 56.9836  6377.12  79.9781
 57.0256  6295.79  79.8011
 57.0676  6492.2  81.1471
 57.1096  6371.4  80.1711
 57.1516  6294.08  79.7261
 57.1936  6381.03  80.045
 57.2356  6192.48  79.1738
 57.2776  6396.19  80.4096
 57.3196  6368.14  80.5978
 57.3616  6297.71  79.6595
 57.4036  6375.84  80.2026
 57.4456  6486.88  80.8719
 57.4876  6265.5  79.3528
 57.5296  6256.65  79.6291
 57.5716  6226.8  79.4287
 57.6136  6266.3  79.5275
 57.6556  6267.42  79.6542
 57.6976  6417.94  80.4388
 57.7396  6153.97  79.1082
 57.7816  6246.31  80.0868
 57.8236  6233.98  79.7894
 57.8656  6220.72  79.3666
 57.9076  6255.55  79.5986
 57.9496  6251.77  79.9481
 57.9916  6266.94  79.5437
 58.0336  6235.72  79.6357
 58.0756  6286.84  79.5934
 58.1176  6323.25  79.8193
 58.1596  6121.96  79.1209
 58.2016  6119.82  78.3371
 58.2436  6046.55  78.266
 58.2856  5968.53  77.6918
 58.3276  6026.6  78.4365
 58.3696  6028.81  78.1951
 58.4116  6133.65  78.744
 58.4536  6059.87  78.1509
 58.4956  5890.5  77.2334
 58.5376  6030.54  77.7153
 58.5796  6068.57  78.389
 58.6216  6060.62  78.154
 58.6636  6053.12  78.3164
 58.7056  6058.47  78.2073
 58.7476  5815.57  77.0581
 58.7896  6057.36  78.2875
 58.8316  5944.8  77.5521
 58.8736  6014.75  78.0192
 58.9156  5955.21  77.6711
 58.9576  5978.65  78.1428
 58.9996  6003.93  77.563
 59.0416  6104.65  78.5747
 59.0836  6161.69  78.8532
 59.1256  5957.19  78.2373
 59.1676  6015.59  78.9323
 59.2096  6083.21  78.6833
 59.2516  6110.99  78.4413
 59.2936  5964.29  77.8202
 59.3356  6028.44  78.1154
 59.3776  6006.39  78.141
 59.4196  5925.39  77.5494
 59.4616  5880.48  77.1162
 59.5036  5964.98  77.702
 59.5456  6151.69  78.6006
 59.5876  5920.33  77.2977
 59.6296  5881.14  77.1097
 59.6716  5872.43  77.1097
 59.7136  5884.07  77.1746
 59.7556  5931.56  77.6206
 59.7976  5920.24  77.2912
 59.8396  6057.62  78.0769
 59.8816  5948.54  77.9116
 59.9236  5972.93  77.7172
 59.9656  5963.17  77.9122
 60.0076  5962.81  77.2718
 60.0496  5993.11  77.9691
 60.0916  6097.95  78.0641
 60.1336  5912.16  77.9615
 60.1756  5935.79  79.2914
 60.1996  0.0000000E+00  0.0000000E+00