File: docs/examples/opeando_xrd/IS17_D/Data/IS17_D/17_Da_f00129.xye
# /beamlines/bl04/projects/cycle2025-II/20250340211-lsimonelli/DATA/IS17_D/17_Da_f00129.xye : mythproc.py merge -s 0.006 -l 0.5 -f /beamlines/bl04/inhouse/ff/FlatField/ff_20Nov2024rod8mm60s_17keV.raw -b True -c true -o xye /beamlines/bl04/projects/cycle2025-II/20250340211-lsimonelli/DATA/IS17_D/17_Da_00129.dat
# IsMon = [6754229, 6752610, 6756847]  IsPos = [-1.5000, -2.4884, -3.4988]
# Wave = 0.4962  CalPath /beamlines/bl04/projects/cycle2025-II/20250340211-lsimonelli/DATA/Align/Si_Pos1_25keV_f00001.cal
# Date = 2025-09-25_05:31:26 Dt = 4.8000  Bin = 0.0060  <imon> = 6754562 +/- 1746 (Min/Max) 6752610 / 6756847
# icurr 249.8517  mocoIn 1.7043E-05  mocoOut 0.8002  i15 7.07318e+06  imon 6.75456e+06  i7 3.0000  iEMpd_timer 4.8000  iEMpd_1 3.3756E-08  iEMpd_2 7.8799E-08  iEMpd_3 1.7348E-08  iEMpd_4 4.8925E-08  iEMhp_timer 4.8000  iEMhp_1 4.8809E-06  iEMhp_2 -2.4953E-08  iEMhp_3 -2.5570E-08  iEMhp_4 -2.1246E-08
#      9776
 1.5856  40253.2  206.022
 1.6276  47906.8  220.9
 1.6696  53558.4  232.743
 1.7116  62517.6  251.949
 1.7536  71996.4  269.223
 1.7956  76594.1  278.381
 1.8376  73227.4  272.625
 1.8796  61592.4  248.185
 1.9216  49658.2  223.741
 1.9636  41990.2  205.417
 2.0056  37726.5  193.465
 2.0476  34745.8  187.7
 2.0896  33308.6  182.7
 2.1316  32143.9  178.615
 2.1736  31361.2  177.826
 2.2156  31457.5  176.669
 2.2576  30263.1  173.903
 2.2996  28825.5  170.346
 2.3416  29497.7  170.947
 2.3836  28850.8  169.165
 2.4256  27866.3  166.796
 2.4676  27405  165.175
 2.5096  27225.4  164.687
 2.5516  26756.8  167.065
 2.5936  29126.1  170.774
 2.6356  26290.7  162.935
 2.6776  26034  161.035
 2.7196  25692  160.486
 2.7616  25691.8  160.266
 2.8036  25165.3  158.785
 2.8456  25174.1  159.423
 2.8876  24647.1  157.628
 2.9296  24297.9  156.628
 2.9716  24439.1  156.577
 3.0136  24025.8  155.314
 3.0556  23947.7  155.455
 3.0976  23893.5  154.218
 3.1396  23671.4  154.217
 3.1816  23524.1  153.666
 3.2236  23306.3  152.954
 3.2656  23307.7  152.006
 3.3076  23071.5  152.668
 3.3496  23380.7  152.636
 3.3916  23875.4  154.068
 3.4336  24404.8  156.344
 3.4756  24596.5  156.874
 3.5176  25297  158.89
 3.5596  25195.6  161.531
 3.6016  25451.8  159.423
 3.6436  24834.3  158.584
 3.6856  24194.2  154.836
 3.7276  23354.4  153.206
 3.7696  23121.2  152.423
 3.8116  22927.8  151.876
 3.8536  22993.2  152.021
 3.8956  22849.2  151.375
 3.9376  22790.3  151.427
 3.9796  22702.7  150.653
 4.0216  22913.2  150.39
 4.0636  22848  151.646
 4.1056  22770.7  151.034
 4.1476  22947.8  151.931
 4.1896  23168.7  152.519
 4.2316  23214.4  152.486
 4.2736  23713.8  153.914
 4.3156  23993.3  155.044
 4.3576  24787.5  157.524
 4.3996  24969  158.364
 4.4416  25383.4  159.25
 4.4836  25876.3  160.944
 4.5256  26340.6  162.99
 4.5676  26392.4  163.404
 4.6096  26738.4  163.493
 4.6516  27316.9  164.595
 4.6936  27303  165.361
 4.7356  27773.3  166.611
 4.7776  27512.6  165.659
 4.8196  27126.1  165.138
 4.8616  26742.6  163.459
 4.9036  26397.6  162.14
 4.9456  26249.9  162.333
 4.9876  25818.6  160.896
 5.0296  25957.3  161.146
 5.0716  26058.7  162.231
 5.1136  26198.3  162.375
 5.1556  26428.6  162.553
 5.1976  26987.3  164.257
 5.2396  27223.3  164.667
 5.2816  26956.8  164.32
 5.3236  26975.6  164.086
 5.3656  26538.6  163.668
 5.4076  26420.9  163.454
 5.4496  26633.2  163.596
 5.4916  26502.1  162.953
 5.5336  26604.5  163.27
 5.5756  26454.4  162.842
 5.6176  26737.7  163.145
 5.6596  27204.6  165.39
 5.7016  27055.2  164.355
 5.7436  27257.4  165.241
 5.7856  27246.8  165.273
 5.8276  27725.9  166.438
 5.8696  27589.5  166.086
 5.9116  27563.9  166.726
 5.9536  27783.5  167.137
 5.9956  28075.4  167.372
 6.0376  28165.2  168.284
 6.0796  28489.2  169.078
 6.1216  28343.1  168.851
 6.1636  28507.3  168.4
 6.2056  28664.3  169.526
 6.2476  28709.6  169.354
 6.2896  29121.6  170.429
 6.3316  28882.5  169.903
 6.3736  29179.3  170.668
 6.4156  29043.6  170.22
 6.4576  29298  170.513
 6.4996  29404.7  171.305
 6.5416  29401.7  171.435
 6.5836  29369.5  171.569
 6.6256  29376.1  171.148
 6.6676  30107.9  172.839
 6.7096  29904.9  173.107
 6.7516  30233.9  173.71
 6.7936  30544.3  174.022
 6.8356  30875.8  175.048
 6.8776  31036.7  176.311
 6.9196  30926.8  176.398
 6.9616  31618.5  177.808
 7.0036  32035.3  178.615
 7.0456  32149  178.225
 7.0876  31773.3  178.79
 7.1296  31937.1  178.468
 7.1716  31685.7  177.292
 7.2136  31751.4  177.264
 7.2556  31888.7  177.811
 7.2976  31658.4  177.666
 7.3396  31783  178.233
 7.3816  31671.2  178.13
 7.4236  32091  178.594
 7.4656  32395.3  178.919
 7.5076  32353.9  178.941
 7.5496  32384.3  179.558
 7.5916  32361.5  179.535
 7.6336  32905.1  180.931
 7.6756  33104.8  181.324
 7.7176  33277.1  182.117
 7.7596  33370.2  183.62
 7.8016  33837.4  187.091
 7.8436  34329.6  185.099
 7.8856  34377.2  184.834
 7.9276  35187.7  187.391
 7.9696  35073.7  187.412
 8.0116  36222.2  188.977
 8.0536  36234.8  189.272
 8.0956  36322.5  190.69
 8.1376  36688.3  191.109
 8.1796  36960.5  192.374
 8.2216  38093.5  194.008
 8.2636  37921.3  193.818
 8.3056  37770.3  194.204
 8.3476  38595.2  195.64
 8.3896  38058.4  194.352
 8.4316  38281.3  195.091
 8.4736  38554.1  195.245
 8.5156  38154.8  194.507
 8.5576  37967  195.029
 8.5996  38135.9  194.306
 8.6416  37816.4  194.77
 8.6836  37701.5  194.286
 8.7256  38176.6  194.964
 8.7676  37645.3  196.513
 8.8096  37495.7  193.397
 8.8516  37346  192.682
 8.8936  36981.6  191.582
 8.9356  36654.9  191.079
 8.9776  37299  192.848
 9.0196  36876.2  191.42
 9.0616  36921.9  190.994
 9.1036  36403.7  190.852
 9.1456  36779.4  191.18
 9.1876  36681.1  190.878
 9.2296  36811  190.602
 9.2716  36222.8  189.144
 9.3136  36188.9  189.037
 9.3556  36350.2  189.449
 9.3976  34951.6  186.294
 9.4396  35670.3  188.098
 9.4816  34997.1  186.178
 9.5236  34612.9  185.059
 9.5656  34766  185.795
 9.6076  34570.7  185.797
 9.6496  34474.5  185.468
 9.6916  34547.5  185.633
 9.7336  34456.2  185.167
 9.7756  34305.3  185.893
 9.8176  33719.3  183.952
 9.8596  33753.2  182.479
 9.9016  33178.9  180.913
 9.9436  33158.6  180.607
 9.9856  32622.3  179.516
 10.0276  32066.8  179.099
 10.0696  32596.6  179.608
 10.1116  31561.1  176.994
 10.1536  31114.8  175.407
 10.1956  31037.2  175.284
 10.2376  30698  173.822
 10.2796  30898.3  174.519
 10.3216  30893.4  174.636
 10.3636  30346  173.255
 10.4056  30438.7  173.924
 10.4476  30308.3  173.168
 10.4896  30629  173.528
 10.5316  29805.2  171.559
 10.5736  29238  170.661
 10.6156  29153.2  170.173
 10.6576  29497  169.727
 10.6996  28818.5  168.43
 10.7416  28416.1  167.497
 10.7836  28939.5  169.721
 10.8256  28129.5  167.756
 10.8676  28484.4  168.347
 10.9096  28063.8  167.127
 10.9516  27836.1  165.366
 10.9936  27896.3  165.741
 11.0356  27731.8  165.906
 11.0776  27890.6  165.68
 11.1196  27464.7  165.163
 11.1616  27151  163.915
 11.2036  27049.4  163.453
 11.2456  27333.1  165.026
 11.2876  27007.9  163.765
 11.3296  26788.8  162.997
 11.3716  27582.5  165.113
 11.4136  27492.2  165.728
 11.4556  28019.5  166.96
 11.4976  28223.6  166.516
 11.5396  27609.6  164.868
 11.5816  26930.7  163.272
 11.6236  26535.5  162.31
 11.6656  26453  161.201
 11.7076  26063.1  160.857
 11.7496  25851.9  164.171
 11.7916  25674.5  158.911
 11.8336  25467.9  159.156
 11.8756  25353.5  158.328
 11.9176  25288.6  157.794
 11.9596  24893.4  156.732
 12.0016  25060.1  158.062
 12.0436  25040.8  157.417
 12.0856  24725.5  156.954
 12.1276  24872.8  157.334
 12.1696  24842.8  156.365
 12.2116  24998  156.852
 12.2536  24338.5  155.57
 12.2956  24724.1  156.153
 12.3376  24413.4  155.383
 12.3796  24445.5  155.935
 12.4216  24567.2  155.544
 12.4636  24302.9  155.627
 12.5056  24410  155.237
 12.5476  24611  155.4
 12.5896  24607.1  156.021
 12.6316  24147.9  154.722
 12.6736  24249.1  155.53
 12.7156  24222  155.306
 12.7576  24177.7  155.408
 12.7996  24466.6  154.97
 12.8416  24320.4  155.563
 12.8836  24785.3  156.87
 12.9256  25116.3  156.915
 12.9676  25105.2  157.311
 13.0096  24849  157.614
 13.0516  24926.3  156.88
 13.0936  24993.2  157.218
 13.1356  25366.8  157.646
 13.1776  24719.2  156.603
 13.2196  25068.1  157.36
 13.2616  24910.5  157.184
 13.3036  24757.7  156.835
 13.3456  24760.3  157.037
 13.3876  24763.7  156.339
 13.4296  24801.6  156.609
 13.4716  25086.1  157.1
 13.5136  24925.2  156.76
 13.5556  24916.3  157.36
 13.5976  24833.4  157.23
 13.6396  25007.2  157.147
 13.6816  24550.3  156.071
 13.7236  25542.9  158.963
 13.7656  24765.6  157.063
 13.8076  25021.2  156.644
 13.8496  24606.1  156.13
 13.8916  24553.2  156.784
 13.9336  24615.2  156.199
 13.9756  24410.1  154.897
 14.0176  24460.5  155.746
 14.0596  24463.7  155.719
 14.1016  24004.8  154.643
 14.1436  23920.4  153.505
 14.1856  23574.5  152.688
 14.2276  23491.6  152.901
 14.2696  23572.1  153.004
 14.3116  23361.9  152.221
 14.3536  22771.9  150.466
 14.3956  22721.8  150.035
 14.4376  23089.1  151.011
 14.4796  22846.9  150.212
 14.5216  22475.3  149.784
 14.5636  22506.3  149.446
 14.6056  22647.2  149.482
 14.6476  22542.5  148.371
 14.6896  22114.3  147.496
 14.7316  21697.6  147.131
 14.7736  21715.9  146.341
 14.8156  21556.9  145.834
 14.8576  21424.3  145.236
 14.8996  20964.8  144.879
 14.9416  20738.3  144.095
 14.9836  20839.7  144.399
 15.0256  20456.8  141.995
 15.0676  20689  143.123
 15.1096  20567.4  142.435
 15.1516  20045.5  141.185
 15.1936  19986  140.392
 15.2356  19663  139.532
 15.2776  19517.5  138.596
 15.3196  19434.8  139.315
 15.3616  19430.6  139.045
 15.4036  19052.7  137.549
 15.4456  19731  139.624
 15.4876  19136.2  137.182
 15.5296  18912.5  136.667
 15.5716  18788.9  135.814
 15.6136  18720.4  135.904
 15.6556  18865.1  135.652
 15.6976  18519.2  134.706
 15.7396  18452  134.826
 15.7816  18301  133.804
 15.8236  18059.4  133.611
 15.8656  18289.1  134.246
 15.9076  17804  132.287
 15.9496  17778.3  134.98
 15.9916  17756.3  135.334
 16.0336  17547.4  131.421
 16.0756  17503.5  131.564
 16.1176  17681.4  132.14
 16.1596  17045.1  131.078
 16.2016  17453.1  131.369
 16.2436  17065  130.287
 16.2856  16975.3  129.489
 16.3276  16859.9  129.464
 16.3696  17054.3  130.018
 16.4116  16669.4  129.02
 16.4536  16896.9  129.669
 16.4956  16839.9  129.194
 16.5376  16752.6  129.047
 16.5796  16893.8  128.937
 16.6216  16903.5  129.282
 16.6636  16746.7  128.834
 16.7056  16664.7  128.389
 16.7476  16875.3  128.714
 16.7896  16723.6  128.9
 16.8316  16771.7  129.05
 16.8736  16701.7  129.045
 16.9156  16725  129.469
 16.9576  16469.2  129.295
 16.9996  16485.4  129.848
 17.0416  16592.4  128.608
 17.0836  16384.1  127.561
 17.1256  16075.6  126.367
 17.1676  16166.1  126.714
 17.2096  16043.5  126.109
 17.2516  15889.6  125.575
 17.2936  15937.9  125.793
 17.3356  15424.2  123.762
 17.3776  15679.2  124.973
 17.4196  15813.7  125.202
 17.4616  15632.9  124.397
 17.5036  15537.7  124.39
 17.5456  15462.6  124.732
 17.5876  15444  123.695
 17.6296  15463.5  123.572
 17.6716  15298.2  123.498
 17.7136  15160.6  123.087
 17.7556  15314.2  124.008
 17.7976  15229.9  123.406
 17.8396  15002.1  121.973
 17.8816  15120.2  123.004
 17.9236  15109.4  122.768
 17.9656  15133.8  123.402
 18.0076  15091.8  122.8
 18.0496  15132.9  122.097
 18.0916  15381.5  123.64
 18.1336  15277.6  123.327
 18.1756  15307  122.965
 18.2176  15087.2  122.309
 18.2596  14967  121.561
 18.3016  15186.5  122.707
 18.3436  15099.5  122.36
 18.3856  14789.8  121.222
 18.4276  14970.5  121.625
 18.4696  14912.8  121.49
 18.5116  14862  121.586
 18.5536  14963.2  122.357
 18.5956  14620.6  120.501
 18.6376  14492.3  120.385
 18.6796  14501.9  119.743
 18.7216  14671.6  120.932
 18.7636  14635.1  120.767
 18.8056  14435.2  119.881
 18.8476  14404.8  120.382
 18.8896  14419.7  119.779
 18.9316  14484.7  120.029
 18.9736  14381.2  119.297
 19.0156  14486.7  120.142
 19.0576  14404.4  118.656
 19.0996  14487.7  119.718
 19.1416  14255.5  119.145
 19.1836  14327.3  119.047
 19.2256  14187.9  118.684
 19.2676  14321  119.331
 19.3096  14438.6  120.07
 19.3516  14410.1  119.729
 19.3936  14298  119.345
 19.4356  14252  119.013
 19.4776  14334.4  119.456
 19.5196  14253.4  118.97
 19.5616  14066.9  118.447
 19.6036  14212.8  118.544
 19.6456  14179.7  118.534
 19.6876  14476  119.411
 19.7296  14202.7  118.735
 19.7716  14311.7  119.359
 19.8136  14560  120.593
 19.8556  15010.1  121.907
 19.8976  14898.5  121.523
 19.9396  15012.2  121.552
 19.9816  15092.3  122.126
 20.0236  14832.6  121.289
 20.0656  14618.9  120.408
 20.1076  14273.6  119.44
 20.1496  14148.9  118.926
 20.1916  14094.1  118.159
 20.2336  14051.4  117.961
 20.2756  13883  117.684
 20.3176  13790.9  117.038
 20.3596  13755.7  116.864
 20.4016  13741.9  116.613
 20.4436  13775.9  117.314
 20.4856  13602  116.361
 20.5276  13649.9  117.032
 20.5696  13525.9  116.058
 20.6116  13479.3  116.035
 20.6536  13541.9  115.807
 20.6956  13579.9  116.099
 20.7376  13424.1  115.659
 20.7796  13429.8  115.366
 20.8216  13634.9  115.946
 20.8636  13488  115.694
 20.9056  13542.4  115.879
 20.9476  13163.3  114.079
 20.9896  13575.9  115.724
 21.0316  13507.5  115.327
 21.0736  13381.5  115.311
 21.1156  13468  115.844
 21.1576  13416.9  115.675
 21.1996  13211.6  114.767
 21.2416  13256.8  114.795
 21.2836  13309.8  114.98
 21.3256  13117.9  114.238
 21.3676  13232.7  114.283
 21.4096  13212  114.562
 21.4516  13196.6  114.318
 21.4936  12974.9  113.611
 21.5356  13163.9  114.365
 21.5776  13138.6  114.092
 21.6196  13111.4  114.011
 21.6616  12928.9  113.307
 21.7036  13081.6  113.748
 21.7456  13179.4  114.251
 21.7876  13002.8  113.23
 21.8296  12991.5  113.033
 21.8716  13015  113.378
 21.9136  13002.8  113.523
 21.9556  12859.8  112.563
 21.9976  12995.5  113.179
 22.0396  12824  112.68
 22.0816  12817.2  113.194
 22.1236  13025  113.557
 22.1656  12903  113.141
 22.2076  13102.7  113.489
 22.2496  13062.8  113.349
 22.2916  13097  113.375
 22.3336  12924.4  113.357
 22.3756  12986.1  113.344
 22.4176  12875.5  112.713
 22.4596  12801.5  112.977
 22.5016  12903.1  112.909
 22.5436  12962.6  113.053
 22.5856  12785.8  112.534
 22.6276  12818.8  112.821
 22.6696  12854.1  113.312
 22.7116  12760.8  112.429
 22.7536  12849.3  112.786
 22.7956  12912.6  112.397
 22.8376  12750.9  112.204
 22.8796  12777.6  112.125
 22.9216  13107.5  114.116
 22.9636  13003.5  112.807
 23.0056  13003.1  112.942
 23.0476  13004.1  113.521
 23.0896  13252.4  113.965
 23.1316  13012.6  113.367
 23.1736  12914.7  115.934
 23.2156  12927.8  113.322
 23.2576  12790.7  112.854
 23.2996  12829.9  112.81
 23.3416  12698.2  112.749
 23.3836  12555.3  111.35
 23.4256  12727.6  112.22
 23.4676  12587.7  111.31
 23.5096  12892.3  113.33
 23.5516  12705  111.781
 23.5936  12662.2  112.497
 23.6356  12915.4  113.281
 23.6776  12817.2  113.067
 23.7196  12613.8  111.956
 23.7616  12784.8  112.415
 23.8036  12772.3  112.405
 23.8456  12634.6  111.36
 23.8876  12358.4  110.49
 23.9296  12478.1  111.514
 23.9716  12589.8  111.195
 24.0136  12595.4  112.128
 24.0556  12399.3  110.985
 24.0976  12306.2  110.375
 24.1396  12496  113.926
 24.1816  12397.3  111.868
 24.2236  12209.7  110.639
 24.2656  12071.3  109.484
 24.3076  12048.8  109.628
 24.3496  12145.7  109.965
 24.3916  12061.8  109.629
 24.4336  12052.1  109.795
 24.4756  12015  109.498
 24.5176  12007.4  109.109
 24.5596  11765.4  108.325
 24.6016  11917.3  109.115
 24.6436  11811.3  108.11
 24.6856  11856.2  108.082
 24.7276  11802.8  108.16
 24.7696  11635.2  107.501
 24.8116  11688.3  107.932
 24.8536  11603.5  107.529
 24.8956  11712  107.766
 24.9376  11458.3  106.766
 24.9796  11485.4  107.013
 25.0216  11378.5  106.623
 25.0636  11513.5  106.906
 25.1056  11299.9  106.617
 25.1476  11368.8  108.601
 25.1896  11480.6  107.604
 25.2316  11480.1  106.857
 25.2736  11368.4  105.996
 25.3156  11356.9  106.011
 25.3576  11368.1  106.49
 25.3996  11357.4  106.422
 25.4416  11315.6  106.212
 25.4836  11021.4  105.345
 25.5256  11293.4  105.994
 25.5676  11301.2  105.763
 25.6096  11148.9  105.62
 25.6516  11241.1  105.553
 25.6936  11100.5  105.197
 25.7356  11207.4  105.844
 25.7776  11296.6  105.94
 25.8196  11005.7  104.73
 25.8616  11209.6  105.614
 25.9036  11157.9  104.837
 25.9456  11178.6  105.537
 25.9876  11059.1  104.897
 26.0296  11334.5  105.847
 26.0716  11067.2  105.007
 26.1136  11068.2  104.949
 26.1556  11244.9  105.156
 26.1976  11096.9  105.404
 26.2396  11086.8  104.499
 26.2816  11156.2  105.445
 26.3236  11054  105.127
 26.3656  11001.5  104.595
 26.4076  11145.4  105.49
 26.4496  11534.4  106.778
 26.4916  11225.6  105.352
 26.5336  11082.4  105.011
 26.5756  11467  106.633
 26.6176  10933.3  104.215
 26.6596  10822.4  103.995
 26.7016  10797.2  103.632
 26.7436  10773.3  103.643
 26.7856  10744.6  103.488
 26.8276  10666.3  103.07
 26.8696  10860.8  103.879
 26.9116  10781.5  103.429
 26.9536  10689.7  103.043
 26.9956  10694.4  103.097
 27.0376  10582.6  102.76
 27.0796  10741.8  103.276
 27.1216  10553.2  102.437
 27.1636  10627.6  102.965
 27.2056  10486.9  102.159
 27.2476  10646.4  102.937
 27.2896  10648.4  103.06
 27.3316  10498.5  102.039
 27.3736  10500.4  102.323
 27.4156  10420.4  101.767
 27.4576  10554.3  102.659
 27.4996  10501.6  101.989
 27.5416  10514.4  102.374
 27.5836  10496.9  102.11
 27.6256  10785.1  103.666
 27.6676  10753.3  103.533
 27.7096  10298.9  101.189
 27.7516  10398.4  101.83
 27.7936  10350.1  101.762
 27.8356  10394.9  101.597
 27.8776  10397.9  101.658
 27.9196  10223.2  100.651
 27.9616  10306.7  101.252
 28.0036  10301.4  101.201
 28.0456  10357  101.61
 28.0876  10054.3  100.203
 28.1296  10253.1  101.028
 28.1716  10202  100.783
 28.2136  10263.9  101.049
 28.2556  10042.7  100.073
 28.2976  10083.1  100.267
 28.3396  10221.4  100.701
 28.3816  10149  100.374
 28.4236  10173.3  100.648
 28.4656  10083.9  100.239
 28.5076  10119.4  100.041
 28.5496  10043.4  99.9378
 28.5916  10180.1  100.419
 28.6336  10026  99.9989
 28.6756  10069.9  99.4158
 28.7176  10030.8  99.7741
 28.7596  9982.41  99.4318
 28.8016  10039.6  99.7527
 28.8436  9892.21  99.252
 28.8856  10057.6  99.9316
 28.9276  9911.66  99.4518
 28.9696  9916.31  99.1344
 29.0116  9930.48  99.3838
 29.0536  9822.27  99.0449
 29.0956  9822.06  98.758
 29.1376  9750.37  98.3647
 29.1796  9856.1  98.9456
 29.2216  9785.06  98.4277
 29.2636  9898.15  99.0736
 29.3056  9809.35  98.414
 29.3476  9764.68  98.7147
 29.3896  9912.29  99.5513
 29.4316  10021.5  99.4308
 29.4736  9933.37  99.0492
 29.5156  9893.69  98.7737
 29.5576  9819.69  99.1591
 29.5996  9721.03  97.9134
 29.6416  9727.5  98.0668
 29.6836  9836.46  98.5394
 29.7256  9780.91  98.8314
 29.7676  9798.28  98.5715
 29.8096  9803.11  98.5432
 29.8516  9580.08  97.7408
 29.8936  9799.04  98.9542
 29.9356  9787.43  98.6459
 29.9776  9742.78  98.5754
 30.0196  9742.81  97.9608
 30.0616  9581.78  97.5194
 30.1036  9663.89  97.7621
 30.1456  9752.65  98.4409
 30.1876  9610.87  97.7121
 30.2296  9619.47  97.6918
 30.2716  9692.08  97.7002
 30.3136  9823.81  99.23
 30.3556  9628.74  98.2544
 30.3976  9683.53  100.058
 30.4396  9703.5  97.4814
 30.4816  9783.26  97.4754
 30.5236  9611.61  96.6361
 30.5656  9611.58  97.2884
 30.6076  9683.05  97.4199
 30.6496  9629.79  97.1943
 30.6916  9606.69  97.1703
 30.7336  9583.26  97.2066
 30.7756  9516.46  96.9593
 30.8176  9488.81  96.7334
 30.8596  9627.71  97.2025
 30.9016  9624.1  97.0605
 30.9436  9527.4  96.7941
 30.9856  9521.32  96.8716
 31.0276  9444.94  96.0948
 31.0696  9411.31  96.497
 31.1116  9414.71  96.4881
 31.1536  9520.92  96.9082
 31.1956  9359.1  96.1748
 31.2376  9226.6  95.4996
 31.2796  9375.9  95.8074
 31.3216  9409.98  95.9236
 31.3636  9484.86  97.0106
 31.4056  9361.13  97.693
 31.4476  9382.14  95.6895
 31.4896  9288.85  95.7143
 31.5316  9506.07  96.2204
 31.5736  9416.15  95.5751
 31.6156  9444.18  95.7481
 31.6576  9460.91  95.9325
 31.6996  9351.69  95.0512
 31.7416  9260.6  95.5047
 31.7836  9355.47  95.1434
 31.8256  9268.26  94.9669
 31.8676  9414.33  95.7134
 31.9096  9215.12  94.9158
 31.9516  9152.41  94.8882
 31.9936  9278.68  95.3668
 32.0356  9337.32  95.7331
 32.0776  9395.36  95.912
 32.1196  9219.12  95.0108
 32.1616  9193.88  94.4258
 32.2036  9154.56  94.7309
 32.2456  9173.05  95.2132
 32.2876  9221.27  94.9569
 32.3296  9070.58  94.1425
 32.3716  9129.88  94.5484
 32.4136  9310.44  95.689
 32.4556  9388.16  95.4644
 32.4976  9215.61  94.5167
 32.5396  9098.46  93.9485
 32.5816  9053.25  93.8419
 32.6236  9242.65  94.8894
 32.6656  9259.95  95.5224
 32.7076  9081.36  94.2503
 32.7496  9174.48  94.4015
 32.7916  9255.15  94.7733
 32.8336  9192.65  94.5553
 32.8756  9156.51  94.0818
 32.9176  8987.26  93.6895
 32.9596  9027.33  93.9721
 33.0016  9175.58  94.5407
 33.0436  9169.21  94.6767
 33.0856  9089.08  94.3346
 33.1276  8944.51  93.3202
 33.1696  9110.71  94.0143
 33.2116  9162.28  94.5194
 33.2536  9141.6  94.4076
 33.2956  9025.57  93.8917
 33.3376  9025.23  93.7051
 33.3796  9104.74  94.2461
 33.4216  9029.45  93.4478
 33.4636  9075.65  93.8409
 33.5056  8925.07  93.3018
 33.5476  8870.89  93.006
 33.5896  9106.5  94.0062
 33.6316  8902.87  93.268
 33.6736  8778.86  92.8465
 33.7156  8850.6  93.2804
 33.7576  8982.75  93.5977
 33.7996  9111.27  94.0272
 33.8416  8797.39  92.5755
 33.8836  8900.76  92.8997
 33.9256  8811.71  92.492
 33.9676  8937  93.0329
 34.0096  8732.98  92.2903
 34.0516  8835.45  92.4653
 34.0936  8831.19  92.7054
 34.1356  8962.6  93.121
 34.1776  8783.14  92.2102
 34.2196  8756.04  92.2484
 34.2616  8686.91  92.0166
 34.3036  8624.35  91.9353
 34.3456  8762.46  92.419
 34.3876  8804.59  92.6995
 34.4296  8720.19  91.8465
 34.4716  8851.83  92.6865
 34.5136  8658.65  91.8772
 34.5556  8757.41  92.6497
 34.5976  8758.77  92.492
 34.6396  8741.27  92.0848
 34.6816  8762.34  92.3077
 34.7236  8757.17  92.0627
 34.7656  8746.55  92.2077
 34.8076  8623.77  91.8757
 34.8496  8718.66  92.2305
 34.8916  8728.13  92.1626
 34.9336  8778.75  92.3941
 34.9756  8695.78  91.9077
 35.0176  8719.91  92.5351
 35.0596  8605.03  91.7465
 35.1016  8692.99  91.9836
 35.1436  8746.59  91.9466
 35.1856  8533.83  90.9513
 35.2276  8594.29  91.4444
 35.2696  8641.48  91.8924
 35.3116  8680.15  92.1855
 35.3536  8470.91  90.8147
 35.3956  8588.46  91.1144
 35.4376  8479.23  91.0895
 35.4796  8559.12  91.5809
 35.5216  8472.04  91.0669
 35.5636  8250.42  90.6108
 35.6056  8592.26  91.477
 35.6476  8532.81  91.053
 35.6896  8590.04  91.4488
 35.7316  8393.82  90.3733
 35.7736  8483.75  91.0562
 35.8156  8486.34  91.0576
 35.8576  8582.96  91.8394
 35.8996  8605.37  91.9164
 35.9416  8507.13  90.9025
 35.9836  8458.73  91.0872
 36.0256  8644.25  92.005
 36.0676  8566.6  91.3512
 36.1096  8429.06  90.7463
 36.1516  8481.42  90.9131
 36.1936  8481.25  90.7663
 36.2356  8378.9  90.8549
 36.2776  8552.43  91.2517
 36.3196  8503.17  90.6665
 36.3616  8585.87  91.2405
 36.4036  8439.32  90.5206
 36.4456  8563.97  91.3962
 36.4876  8235.96  89.566
 36.5296  8472.32  90.8862
 36.5716  8355.11  91.0398
 36.6136  8579.73  91.0087
 36.6556  8514.57  90.8651
 36.6976  8521.08  91.4079
 36.7396  8405.37  90.5181
 36.7816  8236.59  89.9751
 36.8236  8378.38  90.6761
 36.8656  8317.95  90.4174
 36.9076  8376.91  90.6141
 36.9496  8397.6  90.7015
 36.9916  8433.66  90.5292
 37.0336  8478  91.0829
 37.0756  8406.54  90.4909
 37.1176  8211.69  89.7053
 37.1596  8333.92  90.3757
 37.2016  8192.77  89.8347
 37.2436  8480.11  90.7005
 37.2856  8319.59  90.1029
 37.3276  8399.15  89.8682
 37.3696  8284.26  90.1376
 37.4116  8373.84  90.53
 37.4536  8257.99  89.7731
 37.4956  8194.64  89.4624
 37.5376  8277.25  91.4693
 37.5796  8261  91.361
 37.6216  8099.48  88.7198
 37.6636  8145.52  88.872
 37.7056  8142.08  89.041
 37.7476  8259.3  89.2151
 37.7896  8236.06  89.5858
 37.8316  8018.07  88.5725
 37.8736  8160.87  88.8748
 37.9156  8151.27  88.827
 37.9576  8139.26  88.639
 37.9996  7978.72  87.4898
 38.0416  8001.73  88.4183
 38.0836  8345.67  90.2074
 38.1256  8145.69  89.0824
 38.1676  7895.41  87.8372
 38.2096  8155.08  88.8936
 38.2516  8277.7  89.7559
 38.2936  8146.56  88.8506
 38.3356  8129.09  88.6602
 38.3776  7965.17  88.0431
 38.4196  8164.58  88.9864
 38.4616  7987.54  88.2522
 38.5036  8224.28  89.3961
 38.5456  8072.83  89.4127
 38.5876  8093.79  89.5568
 38.6296  8087.4  88.5039
 38.6716  7920.67  87.3737
 38.7136  7966.47  87.5735
 38.7556  7967.11  88.0765
 38.7976  7990.91  88.1535
 38.8396  7891.28  88.0502
 38.8816  7864.28  87.6729
 38.9236  7946.02  87.9489
 38.9656  8011.2  88.2214
 39.0076  8103.34  88.1263
 39.0496  8038.95  88.319
 39.0916  8087.2  88.2273
 39.1336  7990.07  88.1147
 39.1756  7890.87  87.6327
 39.2176  7961.61  88.5556
 39.2596  7947.08  88.397
 39.3016  7965.11  88.065
 39.3436  7904.45  88.1568
 39.3856  8014.76  88.2164
 39.4276  8034.57  88.818
 39.4696  7993.07  88.2101
 39.5116  7906.91  88.2437
 39.5536  8113.79  89.8252
 39.5956  8090.65  88.7922
 39.6376  8045.63  88.5398
 39.6796  8017.94  88.136
 39.7216  8083.92  88.5916
 39.7636  8042.65  88.9415
 39.8056  7988.3  88.4161
 39.8476  8081.81  89.1926
 39.8896  7945.7  88.0632
 39.9316  7895.05  88.0403
 39.9736  8056.27  88.5033
 40.0156  8068.13  88.3842
 40.0576  8082.68  88.835
 40.0996  8147.4  88.356
 40.1416  7992.47  88.3094
 40.1836  8104.52  88.8072
 40.2256  8028.43  88.4381
 40.2676  7994.76  88.428
 40.3096  8077.62  88.7411
 40.3516  8047.44  88.6892
 40.3936  8186.69  89.0063
 40.4356  8045.52  88.4338
 40.4776  8144.28  89.221
 40.5196  8134.05  89.4629
 40.5616  8069.3  88.7439
 40.6036  7985.82  88.5342
 40.6456  8164.05  89.1249
 40.6876  8132.54  88.9389
 40.7296  8112.71  88.9704
 40.7716  8034.78  88.6712
 40.8136  8030.97  88.5936
 40.8556  8198.19  89.6415
 40.8976  8068.69  88.856
 40.9396  8023.09  88.9529
 40.9816  8024.45  88.2441
 41.0236  8101.34  88.4414
 41.0656  8201.81  89.5391
 41.1076  8134.14  88.9388
 41.1496  8064.69  88.4671
 41.1916  8064.24  88.7921
 41.2336  8027.4  88.5721
 41.2756  8003.96  88.0508
 41.3176  8072.46  89.0448
 41.3596  8093.25  88.8911
 41.4016  8021.92  88.7536
 41.4436  8028.36  88.5791
 41.4856  8087.73  89.0668
 41.5276  8019.35  88.7091
 41.5696  7999.44  88.2275
 41.6116  7964.2  88.428
 41.6536  8064.22  88.8357
 41.6956  8090.47  88.9673
 41.7376  7973.49  88.4217
 41.7796  8019.06  88.5572
 41.8216  8027.06  88.8395
 41.8636  8076.78  89.0485
 41.9056  7868.56  87.6858
 41.9476  8051.78  88.9375
 41.9896  8074.6  88.7272
 42.0316  8030.91  88.5731
 42.0736  8056.61  88.855
 42.1156  8005.21  88.3762
 42.1576  8013.1  88.5186
 42.1996  7999.87  88.5911
 42.2416  7986.69  88.0973
 42.2836  7981.13  88.1743
 42.3256  7984.57  88.3141
 42.3676  7875.93  87.5155
 42.4096  8009.29  88.2146
 42.4516  7873.76  87.5549
 42.4936  7942.59  88.0057
 42.5356  7877.79  87.7804
 42.5776  7994.01  88.3606
 42.6196  7978.18  88.3348
 42.6616  7695.31  86.9212
 42.7036  7923.8  87.5818
 42.7456  7947.13  88.0693
 42.7876  7801.85  87.3605
 42.8296  7938.54  87.9516
 42.8716  7858.9  87.6733
 42.9136  7843.14  87.3327
 42.9556  7961.62  88.1616
 42.9976  7936.16  87.9878
 43.0396  7885.82  87.4353
 43.0816  7746.26  87.0342
 43.1236  7843.1  87.6385
 43.1656  7858.09  87.5508
 43.2076  7873.59  87.7385
 43.2496  7722.76  86.7107
 43.2916  7797.31  87.4963
 43.3336  7954.92  88.2128
 43.3756  7800.88  87.1081
 43.4176  7790.26  87.1298
 43.4596  7857.78  87.3565
 43.5016  7760.65  87.2248
 43.5436  7799.19  87.3437
 43.5856  7768.39  87.1956
 43.6276  7717.88  86.8007
 43.6696  7738.16  87.1767
 43.7116  7790.59  86.9699
 43.7536  7887.58  88.0054
 43.7956  7670.74  87.9863
 43.8376  7720.18  86.7976
 43.8796  7802.54  87.3415
 43.9216  7685.12  86.6004
 43.9636  7778.05  87.229
 44.0056  7659.49  86.7928
 44.0476  7761.11  86.9921
 44.0896  7669.84  86.8281
 44.1316  7810.54  87.1351
 44.1736  7689.81  86.5839
 44.2156  7736.41  86.697
 44.2576  7680  86.7129
 44.2996  7630.06  86.3949
 44.3416  7742.47  86.787
 44.3836  7515.56  85.8392
 44.4256  7590.91  85.907
 44.4676  7584.82  86.034
 44.5096  7702.57  86.8451
 44.5516  7563.18  86.0092
 44.5936  7482.38  85.5096
 44.6356  7571.87  85.7586
 44.6776  7554.29  85.9792
 44.7196  7579.58  86.4269
 44.7616  7497.61  87.2855
 44.8036  7503.13  85.9358
 44.8456  7500.64  85.9273
 44.8876  7520.26  85.8881
 44.9296  7636.91  86.0047
 44.9716  7532.14  85.8427
 45.0136  7555.47  85.9056
 45.0556  7483.84  85.5797
 45.0976  7417.2  85.2603
 45.1396  7413.8  85.0045
 45.1816  7423.84  84.9819
 45.2236  7576.69  85.759
 45.2656  7443.57  85.4974
 45.3076  7492.09  85.5685
 45.3496  7403.41  85.3585
 45.3916  7485.59  86.0989
 45.4336  7455.14  85.7731
 45.4756  7395.15  85.2805
 45.5176  7446.38  85.1923
 45.5596  7518.59  85.7198
 45.6016  7307.89  84.9302
 45.6436  7429.45  84.8161
 45.6856  7351.24  85.0143
 45.7276  7321.01  86.1641
 45.7696  7324.31  85.8465
 45.8116  7368.94  85.5618
 45.8536  7356.45  85.3813
 45.8956  7420.64  85.1054
 45.9376  7393.95  84.4179
 45.9796  7418.4  85.2355
 46.0216  7381.56  85.3749
 46.0636  7467.35  85.0099
 46.1056  7435.95  84.8159
 46.1476  7361.87  84.9805
 46.1896  7443.11  85.6017
 46.2316  7350.57  84.9313
 46.2736  7268.66  84.6611
 46.3156  7416.37  85.2698
 46.3576  7344.66  85.0601
 46.3996  7237.63  84.5986
 46.4416  7422.57  85.2215
 46.4836  7277.82  84.7662
 46.5256  7407.77  85.4566
 46.5676  7278.87  84.8198
 46.6096  7341.83  85.1198
 46.6516  7357.84  84.2601
 46.6936  7359.1  84.7509
 46.7356  7384.59  85.004
 46.7776  7251.84  85.0762
 46.8196  7289.2  85.0351
 46.8616  7169.31  84.1323
 46.9036  7123.65  83.5312
 46.9456  7252.77  83.9241
 46.9876  7241.02  83.9419
 47.0296  7197.08  84.3628
 47.0716  7134.12  83.8237
 47.1136  7217.76  83.9968
 47.1556  7196.63  83.7379
 47.1976  7313.6  84.5712
 47.2396  7207.1  84.2743
 47.2816  7221.87  84.0673
 47.3236  7204.09  84.3293
 47.3656  7209.44  84.2961
 47.4076  7253.02  84.2702
 47.4496  7137.29  83.7639
 47.4916  7145.91  84.0028
 47.5336  7191.24  84.0896
 47.5756  7257.78  84.5866
 47.6176  7064.55  83.3474
 47.6596  7117.78  83.391
 47.7016  7265.6  84.0656
 47.7436  7127.39  83.5925
 47.7856  7315.18  84.7192
 47.8276  7142.92  83.7476
 47.8696  7117.75  83.6994
 47.9116  7198.19  83.8846
 47.9536  7095.09  83.2192
 47.9956  7007.09  83.4078
 48.0376  7027  83.2996
 48.0796  7177.3  84.3169
 48.1216  7332.73  85.0403
 48.1636  7272.13  84.2621
 48.2056  7054.62  83.255
 48.2476  7144.9  84.09
 48.2896  7104.92  83.7641
 48.3316  7059.7  83.4383
 48.3736  7006.29  83.1508
 48.4156  7023.61  83.1022
 48.4576  6967.37  83.0565
 48.4996  7157.29  83.6452
 48.5416  7109.75  83.6873
 48.5836  7070.94  83.1343
 48.6256  7116.73  83.6092
 48.6676  7088.26  83.9471
 48.7096  7032.98  82.8987
 48.7516  7001.55  82.8638
 48.7936  6945.82  82.5986
 48.8356  7023.8  83.1096
 48.8776  7050.06  83.8409
 48.9196  7161.09  83.8528
 48.9616  6889.36  82.6221
 49.0036  6987.78  83.5635
 49.0456  6999.47  83.6132
 49.0876  6983.9  83.0519
 49.1296  7031.52  83.4976
 49.1716  6933.43  82.7945
 49.2136  6964.85  82.8905
 49.2556  6985.25  83.0575
 49.2976  6943.73  82.8749
 49.3396  6983.24  83.1727
 49.3816  7070.61  83.1189
 49.4236  6988.55  83.0635
 49.4656  6893.65  82.5081
 49.5076  6989.53  82.8331
 49.5496  6963.56  82.743
 49.5916  7009.42  82.9279
 49.6336  6842.99  82.1469
 49.6756  6961.61  83.0822
 49.7176  6909.67  82.712
 49.7596  6874.99  82.2752
 49.8016  6919.08  82.4451
 49.8436  6912.22  82.7139
 49.8856  6949.82  82.9418
 49.9276  6873.04  82.5856
 49.9696  6855.9  82.4655
 50.0116  6861.9  82.6242
 50.0536  6971.06  83.2241
 50.0956  6788.55  82.202
 50.1376  6833.29  82.1761
 50.1796  6804.14  82.2676
 50.2216  6791.93  82.1913
 50.2636  6855.4  82.1837
 50.3056  6804.85  82.0643
 50.3476  6854.6  82.3832
 50.3896  6765.23  81.8069
 50.4316  6872.16  82.2948
 50.4736  6753.29  81.7982
 50.5156  6824.31  82.2118
 50.5576  6838.63  82.0602
 50.5996  6884.55  82.6186
 50.6416  6771.42  81.8697
 50.6836  6826.1  82.2547
 50.7256  6931.36  82.818
 50.7676  6789.23  82.2819
 50.8096  6822.24  82.0162
 50.8516  6789.68  82.2311
 50.8936  6749.81  81.7696
 50.9356  6741.72  81.8234
 50.9776  6782.85  82.2282
 51.0196  6654.12  81.5739
 51.0616  6626.92  80.746
 51.1036  6883.66  82.6475
 51.1456  6789.62  81.9942
 51.1876  6737.05  81.0226
 51.2296  6678.06  81.2937
 51.2716  6696.63  81.1123
 51.3136  6652.69  81.3006
 51.3556  6690.72  81.1528
 51.3976  6659.01  81.118
 51.4396  6546.06  80.7315
 51.4816  6672.32  81.3612
 51.5236  6632.58  81.2021
 51.5656  6691.75  81.1668
 51.6076  6750.57  81.609
 51.6496  6688.3  81.4142
 51.6916  6555.82  80.9616
 51.7336  6615.57  81.4106
 51.7756  6684.05  81.5393
 51.8176  6633.36  81.3278
 51.8596  6606.44  81.1836
 51.9016  6835.41  82.1834
 51.9436  6709.36  82.8821
 51.9856  6510.34  82.0615
 52.0276  6635.66  81.3596
 52.0696  6634.93  81.4241
 52.1116  6810.05  82.6072
 52.1536  6541.32  80.8029
 52.1956  6649.01  80.9713
 52.2376  6683.36  81.358
 52.2796  6696.56  81.252
 52.3216  6406.72  80.1494
 52.3636  6549.96  80.6198
 52.4056  6670.26  81.2189
 52.4476  6590.69  81.0986
 52.4896  6422.95  80.1093
 52.5316  6528.34  80.8125
 52.5736  6566.49  80.766
 52.6156  6554.25  81.0645
 52.6576  6591.19  80.7405
 52.6996  6325.6  80.0543
 52.7416  6566.09  81.4231
 52.7836  6524.52  81.0496
 52.8256  6789.1  81.8777
 52.8676  6462.23  80.454
 52.9096  6566.25  81.1875
 52.9516  6432.7  80.7292
 52.9936  6489.44  81.4801
 53.0356  6414.31  80.0215
 53.0776  6360.55  79.9396
 53.1196  6395.75  80.2903
 53.1616  6385.9  80.2756
 53.2036  6394.73  80.2841
 53.2456  6393.64  80.3769
 53.2876  6320.35  79.6263
 53.3296  6320.97  79.9538
 53.3716  6406.37  80.2385
 53.4136  6448.52  80.6469
 53.4556  6362.15  80.141
 53.4976  6394.36  80.1914
 53.5396  6387.86  80.5445
 53.5816  6396.35  80.2319
 53.6236  6293.88  79.9237
 53.6656  6356.22  79.951
 53.7076  6356.61  79.9084
 53.7496  6326.83  79.8384
 53.7916  6462.48  80.8181
 53.8336  6306.65  79.7373
 53.8756  6144.49  79.245
 53.9176  6311.31  79.6738
 53.9596  6387.08  80.9031
 54.0016  6343.26  79.9636
 54.0436  6340.36  80.1541
 54.0856  6387.84  79.8868
 54.1276  6348.74  79.833
 54.1696  6280.44  79.5779
 54.2116  6356.98  79.8186
 54.2536  6350.3  79.5899
 54.2956  6440.01  80.2033
 54.3376  6373.4  80.2665
 54.3796  6256.69  79.433
 54.4216  6409.67  80.4414
 54.4636  6324.39  79.8554
 54.5056  6306.34  79.5709
 54.5476  6289.18  79.7959
 54.5896  6421.99  80.4604
 54.6316  6360.43  79.9377
 54.6736  6353.77  79.9679
 54.7156  6310.97  79.7194
 54.7576  6245.29  79.3066
 54.7996  6333.3  80.012
 54.8416  6384.95  80.3639
 54.8836  6223.03  79.4577
 54.9256  6363.59  80.0919
 54.9676  6339.76  79.7982
 55.0096  6302.44  79.6321
 55.0516  6356.86  80.2134
 55.0936  6314.89  79.5839
 55.1356  6319.31  79.6514
 55.1776  6322.63  79.9368
 55.2196  6212.74  79.0271
 55.2616  6257.36  79.5201
 55.3036  6250.98  79.6436
 55.3456  6433.4  80.9428
 55.3876  6278.76  79.7094
 55.4296  6291.92  79.7731
 55.4716  6291.99  79.8018
 55.5136  6328.39  79.7974
 55.5556  6276.27  79.5335
 55.5976  6257.16  79.4609
 55.6396  6225.57  79.1324
 55.6816  6243.85  79.2094
 55.7236  6379.85  80.103
 55.7656  6296.81  79.3467
 55.8076  6299.32  79.3456
 55.8496  6226.57  79.3117
 55.8916  6252.42  79.5776
 55.9336  6300.52  79.695
 55.9756  6221.29  79.0791
 56.0176  6223.95  79.2521
 56.0596  6222.91  79.2218
 56.1016  6266.52  79.5084
 56.1436  6177.17  79.2106
 56.1856  6244.96  79.3794
 56.2276  6212.57  79.2322
 56.2696  6192.51  79.0798
 56.3116  6174.03  79.3602
 56.3536  6234.41  79.4081
 56.3956  6173.56  79.0095
 56.4376  6198.51  79.2017
 56.4796  6248.66  79.3227
 56.5216  6211.28  79.4558
 56.5636  6187.52  78.8995
 56.6056  6226.59  79.3765
 56.6476  6262.68  79.237
 56.6896  6242.59  79.5556
 56.7316  6146.13  78.846
 56.7736  6255.8  79.5446
 56.8156  6263.53  79.5921
 56.8576  6172.03  78.9557
 56.8996  6223.33  79.2122
 56.9416  6184.06  79.2726
 56.9836  6087.13  78.1648
 57.0256  6153.31  78.9047
 57.0676  6159.31  79.0652
 57.1096  6256.28  79.4761
 57.1516  6199.77  79.1792
 57.1936  6250.73  79.2492
 57.2356  6180.8  79.1242
 57.2776  6160.04  78.952
 57.3196  6173.36  79.4011
 57.3616  6178.35  78.9286
 57.4036  6239.63  79.38
 57.4456  6185.87  79.0012
 57.4876  6214.51  79.0389
 57.5296  6124.32  78.805
 57.5716  6129.44  78.8332
 57.6136  6106.72  78.5036
 57.6556  6122.92  78.7442
 57.6976  6246.57  79.3607
 57.7396  6095.05  78.7635
 57.7816  6030.75  78.7
 57.8236  6123.94  79.1031
 57.8656  6152.67  78.9456
 57.9076  6115.18  78.7271
 57.9496  6113.12  79.0663
 57.9916  6078.61  78.3629
 58.0336  6108.44  78.8282
 58.0756  6220.84  79.1657
 58.1176  6236.74  79.2792
 58.1596  6077.7  78.8223
 58.2016  6285.11  79.3731
 58.2436  6216.97  79.3611
 58.2856  6176.19  79.017
 58.3276  6253.96  79.8938
 58.3696  6056.45  78.3688
 58.4116  6206.76  79.1944
 58.4536  6186.29  78.9617
 58.4956  6158.08  78.951
 58.5376  6246.22  79.0878
 58.5796  6190.28  79.1564
 58.6216  6228.34  79.2143
 58.6636  6261.31  79.6371
 58.7056  6144.8  78.7525
 58.7476  6147.49  79.2205
 58.7896  6141.06  78.8187
 58.8316  6162.46  78.9573
 58.8736  6236.35  79.4372
 58.9156  6206.04  79.284
 58.9576  6146.42  79.2207
 58.9996  6285.83  79.3477
 59.0416  6319.53  79.9242
 59.0836  6239.23  79.3452
 59.1256  6226.62  79.9792
 59.1676  6178.03  79.9696
 59.2096  6223.59  79.5595
 59.2516  6413.8  80.3345
 59.2936  6354.25  80.2972
 59.3356  6210.15  79.2575
 59.3776  6415.53  80.7316
 59.4196  6223.16  79.4457
 59.4616  6053.56  78.2168
 59.5036  6123.08  78.7001
 59.5456  6397.51  80.129
 59.5876  6221.56  79.2133
 59.6296  6366.82  80.2038
 59.6716  6190.48  79.1439
 59.7136  6262.48  79.5909
 59.7556  6209.17  79.3898
 59.7976  6068.91  78.2295
 59.8396  6081.41  78.204
 59.8816  6159.21  79.2533
 59.9236  6195.4  79.125
 59.9656  6199.46  79.4145
 60.0076  6064.68  77.9031
 60.0496  6178.75  79.1414
 60.0916  6451.11  80.2661
 60.1336  6092.06  79.1124
 60.1756  6117.82  80.4712
 60.1996  0.0000000E+00  0.0000000E+00