File: docs/examples/opeando_xrd/IS17_D/Data/IS17_D/17_Da_f00100.xye
# /beamlines/bl04/projects/cycle2025-II/20250340211-lsimonelli/DATA/IS17_D/17_Da_f00100.xye : mythproc.py merge -s 0.006 -l 0.5 -f /beamlines/bl04/inhouse/ff/FlatField/ff_20Nov2024rod8mm60s_17keV.raw -b True -c true -o xye /beamlines/bl04/projects/cycle2025-II/20250340211-lsimonelli/DATA/IS17_D/17_Da_00100.dat
# IsMon = [6772378, 6773026, 6774607]  IsPos = [-1.4999, -2.4884, -3.4988]
# Wave = 0.4962  CalPath /beamlines/bl04/projects/cycle2025-II/20250340211-lsimonelli/DATA/Align/Si_Pos1_25keV_f00001.cal
# Date = 2025-09-24_21:25:32 Dt = 4.8000  Bin = 0.0060  <imon> = 6773337 +/- 936 (Min/Max) 6772378 / 6774607
# icurr 251.3507  mocoIn 1.7151E-05  mocoOut 0.8046  i15 7.09314e+06  imon 6.77334e+06  i7 3.0000  iEMpd_timer 4.8000  iEMpd_1 3.3165E-08  iEMpd_2 7.7149E-08  iEMpd_3 1.7436E-08  iEMpd_4 4.7854E-08  iEMhp_timer 4.8000  iEMhp_1 4.9106E-06  iEMhp_2 -2.5337E-08  iEMhp_3 -2.4128E-08  iEMhp_4 -2.2603E-08
#      9776
 1.5856  40708.4  207.194
 1.6276  47732.5  220.508
 1.6696  55132.8  236.15
 1.7116  63408  253.748
 1.7536  72558.4  270.284
 1.7956  77821.8  280.615
 1.8376  73945.6  273.971
 1.8796  61679.2  248.367
 1.9216  50040.8  224.611
 1.9636  41983.7  204.892
 2.0056  37885.2  193.88
 2.0476  34806.2  187.872
 2.0896  33749.9  183.915
 2.1316  33062.9  181.158
 2.1736  31311.6  177.693
 2.2156  31987.6  178.16
 2.2576  30692.4  175.141
 2.2996  29444.1  172.173
 2.3416  30047.2  172.54
 2.3836  29045  169.741
 2.4256  28366.8  168.294
 2.4676  28354.9  168.021
 2.5096  27976.9  166.952
 2.5516  27336.9  168.843
 2.5936  27334  165.433
 2.6356  26879.1  164.742
 2.6776  26740.3  163.205
 2.7196  26435.7  162.786
 2.7616  26442  162.585
 2.8036  26028  161.481
 2.8456  25899.8  161.698
 2.8876  25344.5  159.833
 2.9296  24851.5  158.395
 2.9716  25123  158.747
 3.0136  24845.6  157.932
 3.0556  24656.7  157.733
 3.0976  24533.6  156.268
 3.1396  24376.1  156.485
 3.1816  24183  155.792
 3.2236  23800  154.556
 3.2656  24088.9  154.519
 3.3076  23711.7  154.766
 3.3496  24101.8  154.967
 3.3916  24206.6  155.124
 3.4336  24739.8  157.408
 3.4756  25063.6  158.362
 3.5176  25789.9  160.431
 3.5596  25720.4  162.652
 3.6016  25796.5  160.502
 3.6436  25056.6  159.29
 3.6856  24679.5  156.374
 3.7276  23701.7  154.338
 3.7696  23297.3  153.205
 3.8116  22946.7  151.939
 3.8536  23062  152.25
 3.8956  23144.9  152.353
 3.9376  22883.2  151.74
 3.9796  23010.2  151.667
 4.0216  22847.4  150.168
 4.0636  23078.6  152.411
 4.1056  23071.5  152.023
 4.1476  22992.1  152.076
 4.1896  23317.8  153.011
 4.2316  23491.3  153.402
 4.2736  23906.6  154.54
 4.3156  24025.1  155.153
 4.3576  25059.1  158.377
 4.3996  25057.3  158.638
 4.4416  25604.2  159.941
 4.4836  26254.2  162.106
 4.5256  26422.1  163.241
 4.5676  26581.8  163.989
 4.6096  27161.1  164.417
 4.6516  27687.4  165.706
 4.6936  27622.5  166.325
 4.7356  27763.6  166.581
 4.7776  27942.3  166.946
 4.8196  27467.2  166.173
 4.8616  27053.4  164.401
 4.9036  26735  163.176
 4.9456  26737.3  163.831
 4.9876  25972.5  161.374
 5.0296  26453  162.678
 5.0716  26176.9  162.6
 5.1136  26585.4  163.574
 5.1556  26675.5  163.308
 5.1976  26976  164.226
 5.2396  27272.1  164.817
 5.2816  27214.5  165.105
 5.3236  27332.7  165.168
 5.3656  26808.8  164.5
 5.4076  26797.9  164.621
 5.4496  26759.9  163.984
 5.4916  26816.7  163.916
 5.5336  26821.8  163.939
 5.5756  26656.6  163.464
 5.6176  26803.5  163.341
 5.6596  27014.4  164.961
 5.7016  27273  165.016
 5.7436  27462.9  165.862
 5.7856  27074.5  164.745
 5.8276  27684.1  166.311
 5.8696  27761.4  166.713
 5.9116  27534.8  166.637
 5.9536  27869.9  167.399
 5.9956  28231.7  167.849
 6.0376  28327.7  168.767
 6.0796  28548.3  169.257
 6.1216  28586.3  169.571
 6.1636  28668.8  168.878
 6.2056  28893.9  170.208
 6.2476  28800.8  169.806
 6.2896  28997.9  170.066
 6.3316  28884.9  169.911
 6.3736  29151.6  170.586
 6.4156  29061.6  170.219
 6.4576  29300.4  170.521
 6.4996  29514.8  171.626
 6.5416  29533.4  171.812
 6.5836  29686.8  172.494
 6.6256  29536  171.614
 6.6676  30137.2  172.922
 6.7096  29848.2  172.943
 6.7516  30573.5  174.687
 6.7936  30585.6  174.141
 6.8356  30806.1  174.85
 6.8776  31084.3  176.441
 6.9196  31042.1  176.725
 6.9616  31472.5  177.389
 7.0036  31947.7  178.374
 7.0456  31955.5  177.689
 7.0876  31628.9  178.466
 7.1296  31637.2  177.628
 7.1716  31623.6  177.125
 7.2136  31373.1  176.207
 7.2556  31640.4  177.116
 7.2976  31671.2  177.701
 7.3396  31798.5  178.273
 7.3816  31498.1  177.641
 7.4236  31993.6  178.322
 7.4656  32103.4  178.11
 7.5076  32236.4  178.616
 7.5496  32148.9  178.908
 7.5916  32110.6  178.84
 7.6336  32497  179.805
 7.6756  32618.6  179.994
 7.7176  33002.8  181.36
 7.7596  32889.7  182.29
 7.8016  33123.3  185.116
 7.8436  33865.7  183.841
 7.8856  33884.2  183.504
 7.9276  34474.8  185.484
 7.9696  34654.5  186.281
 8.0116  35473.7  187.01
 8.0536  35957.2  188.54
 8.0956  35768.4  189.22
 8.1376  36570.3  190.796
 8.1796  36422.3  190.959
 8.2216  37177.8  191.659
 8.2636  37606.1  193.005
 8.3056  37320.3  193.044
 8.3476  37871  193.794
 8.3896  37415.1  192.701
 8.4316  37768.3  193.774
 8.4736  37864.8  193.486
 8.5156  37675.6  193.279
 8.5576  37186.3  192.996
 8.5996  37221.1  191.957
 8.6416  37130.3  192.985
 8.6836  36842.8  192.064
 8.7256  37469.1  193.137
 8.7676  36665.9  193.947
 8.8096  36537.1  190.929
 8.8516  36406.4  190.198
 8.8936  36541.6  190.432
 8.9356  35859.2  189.004
 8.9776  36662.3  191.208
 9.0196  36032.9  189.23
 9.0616  36052.1  188.74
 9.1036  35768.9  189.201
 9.1456  35882.9  188.844
 9.1876  35760.6  188.478
 9.2296  35932.8  188.338
 9.2716  35330.8  186.817
 9.3136  35271.8  186.644
 9.3556  35402  186.971
 9.3976  34046.1  183.88
 9.4396  34563.4  185.161
 9.4816  34294.2  184.301
 9.5236  34175.6  183.896
 9.5656  33962.4  183.64
 9.6076  33923.7  184.066
 9.6496  33282.2  182.243
 9.6916  33706.8  183.373
 9.7336  33741.5  183.248
 9.7756  33543.2  183.963
 9.8176  32810.8  181.453
 9.8596  32625.9  179.397
 9.9016  32414.9  178.811
 9.9436  31830.2  177.106
 9.9856  31618.4  176.736
 10.0276  31319.6  177.001
 10.0696  31727.2  177.188
 10.1116  30652.7  174.422
 10.1536  30622.1  174.5
 10.1956  30265.5  173.083
 10.2376  29672  170.889
 10.2796  30152.1  172.393
 10.3216  29601  171.078
 10.3636  29590.3  171.072
 10.4056  29204.3  170.351
 10.4476  28970.6  169.298
 10.4896  28696.1  167.957
 10.5316  28441.4  167.905
 10.5736  28386.9  168.149
 10.6156  27918.4  166.524
 10.6576  28108  165.674
 10.6996  27783.2  165.38
 10.7416  27362.5  164.348
 10.7836  27537.5  165.554
 10.8256  27399.5  165.564
 10.8676  27582.4  165.654
 10.9096  26850.9  163.479
 10.9516  26895.2  162.556
 10.9936  26820.2  162.515
 11.0356  26728.9  162.877
 11.0776  26724.1  162.176
 11.1196  26212.6  161.365
 11.1616  25901.2  160.093
 11.2036  26244.1  160.999
 11.2456  26108.5  161.289
 11.2876  25971.5  160.598
 11.3296  25472.1  158.942
 11.3716  25910.8  160.002
 11.4136  25908.5  160.887
 11.4556  26097.4  161.136
 11.4976  26302.5  160.748
 11.5396  26668.7  162.033
 11.5816  27101.5  163.807
 11.6236  26928.9  163.504
 11.6656  26288.3  160.699
 11.7076  25616.7  159.474
 11.7496  25205.1  162.083
 11.7916  25161.1  157.313
 11.8336  24862.7  157.257
 11.8756  24653.1  156.135
 11.9176  24741  156.075
 11.9596  24344.5  155
 12.0016  24492.2  156.257
 12.0436  24134.5  154.541
 12.0856  24189.2  155.24
 12.1276  24204.6  155.21
 12.1696  24135.2  154.126
 12.2116  24333.7  154.748
 12.2536  23795.2  153.856
 12.2956  24108.2  154.199
 12.3376  23680.1  153.033
 12.3796  23864.6  154.088
 12.4216  23965.4  153.628
 12.4636  23687.4  153.646
 12.5056  23978.3  153.853
 12.5476  23985.5  153.413
 12.5896  23823.4  153.513
 12.6316  23584.7  152.911
 12.6736  23711.8  153.803
 12.7156  23744.1  153.768
 12.7576  23755.3  154.044
 12.7996  23864  153.047
 12.8416  23744.7  153.71
 12.8836  24194.3  154.988
 12.9256  24301.9  154.342
 12.9676  24406.8  155.105
 13.0096  24144.5  155.363
 13.0516  24318.5  154.963
 13.0936  24256.5  155.167
 13.1356  24634.6  155.352
 13.1776  24288.9  155.24
 13.2196  24614.5  155.939
 13.2616  24499.6  155.879
 13.3036  24559.4  156.046
 13.3456  24495.5  156.195
 13.3876  24471.6  155.411
 13.4296  24619.5  156.032
 13.4716  24737.1  156.009
 13.5136  24377.2  155.024
 13.5556  24435.7  155.82
 13.5976  24481.3  156.105
 13.6396  24750.8  156.34
 13.6816  24325.8  155.481
 13.7236  24946.8  157.103
 13.7656  24320.8  155.648
 13.8076  24468.4  154.903
 13.8496  24205.3  154.667
 13.8916  24147.3  155.48
 13.9336  24195.6  154.862
 13.9756  24149.9  154.067
 14.0176  23946.6  154.096
 14.0596  23744.7  153.412
 14.1016  23720.2  153.728
 14.1436  23550.2  152.311
 14.1856  23293.7  151.766
 14.2276  22980.6  151.233
 14.2696  23305.8  152.136
 14.3116  22959.2  150.904
 14.3536  22555.9  149.751
 14.3956  22620.1  149.694
 14.4376  22802.6  150.072
 14.4796  22629.8  149.493
 14.5216  22402.6  149.547
 14.5636  22164.5  148.305
 14.6056  22317.3  148.398
 14.6476  22281.8  147.509
 14.6896  21792.2  146.416
 14.7316  21448.5  146.272
 14.7736  21352.4  145.107
 14.8156  21198.7  144.618
 14.8576  21165.9  144.354
 14.8996  20574.4  143.518
 14.9416  20346.7  142.727
 14.9836  20583.4  143.507
 15.0256  20428  141.894
 15.0676  20318.4  141.832
 15.1096  20254.7  141.345
 15.1516  19947.5  140.831
 15.1936  19802.9  139.742
 15.2356  19460.6  138.809
 15.2776  19525  138.622
 15.3196  19097.9  138.098
 15.3616  18896.8  137.124
 15.4036  18882  136.926
 15.4456  19264.7  137.961
 15.4876  18829.2  136.073
 15.5296  18674.9  135.799
 15.5716  18664.3  135.36
 15.6136  18547  135.262
 15.6556  18435.5  134.097
 15.6976  18306.7  133.92
 15.7396  18175.9  133.827
 15.7816  18178.1  133.34
 15.8236  17863.7  132.886
 15.8656  17821.1  132.519
 15.9076  17614.6  131.579
 15.9496  17535  134.063
 15.9916  17588.9  134.703
 16.0336  17208.9  130.155
 16.0756  17223.4  130.513
 16.1176  17205.2  130.519
 16.1596  16791.8  130.109
 16.2016  17245.5  130.593
 16.2436  16728.9  129.009
 16.2856  16753.1  128.646
 16.3276  16607.3  128.501
 16.3696  16686.5  128.62
 16.4116  16531.9  128.487
 16.4536  16679.2  128.84
 16.4956  16331.7  127.234
 16.5376  16427  127.785
 16.5796  16378.3  126.962
 16.6216  16408.5  127.386
 16.6636  16429.3  127.614
 16.7056  16412.5  127.419
 16.7476  16388.4  126.856
 16.7896  16387.5  127.602
 16.8316  16409.3  127.653
 16.8736  16182.3  127.026
 16.9156  16342.8  127.986
 16.9576  16170.6  128.117
 16.9996  16237.7  128.868
 17.0416  16436.4  127.995
 17.0836  16157.6  126.67
 17.1256  16046.4  126.243
 17.1676  16091.5  126.419
 17.2096  15770.8  125.028
 17.2516  15682.9  124.459
 17.2936  15758.8  125.089
 17.3356  15425.3  123.765
 17.3776  15595.9  124.634
 17.4196  15633.7  124.478
 17.4616  15393.5  123.435
 17.5036  15000.3  122.212
 17.5456  15023.2  122.942
 17.5876  14914.7  121.552
 17.6296  15122.4  122.217
 17.6716  14912.3  121.926
 17.7136  14760.7  121.453
 17.7556  14733.8  121.628
 17.7976  14752.2  121.451
 17.8396  14658.8  120.566
 17.8816  14655.5  121.09
 17.9236  14601.8  120.683
 17.9656  14699.1  121.618
 18.0076  14684.4  121.134
 18.0496  14742.2  120.51
 18.0916  14544.3  120.23
 18.1336  14605  120.577
 18.1756  14649.2  120.288
 18.2176  14408.7  119.532
 18.2596  14481.7  119.571
 18.3016  14636.8  120.456
 18.3436  14558.8  120.147
 18.3856  14342.3  119.38
 18.4276  14368.1  119.163
 18.4696  14235.5  118.71
 18.5116  14356.4  119.501
 18.5536  14426.9  120.15
 18.5956  14044.9  118.099
 18.6376  14123.4  118.84
 18.6796  14039.9  117.805
 18.7216  14261.9  119.227
 18.7636  14054.2  118.344
 18.8056  14068.3  118.348
 18.8476  13863.5  118.102
 18.8896  14103.6  118.455
 18.9316  14314.6  119.323
 18.9736  13997.5  117.693
 19.0156  14020.3  118.188
 19.0576  13929.5  116.683
 19.0996  14192.6  118.488
 19.1416  13816.2  117.299
 19.1836  13911.2  117.305
 19.2256  13758.2  116.863
 19.2676  14091.2  118.371
 19.3096  13973  118.115
 19.3516  13858.2  117.591
 19.3936  13822.8  117.342
 19.4356  13929.8  117.66
 19.4776  13958.3  117.882
 19.5196  13888.2  117.438
 19.5616  13904.3  117.764
 19.6036  13978.1  117.56
 19.6456  13952.1  117.579
 19.6876  13923.1  117.104
 19.7296  13764.4  116.889
 19.7716  13836.6  117.345
 19.8136  14000.3  118.255
 19.8556  14122.8  118.252
 19.8976  14147.5  118.42
 19.9396  14033.4  117.524
 19.9816  14394.9  119.264
 20.0236  14579.1  120.248
 20.0656  14875.4  121.458
 20.1076  14604.7  120.822
 20.1496  14644.4  120.987
 20.1916  14500.4  119.9
 20.2336  14362.3  119.259
 20.2756  14161.7  118.859
 20.3176  13712.6  116.707
 20.3596  13794.5  117.029
 20.4016  13630.6  116.137
 20.4436  13699.8  116.989
 20.4856  13490.3  115.884
 20.5276  13611.4  116.861
 20.5696  13317.9  115.06
 20.6116  13156  114.634
 20.6536  13263.6  114.61
 20.6956  13448.7  115.531
 20.7376  13226.5  114.805
 20.7796  13185.5  114.313
 20.8216  13420.2  115.035
 20.8636  13129.8  114.145
 20.9056  13066  113.819
 20.9476  13091  113.766
 20.9896  13231.2  114.247
 21.0316  13310.3  114.481
 21.0736  13172  114.404
 21.1156  13073.3  114.134
 21.1576  13097.6  114.287
 21.1996  13018.3  113.924
 21.2416  12983.2  113.598
 21.2836  13068.2  113.936
 21.3256  12864  113.126
 21.3676  12911.2  112.883
 21.4096  12839  112.874
 21.4516  12922.8  113.123
 21.4936  12718.2  112.475
 21.5356  13009.6  113.701
 21.5776  13006.4  113.523
 21.6196  12854.9  112.891
 21.6616  12758  112.555
 21.7036  12818.6  112.598
 21.7456  12874.8  112.916
 21.7876  12753.9  112.141
 21.8296  12749.6  111.981
 21.8716  12650.7  111.774
 21.9136  12959.8  113.334
 21.9556  12675.7  111.757
 21.9976  12744.5  112.071
 22.0396  12689.6  112.086
 22.0816  12726.1  112.789
 22.1236  12747.2  112.335
 22.1656  12671.4  112.117
 22.2076  12918.6  112.685
 22.2496  12685.8  111.695
 22.2916  12793.8  112.042
 22.3336  12620.9  112.013
 22.3756  12692.3  112.051
 22.4176  12588.7  111.45
 22.4596  12398.7  111.187
 22.5016  12677.3  111.915
 22.5436  12812.7  112.399
 22.5856  12662.8  111.985
 22.6276  12620.6  111.939
 22.6696  12685.1  112.57
 22.7116  12621.8  111.806
 22.7536  12516.6  111.311
 22.7956  12633.8  111.167
 22.8376  12523.9  111.2
 22.8796  12598.9  111.337
 22.9216  12723.3  112.434
 22.9636  12644.3  111.235
 23.0056  12726.3  111.73
 23.0476  12731.3  112.327
 23.0896  12763  111.837
 23.1316  12780.2  112.356
 23.1736  12581.8  114.427
 23.2156  12801.1  112.767
 23.2576  12654.9  112.258
 23.2996  12853  112.919
 23.3416  12701.5  112.772
 23.3836  12558.1  111.368
 23.4256  12688.7  112.061
 23.4676  12522.3  111.026
 23.5096  12651.7  112.274
 23.5516  12514.4  110.95
 23.5936  12543  111.978
 23.6356  12765.3  112.621
 23.6776  12598.8  112.105
 23.7196  12391.6  110.753
 23.7616  12528.1  111.281
 23.8036  12488.6  111.157
 23.8456  12588.1  111.162
 23.8876  12260.3  110.055
 23.9296  12320.1  110.812
 23.9716  12430.4  110.497
 24.0136  12501.8  111.711
 24.0556  12183.9  110.024
 24.0976  12225.6  110.024
 24.1396  12056.5  111.899
 24.1816  12100.6  110.525
 24.2236  12057.7  109.942
 24.2656  11950.3  108.93
 24.3076  11897.1  108.922
 24.3496  11938  109.012
 24.3916  11917.3  108.966
 24.4336  11886.4  109.03
 24.4756  11838.7  108.677
 24.5176  11755.9  107.956
 24.5596  11769.1  108.142
 24.6016  11665.5  107.952
 24.6436  11645.5  107.354
 24.6856  11642.2  107.099
 24.7276  11611.5  107.267
 24.7696  11535.3  107.033
 24.8116  11572.6  107.387
 24.8536  11318.7  106.188
 24.8956  11416.6  106.395
 24.9376  11422.7  106.364
 24.9796  11359.2  106.419
 25.0216  11154.8  105.568
 25.0636  11274.4  105.788
 25.1056  10966.1  105.026
 25.1476  11244.9  108.012
 25.1896  11301.2  106.757
 25.2316  11301.8  106.021
 25.2736  11273.4  105.548
 25.3156  11234.4  105.442
 25.3576  11183.5  105.62
 25.3996  11111.1  105.258
 25.4416  11187  105.601
 25.4836  11085.2  105.649
 25.5256  10842.8  103.852
 25.5676  11073.2  104.686
 25.6096  11004.7  104.934
 25.6516  11136.6  105.061
 25.6936  10970.9  104.587
 25.7356  11072.4  105.199
 25.7776  11043.8  104.671
 25.8196  10898.3  104.218
 25.8616  10930.9  104.294
 25.9036  10991.9  104.056
 25.9456  10973.5  104.562
 25.9876  10870.8  104.136
 26.0296  11027.6  104.393
 26.0716  10843.7  103.941
 26.1136  10900.5  104.16
 26.1556  10987.9  103.953
 26.1976  10830.6  104.127
 26.2396  10908.9  103.652
 26.2816  10841.2  103.94
 26.3236  10866  104.224
 26.3656  10831.8  103.785
 26.4076  11010.5  104.849
 26.4496  11388.9  106.062
 26.4916  11014.9  104.364
 26.5336  10842.9  103.869
 26.5756  11068.2  104.807
 26.6176  10796.8  103.562
 26.6596  10732  103.559
 26.7016  10783  103.559
 26.7436  10583.7  102.729
 26.7856  10567  102.63
 26.8276  10508.5  102.3
 26.8696  10741.5  103.305
 26.9116  10535.8  102.246
 26.9536  10479.2  102.016
 26.9956  10616.8  102.722
 27.0376  10491.3  102.322
 27.0796  10432.9  101.781
 27.1216  10440  101.885
 27.1636  10286.9  101.3
 27.2056  10371.3  101.599
 27.2476  10455.1  102.01
 27.2896  10324  101.477
 27.3316  10326.4  101.205
 27.3736  10409.3  101.87
 27.4156  10298.3  101.168
 27.4576  10306.9  101.445
 27.4996  10313.8  101.078
 27.5416  10193.1  100.798
 27.5836  10255.3  100.925
 27.6256  10628.9  102.89
 27.6676  10421.9  101.926
 27.7096  10071.2  100.065
 27.7516  10228.7  100.996
 27.7936  10048.8  100.271
 27.8356  10134.6  100.321
 27.8776  10202.5  100.697
 27.9196  10037.4  99.7316
 27.9616  10102.2  100.244
 28.0036  10126.4  100.334
 28.0456  10116.7  100.416
 28.0876  9954.92  99.7051
 28.1296  10081.3  100.175
 28.1716  9954.06  99.5536
 28.2136  10017.7  99.837
 28.2556  9849.16  99.1029
 28.2976  9950.9  99.6102
 28.3396  9965.06  99.4284
 28.3816  9942.82  99.3481
 28.4236  9920.82  99.3873
 28.4656  9810.54  98.8733
 28.5076  9906.19  98.985
 28.5496  9804.59  98.7422
 28.5916  9894.08  98.9982
 28.6336  9741.07  98.5688
 28.6756  9855.38  98.3482
 28.7176  9872.84  98.9877
 28.7596  9708.51  98.0571
 28.8016  9887.49  98.9935
 28.8436  9659.07  98.0807
 28.8856  9739.03  98.3388
 28.9276  9823.91  99.0077
 28.9696  9668.43  97.8742
 29.0116  9665.42  98.0526
 29.0536  9544.3  97.6286
 29.0956  9699.77  98.1453
 29.1376  9686.42  98.0369
 29.1796  9685.61  98.0795
 29.2216  9644.35  97.7113
 29.2636  9712.7  98.1354
 29.3056  9719.82  97.9609
 29.3476  9648.66  98.127
 29.3896  9679.58  98.3728
 29.4316  9782.05  98.2351
 29.4736  9731.67  98.0433
 29.5156  9719.13  97.8993
 29.5576  9561.64  97.8443
 29.5996  9705.86  97.8346
 29.6416  9597.76  97.4031
 29.6836  9720.74  97.9541
 29.7256  9732.02  98.5807
 29.7676  9726.14  98.2084
 29.8096  9593.9  97.4788
 29.8516  9479.01  97.2278
 29.8936  9556.22  97.7179
 29.9356  9644.75  97.9217
 29.9776  9421  96.932
 30.0196  9474.26  96.6009
 30.0616  9529.5  97.2527
 30.1036  9563.02  97.2513
 30.1456  9508.72  97.2024
 30.1876  9416.17  96.7125
 30.2296  9526.9  97.2189
 30.2716  9552.42  96.9917
 30.3136  9606.36  98.128
 30.3556  9456.07  97.3693
 30.3976  9515.4  99.1949
 30.4396  9499.29  96.4569
 30.4816  9451.43  95.8139
 30.5236  9373.8  95.4357
 30.5656  9413.59  96.2847
 30.6076  9488.31  96.1016
 30.6496  9537.86  96.7361
 30.6916  9310.27  95.6653
 30.7336  9351.27  96.0281
 30.7756  9477.75  96.7674
 30.8176  9354.74  96.0535
 30.8596  9386.08  95.9856
 30.9016  9382.64  96.3081
 30.9436  9492.78  96.6208
 30.9856  9411.43  96.3113
 31.0276  9331.13  95.5102
 31.0696  9307.55  95.9636
 31.1116  9388.61  96.361
 31.1536  9261.49  95.5871
 31.1956  9285.96  95.8039
 31.2376  9216.36  95.4494
 31.2796  9292.59  95.3838
 31.3216  9264.54  95.187
 31.3636  9264.69  95.8778
 31.4056  9341.19  97.5922
 31.4476  9251.62  95.0168
 31.4896  9144.54  94.9659
 31.5316  9189.74  94.6019
 31.5736  9112.87  94.0372
 31.6156  9272.05  94.8692
 31.6576  9329.51  95.2606
 31.6996  9308.84  94.8288
 31.7416  9199.3  95.3265
 31.7836  9304.84  94.8818
 31.8256  9065.45  93.9229
 31.8676  9107.14  94.1246
 31.9096  9107.16  94.4858
 31.9516  8947.76  93.8105
 31.9936  8889.38  93.336
 32.0356  8883.54  93.3703
 32.0776  9080  94.285
 32.1196  9192.51  94.9533
 32.1616  9211.68  94.5095
 32.2036  8914.83  93.4792
 32.2456  9075.27  94.6993
 32.2876  9142.4  94.5463
 32.3296  8906.53  93.2832
 32.3716  8959.47  93.657
 32.4136  9094.58  94.5767
 32.4556  9134.78  94.1677
 32.4976  9052.64  93.6512
 32.5396  9053.47  93.7227
 32.5816  8921.65  93.1592
 32.6236  9025.9  93.7723
 32.6656  9130.77  94.8534
 32.7076  8804.85  92.8067
 32.7496  8965.68  93.3168
 32.7916  8946.66  93.1763
 32.8336  8935.7  93.2213
 32.8756  9020.71  93.3812
 32.9176  8816.78  92.7945
 32.9596  8870.28  93.1558
 33.0016  8843.72  92.8128
 33.0436  9079.63  94.2162
 33.0856  8872.21  93.197
 33.1276  8772.13  92.4133
 33.1696  8836.5  92.5914
 33.2116  8900.33  93.1549
 33.2536  8865.13  92.9692
 33.2956  9028.04  93.9048
 33.3376  8800.01  92.4489
 33.3796  8948.2  93.4327
 33.4216  8893.71  92.7469
 33.4636  8862.12  92.729
 33.5056  8768.72  92.4787
 33.5476  8707.87  92.1475
 33.5896  8925.83  93.0652
 33.6316  8865.32  93.0702
 33.6736  8689.7  92.3825
 33.7156  8736.92  92.6757
 33.7576  8707.13  92.144
 33.7996  9002.57  93.4605
 33.8416  8668.64  91.8992
 33.8836  8691.49  91.7969
 33.9256  8740.06  92.1137
 33.9676  8770.13  92.1735
 34.0096  8615.23  91.6644
 34.0516  8674.06  91.6107
 34.0936  8553.45  91.2403
 34.1356  8782.71  92.1943
 34.1776  8652.99  91.5206
 34.2196  8539.98  91.1027
 34.2616  8578.93  91.4458
 34.3036  8502.82  91.2855
 34.3456  8625.6  91.6957
 34.3876  8666.09  91.8761
 34.4296  8571.17  91.0601
 34.4716  8753.04  92.1668
 34.5136  8670.34  91.9402
 34.5556  8579.55  91.709
 34.5976  8686.92  92.0798
 34.6396  8465.98  90.623
 34.6816  8570.99  91.2939
 34.7236  8500.06  90.7035
 34.7656  8609.26  91.4743
 34.8076  8409.54  90.7291
 34.8496  8445.62  90.7805
 34.8916  8604.05  91.5006
 34.9336  8632.52  91.6176
 34.9756  8556.52  91.1313
 35.0176  8523.51  91.4735
 35.0596  8503.95  91.2074
 35.1016  8533.38  91.1324
 35.1436  8681.99  91.609
 35.1856  8516.4  90.8587
 35.2276  8499.28  90.939
 35.2696  8450.48  90.8715
 35.3116  8441.73  90.9136
 35.3536  8388.67  90.3409
 35.3956  8469.35  90.4839
 35.4376  8444.05  90.8938
 35.4796  8476.06  91.1362
 35.5216  8389.54  90.6241
 35.5636  8285.25  90.8009
 35.6056  8483.93  90.8971
 35.6476  8436.14  90.5407
 35.6896  8608.19  91.5429
 35.7316  8276.66  89.7391
 35.7736  8415.21  90.687
 35.8156  8351.45  90.3421
 35.8576  8384.52  90.7696
 35.8996  8526.74  91.4942
 35.9416  8660.17  91.6837
 35.9836  8346.5  90.386
 36.0256  8478.53  91.1122
 36.0676  8369.58  90.2893
 36.1096  8289.24  89.9902
 36.1516  8320.07  90.047
 36.1936  8237.39  89.4496
 36.2356  8247.78  90.1436
 36.2776  8333.59  90.0874
 36.3196  8359.85  89.9005
 36.3616  8405.93  90.2758
 36.4036  8411.71  90.3683
 36.4456  8267.79  89.8056
 36.4876  8308.37  89.9616
 36.5296  8310.43  90.0157
 36.5716  8227.75  90.3363
 36.6136  8456.81  90.3489
 36.6556  8424.33  90.3799
 36.6976  8281.68  90.1128
 36.7396  8246.96  89.6575
 36.7816  8281.36  90.2169
 36.8236  8265.63  90.0553
 36.8656  8171.72  89.6167
 36.9076  8123.55  89.227
 36.9496  8093.93  89.0515
 36.9916  8251.25  89.5419
 37.0336  8376.37  90.5357
 37.0756  8294.27  89.8824
 37.1176  7978.66  88.4216
 37.1596  8147.32  89.3533
 37.2016  8221.26  89.9886
 37.2436  8268.79  89.5638
 37.2856  8209.06  89.4932
 37.3276  8333.97  89.5183
 37.3696  8170.55  89.5236
 37.4116  8252.95  89.8763
 37.4536  8241.81  89.6833
 37.4956  8036.18  88.5986
 37.5376  8088.89  90.4414
 37.5796  8148.09  90.7277
 37.6216  7880.6  87.5104
 37.6636  8018.85  88.1839
 37.7056  8016.16  88.3539
 37.7476  8068.77  88.1803
 37.7896  8021  88.4224
 37.8316  7934.35  88.1112
 37.8736  8112.8  88.62
 37.9156  7821.1  87.0148
 37.9576  8005.11  87.9137
 37.9996  7945.4  87.3036
 38.0416  7772.34  87.152
 38.0836  8071.02  88.7189
 38.1256  7958.67  88.0406
 38.1676  7856.84  87.6245
 38.2096  8007.43  88.087
 38.2516  8012.76  88.3188
 38.2936  8041.06  88.272
 38.3356  8023.42  88.0841
 38.3776  7890.36  87.6331
 38.4196  8088.39  88.5785
 38.4616  7911.66  87.8368
 38.5036  8081.85  88.6249
 38.5456  7825.32  88.0372
 38.5876  7932.59  88.672
 38.6296  7844.52  87.1616
 38.6716  7835.18  86.9021
 38.7136  7791.79  86.606
 38.7556  7705.93  86.6149
 38.7976  7848.04  87.3581
 38.8396  7787.1  87.4667
 38.8816  7780.38  87.2107
 38.9236  7806.91  87.1711
 38.9656  7809.87  87.1028
 39.0076  7891.9  86.9671
 39.0496  7743.03  86.6784
 39.0916  7877.08  87.0619
 39.1336  7881  87.5026
 39.1756  7756.68  86.8816
 39.2176  7823.03  87.7798
 39.2596  7747.2  87.2737
 39.3016  7861.08  87.4877
 39.3436  7779.94  87.4571
 39.3856  7783.9  86.9333
 39.4276  7842.24  87.7488
 39.4696  7860.48  87.4787
 39.5116  7858.22  87.9789
 39.5536  7971.77  89.0393
 39.5956  7926.7  87.8848
 39.6376  8004.98  88.3224
 39.6796  7832.7  87.1086
 39.7216  7949.57  87.8513
 39.7636  7887.52  88.0762
 39.8056  7934.19  88.1147
 39.8476  7842.5  87.8562
 39.8896  7851.54  87.5422
 39.9316  7874.93  87.9214
 39.9736  7959.18  87.9639
 40.0156  7876.71  87.3332
 40.0576  7842.73  87.5008
 40.0996  8033.45  87.7388
 40.1416  7907.09  87.8339
 40.1836  7972.57  88.0871
 40.2256  7956.44  88.0466
 40.2676  7863.43  87.6322
 40.3096  7937.53  87.9673
 40.3516  7997.09  88.4097
 40.3936  8084.75  88.4499
 40.4356  7843.17  87.3145
 40.4776  7969.13  88.4194
 40.5196  7911.86  88.2326
 40.5616  7919.56  87.9157
 40.6036  7897.61  88.0485
 40.6456  8004.69  88.2379
 40.6876  7922.25  87.7749
 40.7296  7998.94  88.3425
 40.7716  7899.43  87.9118
 40.8136  7842.95  87.551
 40.8556  7982.89  88.4616
 40.8976  7954.11  88.2232
 40.9396  7869.4  88.099
 40.9816  8024.07  88.2415
 41.0236  8023.21  88.0121
 41.0656  8013.78  88.508
 41.1076  8024.51  88.3357
 41.1496  7969.27  87.9425
 41.1916  7874.44  87.7406
 41.2336  7887.83  87.7997
 41.2756  7919.98  87.5773
 41.3176  7858.06  87.8564
 41.3596  8034.07  88.5598
 41.4016  7871.37  87.9168
 41.4436  7966.45  88.236
 41.4856  7974.09  88.4392
 41.5276  7943.36  88.2885
 41.5696  7913.31  87.7524
 41.6116  7878.08  87.9523
 41.6536  7905.77  87.9629
 41.6956  7864.75  87.7859
 41.7376  7787.04  87.3832
 41.7796  7882.34  87.7975
 41.8216  7895.29  88.1062
 41.8636  7993.49  88.5893
 41.9056  7790.15  87.2512
 41.9476  7931.8  88.2738
 41.9896  7941.95  87.997
 42.0316  7924.59  87.9792
 42.0736  7828.5  87.5572
 42.1156  7820.42  87.3505
 42.1576  7888.29  87.8285
 42.1996  7904.16  88.0599
 42.2416  7869.17  87.4429
 42.2836  7850.5  87.4525
 42.3256  7730.71  86.8953
 42.3676  7990.36  88.149
 42.4096  7872.82  87.4584
 42.4516  7756.77  86.9
 42.4936  7848.95  87.4855
 42.5356  7795.29  87.3098
 42.5776  7827.52  87.4389
 42.6196  7782.45  87.2415
 42.6616  7740.63  87.1754
 42.7036  7749.39  86.6124
 42.7456  7753.54  86.9909
 42.7876  7764.56  87.1516
 42.8296  7779.11  87.0637
 42.8716  7682.47  86.6813
 42.9136  7720.54  86.6863
 42.9556  7840.88  87.494
 42.9976  7881.45  87.6813
 43.0396  7776  86.8249
 43.0816  7784.18  87.2479
 43.1236  7646.68  86.5343
 43.1656  7700.19  86.6678
 43.2076  7705.42  86.7984
 43.2496  7706.8  86.6228
 43.2916  7683.84  86.8547
 43.3336  7711.37  86.852
 43.3756  7741.46  86.7723
 43.4176  7627.84  86.2171
 43.4596  7582.64  85.8192
 43.5016  7686.44  86.8082
 43.5436  7657.94  86.5436
 43.5856  7644.37  86.4931
 43.6276  7726.13  86.8554
 43.6696  7592.47  86.3532
 43.7116  7761.78  86.809
 43.7536  7621.29  86.5017
 43.7956  7597.42  87.5517
 43.8376  7775.27  87.1025
 43.8796  7636.94  86.4077
 43.9216  7659.79  86.4505
 43.9636  7568.29  86.0378
 44.0056  7587.94  86.3877
 44.0476  7682.35  86.5507
 44.0896  7563.12  86.2202
 44.1316  7665.26  86.3217
 44.1736  7650.98  86.3623
 44.2156  7668.13  86.3127
 44.2576  7444.54  85.3719
 44.2996  7484.99  85.5708
 44.3416  7484.41  85.3268
 44.3836  7423.41  85.3055
 44.4256  7405.29  84.8517
 44.4676  7291.91  84.35
 44.5096  7478.46  85.5673
 44.5516  7522.39  85.7635
 44.5936  7412.52  85.1097
 44.6356  7562.34  85.6997
 44.6776  7506.63  85.7061
 44.7196  7411.28  85.463
 44.7616  7535.37  87.4994
 44.8036  7355.12  84.8877
 44.8456  7376.14  85.2173
 44.8876  7422.01  85.3292
 44.9296  7505.76  85.267
 44.9716  7360.1  84.8614
 45.0136  7337.73  84.666
 45.0556  7493.72  85.5374
 45.0976  7353.43  84.8886
 45.1396  7300.09  84.3455
 45.1816  7334.44  84.48
 45.2236  7348.24  84.4616
 45.2656  7262.32  84.4578
 45.3076  7344.69  84.7196
 45.3496  7259.24  84.5232
 45.3916  7313.68  85.1099
 45.4336  7283.71  84.7731
 45.4756  7276.1  84.5968
 45.5176  7374.1  84.7832
 45.5596  7312.12  84.5469
 45.6016  7253.36  84.6176
 45.6436  7263.87  83.868
 45.6856  7247.51  84.4239
 45.7276  7258.15  85.792
 45.7696  7224.02  85.2652
 45.8116  7297.76  85.1455
 45.8536  7281.84  84.9454
 45.8956  7359.93  84.7521
 45.9376  7374.63  84.3036
 45.9796  7304.54  84.5792
 46.0216  7209.4  84.3672
 46.0636  7476.24  85.0553
 46.1056  7276.84  83.9006
 46.1476  7259.66  84.388
 46.1896  7317.58  84.8733
 46.2316  7205.3  84.094
 46.2736  7084.25  83.739
 46.3156  7435.58  85.3778
 46.3576  7266.93  84.6057
 46.3996  7276.63  84.8209
 46.4416  7238.63  84.1752
 46.4836  7221.61  84.4297
 46.5256  7255.17  84.5681
 46.5676  7109.37  83.8263
 46.6096  7292.71  84.824
 46.6516  7309.64  83.9802
 46.6936  7284.51  84.3265
 46.7356  7281.27  84.4029
 46.7776  7072.75  84.0187
 46.8196  7191.23  84.3211
 46.8616  7024.54  83.2829
 46.9036  7066.95  83.1983
 46.9456  7052.64  82.7616
 46.9876  7178.97  83.5819
 47.0296  7095.85  83.7645
 47.0716  7080.4  83.5071
 47.1136  7073.13  83.1501
 47.1556  7060.28  82.9336
 47.1976  7187.97  83.7553
 47.2396  6989.01  82.992
 47.2816  7019.86  82.879
 47.3236  7004.36  83.1496
 47.3656  7127.18  83.8084
 47.4076  7050.26  83.1565
 47.4496  7046.92  83.2338
 47.4916  7001.51  83.147
 47.5336  7167.48  83.939
 47.5756  7242.01  84.4989
 47.6176  6988.46  82.9079
 47.6596  6970.18  82.5208
 47.7016  7090.77  83.0488
 47.7436  7035.15  83.0475
 47.7856  7066.45  83.2656
 47.8276  7011.39  82.9909
 47.8696  6960.74  82.7638
 47.9116  7084.75  83.2201
 47.9536  7035.25  82.871
 47.9956  6877.71  82.6338
 48.0376  6966.55  82.9447
 48.0796  7017.85  83.3737
 48.1216  7106.24  83.7203
 48.1636  7149.05  83.5464
 48.2056  7088.22  83.4531
 48.2476  6989.67  83.1723
 48.2896  7019.53  83.2538
 48.3316  6951.49  82.7966
 48.3736  6954.12  82.841
 48.4156  6886.72  82.2945
 48.4576  6937.52  82.8827
 48.4996  7042.7  82.9723
 48.5416  7003.1  83.0583
 48.5836  6901.76  82.1361
 48.6256  7011.1  82.9944
 48.6676  7038.2  83.6555
 48.7096  6909.97  82.1737
 48.7516  7022.79  82.9908
 48.7936  6806.08  81.7624
 48.8356  6874.65  82.2226
 48.8776  6911.94  83.0046
 48.9196  7016.79  82.9982
 48.9616  6854.15  82.4178
 49.0036  6921.59  83.1603
 49.0456  6818.45  82.5214
 49.0876  6887.07  82.4792
 49.1296  6785.76  82.0332
 49.1716  6752.76  81.7062
 49.2136  6902.45  82.506
 49.2556  6885.69  82.463
 49.2976  6842.49  82.2751
 49.3396  6778.51  81.945
 49.3816  6903.96  82.1421
 49.4236  6791.75  81.8758
 49.4656  6744.71  81.6141
 49.5076  6858.4  82.0497
 49.5496  6788.36  81.6921
 49.5916  6812.05  81.757
 49.6336  6757.67  81.6255
 49.6756  6870.68  82.5318
 49.7176  6874.69  82.5037
 49.7596  6778.03  81.6858
 49.8016  6751.8  81.4562
 49.8436  6738.68  81.6638
 49.8856  6742.21  81.6924
 49.9276  6740.52  81.7815
 49.9696  6789.88  82.0621
 50.0116  6771.17  82.0797
 50.0536  6783.1  82.0992
 50.0956  6805.3  82.2978
 50.1376  6825.38  82.129
 50.1796  6638.93  81.258
 50.2216  6741.31  81.8805
 50.2636  6723.62  81.399
 50.3056  6706.32  81.4653
 50.3476  6719.94  81.5687
 50.3896  6704.47  81.4461
 50.4316  6784.42  81.7694
 50.4736  6610  80.9249
 50.5156  6736.5  81.6866
 50.5576  6786.12  81.7424
 50.5996  6704.18  81.5288
 50.6416  6648.49  81.1169
 50.6836  6727.1  81.6577
 50.7256  6791.18  81.9738
 50.7676  6753.01  82.0554
 50.8096  6699.64  81.2769
 50.8516  6668.47  81.4869
 50.8936  6611.21  80.9251
 50.9356  6707.11  81.6125
 50.9776  6625.06  81.2669
 51.0196  6522.59  80.7625
 51.0616  6468.11  79.7652
 51.1036  6630.94  81.1142
 51.1456  6652.37  81.1616
 51.1876  6613.65  80.2758
 51.2296  6513.49  80.2856
 51.2716  6605.56  80.5594
 51.3136  6587.09  80.8942
 51.3556  6527.57  80.1631
 51.3976  6556.72  80.4924
 51.4396  6360  79.5675
 51.4816  6518.64  80.4135
 51.5236  6584.89  80.9084
 51.5656  6461.98  79.7594
 51.6076  6544.94  80.3501
 51.6496  6523.34  80.4046
 51.6916  6549.65  80.9186
 51.7336  6518.74  80.8147
 51.7756  6517.9  80.5171
 51.8176  6428.47  80.0662
 51.8596  6449.22  80.2093
 51.9016  6665.64  81.1535
 51.9436  6461.35  81.3286
 51.9856  6441.24  81.6355
 52.0276  6505.2  80.5649
 52.0696  6563.87  80.9927
 52.1116  6454.19  80.4225
 52.1536  6514.44  80.6775
 52.1956  6562.82  80.451
 52.2376  6746.21  81.7457
 52.2796  6669.35  81.0877
 52.3216  6336.01  79.7067
 52.3636  6468.83  80.1292
 52.4056  6483.86  80.0825
 52.4476  6422.79  80.0642
 52.4896  6505.13  80.6267
 52.5316  6431.98  80.217
 52.5736  6433.47  79.9565
 52.6156  6432.43  80.3213
 52.6576  6488.44  80.1155
 52.6996  6297.11  79.8806
 52.7416  6329.58  79.9437
 52.7836  6369.98  80.084
 52.8256  6451.59  79.8245
 52.8676  6220.81  78.9365
 52.9096  6430.88  80.3535
 52.9516  6383.58  80.4215
 52.9936  6336.17  80.5113
 53.0356  6321.3  79.4358
 53.0776  6278.52  79.4265
 53.1196  6263.85  79.4553
 53.1616  6321.04  79.8636
 53.2036  6254.54  79.3987
 53.2456  6304.5  79.8062
 53.2876  6347.81  79.7944
 53.3296  6187.89  79.1046
 53.3716  6215.39  79.0319
 53.4136  6275.85  79.5616
 53.4556  6216.44  79.2143
 53.4976  6089.71  78.2539
 53.5396  6303.88  80.0079
 53.5816  6217.27  79.0966
 53.6236  6126.37  78.8434
 53.6656  6337.93  79.8323
 53.7076  6253.8  79.2599
 53.7496  6183.77  78.929
 53.7916  6310.26  79.8603
 53.8336  6232.29  79.2671
 53.8756  6150.59  79.2854
 53.9176  6165.58  78.7425
 53.9596  6227.81  79.8928
 54.0016  6169  78.8565
 54.0436  6221.54  79.3995
 54.0856  6351  79.6554
 54.1276  6281.29  79.4061
 54.1696  6252.78  79.4018
 54.2116  6211.29  78.9006
 54.2536  6195  78.6141
 54.2956  6332.8  79.527
 54.3376  6160.56  78.9116
 54.3796  6299.94  79.707
 54.4216  6308.83  79.7926
 54.4636  6282.35  79.6015
 54.5056  6283.32  79.4237
 54.5476  6233.4  79.4392
 54.5896  6253.5  79.4046
 54.6316  6214  79.0096
 54.6736  6226.46  79.1614
 54.7156  6225.83  79.1852
 54.7576  6112.8  78.4556
 54.7996  6224.32  79.3027
 54.8416  6212.53  79.2791
 54.8836  6048.69  78.3362
 54.9256  6229.32  79.2504
 54.9676  6315.65  79.6498
 55.0096  6250.78  79.3146
 55.0516  6223.11  79.3622
 55.0936  6155.85  78.5689
 55.1356  6201.16  78.9017
 55.1776  6101.24  78.5293
 55.2196  6212.73  79.0269
 55.2616  6203.03  79.1701
 55.3036  6049.33  78.3442
 55.3456  6161.53  79.2104
 55.3876  6170.95  79.0225
 55.4296  6241.48  79.4523
 55.4716  6171.28  79.028
 55.5136  6153.54  78.6739
 55.5556  6147.06  78.7107
 55.5976  6111.45  78.5422
 55.6396  6191.95  79.0046
 55.6816  6116.55  78.3997
 55.7236  6136.28  78.5648
 55.7656  6039.07  77.7041
 55.8076  6178.51  78.5762
 55.8496  6189.01  78.964
 55.8916  6112.87  78.6811
 55.9336  6059  78.15
 55.9756  6109.93  78.3719
 56.0176  6118.34  78.5755
 56.0596  6117.87  78.5588
 56.1016  6100.33  78.4545
 56.1436  6023.83  78.2136
 56.1856  6176.98  78.95
 56.2276  6097.69  78.4911
 56.2696  6062.87  78.241
 56.3116  6077.61  78.7388
 56.3536  6115.45  78.6464
 56.3956  5990.55  77.8267
 56.4376  6138.41  78.8107
 56.4796  6148.47  78.6814
 56.5216  6136.86  78.9871
 56.5636  6207.9  79.0252
 56.6056  6054.02  78.2706
 56.6476  6047.84  77.8659
 56.6896  6140.91  78.9034
 56.7316  6174.6  79.0256
 56.7736  6093.25  78.5083
 56.8156  6118.98  78.6684
 56.8576  6066.82  78.2727
 56.8996  6092.31  78.3786
 56.9416  6075.25  78.5662
 56.9836  6037.73  77.8397
 57.0256  6081.99  78.447
 57.0676  6111.1  78.7557
 57.1096  6149.31  78.7911
 57.1516  6078.3  78.3944
 57.1936  6090.28  78.2251
 57.2356  6127.5  78.78
 57.2776  6052.46  78.2476
 57.3196  6121.23  79.0687
 57.3616  6084.77  78.3284
 57.4036  6119.67  78.6135
 57.4456  5984.84  77.7101
 57.4876  6073.7  78.141
 57.5296  6066.9  78.4333
 57.5716  5974.47  77.8245
 57.6136  6051.16  78.1481
 57.6556  6104.65  78.6249
 57.6976  6167.76  78.8528
 57.7396  5958.28  77.8755
 57.7816  5984.68  78.4025
 57.8236  6054.08  78.6525
 57.8656  6176.4  79.0954
 57.9076  6075.51  78.4788
 57.9496  6035.75  78.5637
 57.9916  6068.13  78.2925
 58.0336  6042.88  78.401
 58.0756  6022.54  77.9145
 58.1176  6092.25  78.3552
 58.1596  5946.78  77.9823
 58.2016  6135.64  78.4228
 58.2436  6082.97  78.5014
 58.2856  6007.37  77.9289
 58.3276  6114.26  78.9912
 58.3696  6046.56  78.3065
 58.4116  6119.43  78.6357
 58.4536  6118.81  78.5253
 58.4956  5958.08  77.6643
 58.5376  6168.67  78.5944
 58.5796  6068.59  78.3742
 58.6216  5999.83  77.7461
 58.6636  6106.73  78.6515
 58.7056  6095.41  78.4351
 58.7476  5930.22  77.8048
 58.7896  6012.86  77.9907
 58.8316  6036.91  78.1401
 58.8736  6108.31  78.6061
 58.9156  5981.47  77.8377
 58.9576  6107.5  78.9625
 58.9996  6221.92  78.9328
 59.0416  6347.46  80.1061
 59.0836  6142.49  78.7307
 59.1256  5975.71  78.3493
 59.1676  6036.93  79.048
 59.2096  6139.03  79.0231
 59.2516  6216.11  79.0927
 59.2936  6090.25  78.6173
 59.3356  6108.32  78.611
 59.3776  6171.53  79.1874
 59.4196  6080  78.5343
 59.4616  5981.29  77.7543
 59.5036  5951.22  77.5928
 59.5456  6209.26  78.9472
 59.5876  6182.86  78.9725
 59.6296  6022.53  78.011
 59.6716  6129.18  78.7571
 59.7136  6154.73  78.9092
 59.7556  6243.58  79.6155
 59.7976  6036.12  78.0238
 59.8396  6120.09  78.4582
 59.8816  6150.25  79.1998
 59.9236  6064.79  78.2924
 59.9656  6017.12  78.2445
 60.0076  6117.54  78.2477
 60.0496  6168.42  79.0817
 60.0916  6189.88  78.63
 60.1336  6068.66  78.9662
 60.1756  5977.11  79.5464
 60.1996  0.0000000E+00  0.0000000E+00