File: docs/examples/opeando_xrd/IS17_D/Data/IS17_D/17_Da_f00008.xye
# /beamlines/bl04/projects/cycle2025-II/20250340211-lsimonelli/DATA/IS17_D/17_Da_f00008.xye : mythproc.py merge -s 0.006 -l 0.5 -f /beamlines/bl04/inhouse/ff/FlatField/ff_20Nov2024rod8mm60s_17keV.raw -b True -c true -o xye /beamlines/bl04/projects/cycle2025-II/20250340211-lsimonelli/DATA/IS17_D/17_Da_00008.dat
# IsMon = [6760389, 6764579, 6763314]  IsPos = [-1.5000, -2.4884, -3.4988]
# Wave = 0.4962  CalPath /beamlines/bl04/projects/cycle2025-II/20250340211-lsimonelli/DATA/Align/Si_Pos1_25keV_f00001.cal
# Date = 2025-09-23_19:47:02 Dt = 4.8000  Bin = 0.0060  <imon> = 6762761 +/- 1755 (Min/Max) 6760389 / 6764579
# icurr 250.8176  mocoIn 1.7109E-05  mocoOut 0.8030  i15 7.07316e+06  imon 6.76276e+06  i7 5.0000  iEMpd_timer 4.8000  iEMpd_1 3.5598E-08  iEMpd_2 7.8280E-08  iEMpd_3 1.6479E-08  iEMpd_4 4.8121E-08  iEMhp_timer 4.8000  iEMhp_1 4.9000E-06  iEMhp_2 -2.4740E-08  iEMhp_3 -2.4632E-08  iEMhp_4 -2.0770E-08
#      9776
 1.5856  37626.9  199.218
 1.6276  44194  212.199
 1.6696  51223.5  227.647
 1.7116  60110.8  247.089
 1.7536  69975  265.457
 1.7956  74378.8  274.366
 1.8376  70531.1  267.599
 1.8796  58938.8  242.831
 1.9216  46954.1  217.596
 1.9636  39631.5  199.594
 2.0056  34907.4  186.124
 2.0476  32550.2  181.701
 2.0896  31082.5  176.516
 2.1316  30272.8  173.364
 2.1736  28765.3  170.333
 2.2156  29138.9  170.06
 2.2576  28251.7  168.051
 2.2996  27173.6  165.418
 2.3416  27360.6  164.66
 2.3836  26898.8  163.367
 2.4256  26437.8  162.489
 2.4676  26316.9  161.887
 2.5096  27304.9  164.952
 2.5516  38228.2  199.612
 2.5936  170279  412.889
 2.6356  32578.7  181.364
 2.6776  25972.1  160.84
 2.7196  24542.8  156.848
 2.7616  24142.3  155.35
 2.8036  23496  153.421
 2.8456  23544.4  154.163
 2.8876  22811.2  151.624
 2.9296  22495.1  150.696
 2.9716  22250.3  149.391
 3.0136  22266.3  149.509
 3.0556  22360.9  150.207
 3.0976  22046  148.136
 3.1396  21824.3  148.063
 3.1816  21565.6  147.124
 3.2236  21660.5  147.434
 3.2656  21634.6  146.43
 3.3076  21470.7  147.267
 3.3496  21626.7  146.783
 3.3916  21929.4  147.647
 3.4336  22543.9  150.255
 3.4756  22940.4  151.505
 3.5176  23697.8  153.784
 3.5596  23373.9  155.572
 3.6016  23894.1  154.471
 3.6436  22994.5  152.583
 3.6856  22550  149.48
 3.7276  21571.9  147.236
 3.7696  21409.7  146.68
 3.8116  20937.2  145.134
 3.8536  21174.9  145.895
 3.8956  21231.7  145.919
 3.9376  22155.2  149.307
 3.9796  21020.4  144.963
 4.0216  21088.6  144.268
 4.0636  21050.1  145.558
 4.1056  20906.6  144.711
 4.1476  21237.3  146.164
 4.1896  21427.6  146.679
 4.2316  21529.3  146.86
 4.2736  22039.5  148.383
 4.3156  22323.4  149.553
 4.3576  23014.3  151.782
 4.3996  23296.8  152.956
 4.4416  24186.9  155.451
 4.4836  25575.2  159.996
 4.5256  25201.2  159.427
 4.5676  24964.8  158.921
 4.6096  25444  159.484
 4.6516  26089.2  160.854
 4.6936  26121.6  161.749
 4.7356  27319.8  165.245
 4.7776  26146.6  161.489
 4.8196  25495.8  160.104
 4.8616  25327.6  159.063
 4.9036  25132.8  158.217
 4.9456  25262.8  159.25
 4.9876  24557.8  156.915
 5.0296  24354.4  156.081
 5.0716  24358.1  156.853
 5.1136  24465.6  156.915
 5.1556  25234.3  158.835
 5.1976  35615  188.692
 5.2396  26009.7  160.957
 5.2816  25338.9  159.318
 5.3236  25346.7  159.055
 5.3656  24848.4  158.374
 5.4076  24467.4  157.299
 5.4496  24613.6  157.269
 5.4916  24711.6  157.351
 5.5336  24648.9  157.153
 5.5756  24470.2  156.615
 5.6176  24720.6  156.873
 5.6596  24782.1  157.857
 5.7016  24972.3  157.901
 5.7436  25006.3  158.265
 5.7856  25119.9  158.69
 5.8276  25327.5  159.07
 5.8696  25559.3  159.865
 5.9116  25232.2  159.515
 5.9536  25622.7  160.512
 5.9956  25940.2  160.888
 6.0376  25968.8  161.589
 6.0796  26293.7  162.432
 6.1216  26201.1  162.34
 6.1636  26508.9  162.388
 6.2056  26676.6  163.542
 6.2476  26875.7  163.864
 6.2896  26887.2  163.761
 6.3316  26869.1  163.876
 6.3736  27013.2  164.211
 6.4156  27180.9  164.673
 6.4576  27485.4  165.154
 6.4996  27528.5  165.745
 6.5416  27540.7  165.92
 6.5836  28033.4  167.621
 6.6256  27796.1  166.486
 6.6676  28370.1  167.777
 6.7096  27938  167.324
 6.7516  28376.4  168.292
 6.7936  29888.8  172.149
 6.8356  30686.5  174.508
 6.8776  29772  172.675
 6.9196  29110.9  171.141
 6.9616  29633.5  172.121
 7.0036  30002.5  172.857
 7.0456  30081.1  172.397
 7.0876  29958.1  173.616
 7.1296  29957.3  172.848
 7.1716  29836.8  172.054
 7.2136  29600.2  171.154
 7.2556  29769.7  171.801
 7.2976  29793.4  172.35
 7.3396  29868.7  172.769
 7.3816  29909.9  173.104
 7.4236  30216.7  173.299
 7.4656  30430.6  173.408
 7.5076  30668.7  174.218
 7.5496  30395.7  173.963
 7.5916  30386.5  173.965
 7.6336  31369.6  176.658
 7.6756  30997.1  175.456
 7.7176  31310.7  176.646
 7.7596  31595.2  178.669
 7.8016  38239.3  198.915
 7.8436  32667.8  180.55
 7.8856  32832.2  180.622
 7.9276  33410.2  182.597
 7.9696  33143.3  182.167
 8.0116  34327.6  183.946
 8.0536  34919.2  185.787
 8.0956  36867.3  192.086
 8.1376  35190.9  187.15
 8.1796  35197.2  187.703
 8.2216  36323.3  189.436
 8.2636  37335  192.3
 8.3056  36807.8  191.711
 8.3476  38713.6  195.925
 8.3896  37832.3  193.764
 8.4316  37036.3  191.877
 8.4736  36658  190.37
 8.5156  36378.3  189.91
 8.5576  36021.4  189.936
 8.5996  36108.4  189.057
 8.6416  35871.7  189.668
 8.6836  36090.3  190.087
 8.7256  36999.2  191.906
 8.7676  39379.8  200.999
 8.8096  39435.6  198.373
 8.8516  36288.3  189.961
 8.8936  38360.4  195.142
 8.9356  35879.4  189.073
 8.9776  35798.3  188.951
 9.0196  35346.9  187.434
 9.0616  36316.5  189.447
 9.1036  37562.1  193.89
 9.1456  35445.7  187.708
 9.1876  34631.2  185.495
 9.2296  34702.1  185.091
 9.2716  33784.2  182.695
 9.3136  34004.5  183.271
 9.3556  34215.3  183.82
 9.3976  32578.7  179.891
 9.4396  33025.1  181.009
 9.4816  32670.6  179.907
 9.5236  32445.4  179.193
 9.5656  32330.8  179.188
 9.6076  32156.3  179.215
 9.6496  32300.2  179.55
 9.6916  32167.6  179.148
 9.7336  32173.9  178.955
 9.7756  32067.6  179.736
 9.8176  31563.7  177.966
 9.8596  31383.9  175.948
 9.9016  30726.3  174.087
 9.9436  31033.4  174.699
 9.9856  30950.1  174.852
 10.0276  30142.8  173.636
 10.0696  30131.5  172.673
 10.1116  29758  171.854
 10.1536  29114  169.673
 10.1956  28812.8  168.872
 10.2376  28327.3  166.969
 10.2796  28395.6  167.292
 10.3216  28562.4  167.897
 10.3636  28307.8  167.323
 10.4056  32951.1  180.93
 10.4476  33452.8  181.918
 10.4896  38264.3  193.942
 10.5316  33720.1  182.476
 10.5736  28920.1  169.711
 10.6156  28346.4  167.799
 10.6576  33516.4  180.911
 10.6996  28171.4  166.522
 10.7416  27102.5  163.566
 10.7836  28538  168.528
 10.8256  26432.4  162.617
 10.8676  26569  162.573
 10.9096  26357.4  161.976
 10.9516  26020.7  159.889
 10.9936  27239.2  163.786
 11.0356  26816.8  163.146
 11.0776  28666.3  167.968
 11.1196  28529  168.335
 11.1616  26241  161.132
 11.2036  27805.9  165.723
 11.2456  29197.4  170.556
 11.2876  25568.6  159.35
 11.3296  25555.8  159.208
 11.3716  26146.8  160.762
 11.4136  25410  159.328
 11.4556  26036.4  160.949
 11.4976  27560.8  164.548
 11.5396  27296.7  163.918
 11.5816  25179  157.883
 11.6236  24674.4  156.504
 11.6656  24425.2  154.905
 11.7076  23952.6  154.204
 11.7496  24599.7  160.133
 11.7916  24963.5  156.693
 11.8336  24088.9  154.79
 11.8756  24353  155.185
 11.9176  23848  153.221
 11.9596  23381.3  151.901
 12.0016  23451.4  152.904
 12.0436  23308.2  151.872
 12.0856  22988.7  151.341
 12.1276  23091.1  151.596
 12.1696  23222.3  151.18
 12.2116  24004.8  153.701
 12.2536  25732.7  159.967
 12.2956  23988.6  153.81
 12.3376  23675  153.018
 12.3796  23407.4  152.602
 12.4216  23579.8  152.388
 12.4636  24325  155.691
 12.5056  23132.7  151.114
 12.5476  22850.9  149.739
 12.5896  22830.5  150.28
 12.6316  22672.5  149.925
 12.6736  22736.8  150.607
 12.7156  22965  151.225
 12.7576  23023.5  151.654
 12.7996  23128  150.671
 12.8416  23557.6  153.104
 12.8836  24237.1  155.121
 12.9256  23609.9  152.135
 12.9676  23627.8  152.607
 13.0096  23211.9  152.33
 13.0516  23490.2  152.298
 13.0936  23468.5  152.342
 13.1356  23589.9  152.022
 13.1776  23439.8  152.502
 13.2196  23212.7  151.433
 13.2616  23236.6  151.804
 13.3036  23244.7  151.974
 13.3456  23339.5  152.462
 13.3876  23431.6  152.081
 13.4296  23437.4  152.237
 13.4716  23807.5  153.05
 13.5136  23547.1  152.36
 13.5556  23668.3  153.346
 13.5976  23367.4  152.514
 13.6396  23918.1  153.682
 13.6816  23264.1  151.934
 13.7236  24405.3  155.358
 13.7656  23805  153.993
 13.8076  24339.4  154.494
 13.8496  23655.5  153.082
 13.8916  23455.8  153.238
 13.9336  23130.7  151.416
 13.9756  23094.3  150.66
 14.0176  23146.6  151.494
 14.0596  24118.2  154.61
 14.1016  22875.7  150.97
 14.1436  22414.3  148.597
 14.1856  22510.3  149.201
 14.2276  22397.1  149.299
 14.2696  22904  150.816
 14.3116  22084.6  147.995
 14.3536  21605.9  146.556
 14.3956  21479  145.864
 14.4376  21660.1  146.269
 14.4796  21554  145.895
 14.5216  21079  145.062
 14.5636  21522.4  146.143
 14.6056  21185.1  144.586
 14.6476  20902.7  142.871
 14.6896  20546.1  142.163
 14.7316  20181.8  141.899
 14.7736  20119.3  140.851
 14.8156  20155.7  141.011
 14.8576  19791.2  139.59
 14.8996  19926.3  141.244
 14.9416  19406.8  139.391
 14.9836  19609  140.066
 15.0256  19212.5  137.603
 15.0676  19210.1  137.902
 15.1096  19122.3  137.329
 15.1516  18670.7  136.238
 15.1936  18708.8  135.821
 15.2356  18595.3  135.681
 15.2776  18692.8  135.63
 15.3196  18432.7  135.665
 15.3616  18156.9  134.41
 15.4036  18127.6  134.155
 15.4456  18534.8  135.316
 15.4876  17998.1  133.027
 15.5296  17738.9  132.342
 15.5716  17597.8  131.429
 15.6136  17627.1  131.848
 15.6556  19676  138.527
 15.6976  18011.1  132.829
 15.7396  17760.2  132.287
 15.7816  17665.9  131.44
 15.8236  17251.7  130.586
 15.8656  17376.1  130.847
 15.9076  17102  129.643
 15.9496  17376.8  133.459
 15.9916  16521.8  130.559
 16.0336  16503.9  127.472
 16.0756  16568  128.014
 16.1176  16567.6  127.927
 16.1596  16079.8  127.329
 16.2016  16187.3  126.532
 16.2436  15971.1  126.054
 16.2856  16219.3  126.591
 16.3276  15587.7  124.503
 16.3696  15903.7  125.58
 16.4116  15627.9  124.936
 16.4536  15976.3  126.112
 16.4956  16398.6  127.496
 16.5376  16104.4  126.538
 16.5796  15707.4  124.34
 16.6216  15683.1  124.545
 16.6636  15909.2  125.582
 16.7056  15758.5  124.865
 16.7476  15672.9  124.066
 16.7896  15588.6  124.467
 16.8316  15746.6  125.057
 16.8736  15871.8  125.812
 16.9156  15960.8  126.494
 16.9576  15263.4  124.467
 16.9996  15611.5  126.36
 17.0416  15549.7  124.493
 17.0836  15298.9  123.252
 17.1256  15178.8  122.782
 17.1676  15737.7  125.021
 17.2096  15590.5  124.307
 17.2516  15155.5  122.646
 17.2936  14931.1  121.751
 17.3356  14370.2  119.454
 17.3776  14447.6  119.954
 17.4196  14733.2  120.833
 17.4616  14919.3  121.518
 17.5036  15312.4  123.46
 17.5456  14348.9  120.148
 17.5876  14413  119.487
 17.6296  14555.3  119.89
 17.6716  14674.1  120.949
 17.7136  15044.4  122.614
 17.7556  14586.3  121.015
 17.7976  14732.4  121.366
 17.8396  14422.2  119.587
 17.8816  14159.6  119.022
 17.9236  13806.5  117.348
 17.9656  14517.2  120.856
 18.0076  14961.6  122.273
 18.0496  16348.4  126.904
 18.0916  21732.1  146.971
 18.1336  18746.7  136.61
 18.1756  16091.7  126.082
 18.2176  16199.3  126.736
 18.2596  14556.1  119.871
 18.3016  15191.5  122.723
 18.3436  15907.6  125.585
 18.3856  14595.6  120.435
 18.4276  14283.7  118.814
 18.4696  14485.1  119.744
 18.5116  14577.8  120.416
 18.5536  14255.4  119.434
 18.5956  14139.8  118.502
 18.6376  14346.3  119.765
 18.6796  13800.6  116.812
 18.7216  14175.4  118.862
 18.7636  13840.5  117.447
 18.8056  13568.3  116.226
 18.8476  13432.6  116.252
 18.8896  13343.9  115.222
 18.9316  13772.7  117.044
 18.9736  13499  115.581
 19.0156  14021.4  118.197
 19.0576  14000.9  116.985
 19.0996  13692.1  116.382
 19.1416  13627.7  116.497
 19.1836  13459.8  115.388
 19.2256  13134.6  114.196
 19.2676  13280.4  114.913
 19.3096  13436.5  115.824
 19.3516  13306.3  115.054
 19.3936  13381.7  115.448
 19.4356  13474  115.73
 19.4776  13448.8  115.709
 19.5196  13430.5  115.483
 19.5616  13473.8  115.927
 19.6036  13431.1  115.247
 19.6456  13508.8  115.697
 19.6876  14006.2  117.452
 19.7296  13518.3  115.841
 19.7716  13459.4  115.742
 19.8136  13601.4  116.555
 19.8556  13946.1  117.51
 19.8976  14186.6  118.585
 19.9396  13898.7  116.955
 19.9816  14193.3  118.421
 20.0236  14103.2  118.269
 20.0656  13543.2  115.89
 20.1076  13055.9  114.238
 20.1496  12986.2  113.931
 20.1916  13236.4  114.514
 20.2336  13209.8  114.377
 20.2756  12751.7  112.785
 20.3176  12928.2  113.316
 20.3596  12907.8  113.202
 20.4016  12910.3  113.022
 20.4436  12947.3  113.725
 20.4856  12575  111.887
 20.5276  12721  112.972
 20.5696  12611.3  112.067
 20.6116  12911.5  113.556
 20.6536  12628.7  111.837
 20.6956  12742.9  112.461
 20.7376  12560.2  111.873
 20.7796  12473.9  111.182
 20.8216  12818.2  112.42
 20.8636  13005.3  113.604
 20.9056  14272.4  118.961
 20.9476  13167.3  114.103
 20.9896  13844.5  116.862
 21.0316  13110.9  113.616
 21.0736  13258.6  114.779
 21.1156  13437.8  115.711
 21.1576  12826.9  113.105
 21.1996  12708.3  112.559
 21.2416  12461.2  111.296
 21.2836  12703.9  112.339
 21.3256  12611.8  112.013
 21.3676  12650.1  111.735
 21.4096  12948.7  113.409
 21.4516  12468.2  111.112
 21.4936  12333.5  110.758
 21.5356  12566.6  111.745
 21.5776  12697.7  112.167
 21.6196  12756  112.46
 21.6616  12582  111.773
 21.7036  12464.9  111.039
 21.7456  12268.5  110.233
 21.7876  12114.2  109.289
 21.8296  12056.7  108.894
 21.8716  12101.5  109.323
 21.9136  12407.9  110.894
 21.9556  12608  111.459
 21.9976  12360.8  110.377
 22.0396  12348.5  110.572
 22.0816  12307  110.92
 22.1236  12635.7  111.845
 22.1656  12465.4  111.214
 22.2076  12295.5  109.931
 22.2496  12311.4  110.025
 22.2916  12542.7  110.935
 22.3336  12395.1  110.998
 22.3756  12244.9  110.053
 22.4176  12165  109.552
 22.4596  11895.9  108.908
 22.5016  12274.7  110.119
 22.5436  12425.1  110.682
 22.5856  12285  110.298
 22.6276  12063.1  109.427
 22.6696  12116.4  110.021
 22.7116  12035.5  109.168
 22.7536  12137.1  109.61
 22.7956  12191.8  109.2
 22.8376  12020.7  108.938
 22.8796  12265  109.841
 22.9216  12103.1  109.656
 22.9636  12163.8  109.095
 23.0056  11976.8  108.385
 23.0476  12270.1  110.269
 23.0896  12298.2  109.778
 23.1316  12514.1  111.169
 23.1736  12072.1  112.087
 23.2156  12284  110.475
 23.2576  12115.9  109.859
 23.2996  12174.2  109.904
 23.3416  12031.2  109.765
 23.3836  12060.3  109.145
 23.4256  12086.5  109.384
 23.4676  12298.1  110.033
 23.5096  12211.6  110.313
 23.5516  11975.3  108.54
 23.5936  12185.6  110.375
 23.6356  12350.9  110.794
 23.6776  12157.9  110.134
 23.7196  12011.4  109.253
 23.7616  12172.4  109.696
 23.8036  12089.4  109.366
 23.8456  12013.6  108.601
 23.8876  11688.5  107.467
 23.9296  11642.4  107.726
 23.9716  11856  107.924
 24.0136  12059.7  109.737
 24.0556  11799.7  108.278
 24.0976  11723.5  107.741
 24.1396  11625.7  109.876
 24.1816  11677.7  108.583
 24.2236  11672.5  108.17
 24.2656  11801.4  108.247
 24.3076  11726.3  108.137
 24.3496  11962.6  109.119
 24.3916  11855.4  108.684
 24.4336  11580.6  107.62
 24.4756  11692.7  108.011
 24.5176  11178.6  105.268
 24.5596  11271.1  106.024
 24.6016  11234.2  105.934
 24.6436  11350.3  105.982
 24.6856  11470.2  106.302
 24.7276  11536.3  106.918
 24.7696  11321.2  106.03
 24.8116  11257.3  105.907
 24.8536  11290.3  106.054
 24.8956  11241.6  105.574
 24.9376  11317  106.108
 24.9796  11140.4  105.387
 25.0216  11011.7  104.885
 25.0636  11189  105.382
 25.1056  10932  104.86
 25.1476  11112.7  107.388
 25.1896  11008.1  105.359
 25.2316  11163.5  105.378
 25.2736  11087.5  104.672
 25.3156  10835.1  103.554
 25.3576  10978.4  104.652
 25.3996  10786.1  103.719
 25.4416  10750.7  103.523
 25.4836  10764.6  104.104
 25.5256  10825  103.77
 25.5676  10906.8  103.889
 25.6096  10683.7  103.393
 25.6516  10897.8  103.923
 25.6936  10659.5  103.096
 25.7356  10679.2  103.321
 25.7776  10928.7  104.203
 25.8196  10639.4  102.97
 25.8616  10728.9  103.329
 25.9036  10999  104.09
 25.9456  10672.9  103.117
 25.9876  10691.2  103.14
 26.0296  10807.3  103.342
 26.0716  10646.4  102.993
 26.1136  10963.9  104.453
 26.1556  10999  104.007
 26.1976  10540.9  102.723
 26.2396  10731  102.81
 26.2816  10586.3  102.714
 26.3236  10735.6  103.59
 26.3656  10487.1  102.122
 26.4076  10580.7  102.78
 26.4496  10972.5  104.171
 26.4916  10771.5  103.199
 26.5336  10595.5  102.679
 26.5756  10916.1  104.079
 26.6176  10680  102.997
 26.6596  10364.5  101.769
 26.7016  10331.1  101.364
 26.7436  10141.1  100.554
 26.7856  10157.6  100.622
 26.8276  10228.6  100.923
 26.8696  10216.6  100.746
 26.9116  10420.6  101.692
 26.9536  10224.8  100.777
 26.9956  10080.9  100.095
 27.0376  10089  100.344
 27.0796  10343.1  101.339
 27.1216  10173.3  100.578
 27.1636  10162.9  100.691
 27.2056  10215.8  100.831
 27.2476  10077  100.149
 27.2896  10046.8  100.104
 27.3316  9944.05  99.314
 27.3736  10033  100.016
 27.4156  9904.19  99.2213
 27.4576  10039.4  100.123
 27.4996  10088.2  99.9683
 27.5416  10114.2  100.409
 27.5836  10024.5  99.7819
 27.6256  10244.8  101.039
 27.6676  10234.3  101.001
 27.7096  10142.7  100.418
 27.7516  10634.7  102.976
 27.7936  10553.9  102.764
 27.8356  10488.7  102.06
 27.8776  10244.6  100.907
 27.9196  10136.2  100.223
 27.9616  10302.7  101.227
 28.0036  10195.4  100.685
 28.0456  9910.29  99.3877
 28.0876  9845.68  99.1571
 28.1296  9980.03  99.6713
 28.1716  9819.37  98.8701
 28.2136  9838.39  98.9404
 28.2556  9802.55  98.874
 28.2976  9930.29  99.4989
 28.3396  9873.37  98.9739
 28.3816  9832.78  98.797
 28.4236  10011.2  99.8381
 28.4656  9578.39  97.6965
 28.5076  9583.53  97.3645
 28.5496  9560.1  97.5022
 28.5916  9622.23  97.6309
 28.6336  9654.18  98.1331
 28.6756  9647.35  97.3087
 28.7176  9632.61  97.7742
 28.7596  9517.03  97.0865
 28.8016  9559.41  97.3275
 28.8436  9549.89  97.5249
 28.8856  9620.97  97.7383
 28.9276  9495.4  97.3396
 28.9696  9448.88  96.7653
 29.0116  9355.15  96.4683
 29.0536  9394.56  96.8659
 29.0956  9477.02  97.0122
 29.1376  9566.43  97.4215
 29.1796  9309.92  96.155
 29.2216  9412.27  96.532
 29.2636  9423.06  96.6608
 29.3056  9300.48  95.8273
 29.3476  9432.69  97.0197
 29.3896  9549.05  97.7128
 29.4316  9511.74  96.8609
 29.4736  9327.34  95.984
 29.5156  9552.25  97.0457
 29.5576  9566.36  97.86
 29.5996  9538.58  96.9816
 29.6416  9295.88  95.8547
 29.6836  9454.74  96.6007
 29.7256  9273.35  96.2234
 29.7676  9444.47  96.7733
 29.8096  9335.4  96.1562
 29.8516  9118.78  95.3613
 29.8936  9320.21  96.499
 29.9356  9185.21  95.5571
 29.9776  9361.84  96.6231
 30.0196  9533.58  96.8932
 30.0616  9399.58  96.581
 30.1036  9293  95.8549
 30.1456  9139.23  95.2944
 30.1876  9069.65  94.9075
 30.2296  9193.32  95.504
 30.2716  9236.37  95.3688
 30.3136  9205.52  96.0489
 30.3556  9343.85  96.7899
 30.3976  9244.34  97.778
 30.4396  9286.14  95.3733
 30.4816  9318.32  95.1392
 30.5236  9142.89  94.2636
 30.5656  9162.43  94.9999
 30.6076  9253.73  95.2448
 30.6496  9138.91  94.6946
 30.6916  9106  94.6166
 30.7336  9079.63  94.631
 30.7756  9180.14  95.2386
 30.8176  9020.03  94.3272
 30.8596  9141.61  94.7329
 30.9016  8979.02  93.7636
 30.9436  9221.43  95.2414
 30.9856  9167.18  95.0699
 31.0276  8993.7  93.781
 31.0696  9058.95  94.6834
 31.1116  9101.96  94.8863
 31.1536  9153.46  95.0362
 31.1956  9231.36  95.5291
 31.2376  8990.01  94.2816
 31.2796  8951.57  93.623
 31.3216  8858.13  93.0822
 31.3636  9071.61  94.8713
 31.4056  9008.41  95.8469
 31.4476  9038.38  93.9119
 31.4896  8897.31  93.6651
 31.5316  9198.72  94.6453
 31.5736  9767.51  97.3406
 31.6156  9673.59  96.8987
 31.6576  9270.85  94.9503
 31.6996  9119.31  93.8521
 31.7416  9031.75  94.3191
 31.7836  8909.37  92.8412
 31.8256  8887.56  92.9934
 31.8676  9052.89  93.8518
 31.9096  8899.57  93.262
 31.9516  8740.87  92.7236
 31.9936  8831.12  93.0258
 32.0356  8914.33  93.5287
 32.0776  8857.23  93.1164
 32.1196  8793.32  92.7949
 32.1616  8912.15  92.9624
 32.2036  8718.33  92.4468
 32.2456  8755.37  93.0146
 32.2876  8815.74  92.8338
 32.3296  8780.49  92.6167
 32.3716  8771.23  92.6704
 32.4136  8820.71  93.1438
 32.4556  8996.85  93.445
 32.4976  8899.33  92.8947
 32.5396  8736.76  92.0682
 32.5816  8661.57  91.7941
 32.6236  8804.29  92.6114
 32.6656  8793.05  93.0879
 32.7076  8575.17  91.5881
 32.7496  8731.49  92.089
 32.7916  8728.79  92.0405
 32.8336  8666.25  91.8023
 32.8756  8722.44  91.8293
 32.9176  8797.94  92.7037
 32.9596  8769.75  92.6286
 33.0016  8706.33  92.0907
 33.0436  8802.45  92.764
 33.0856  8710.1  92.3392
 33.1276  8615.54  91.5772
 33.1696  8737.04  92.0784
 33.2116  8634.37  91.7468
 33.2536  8615.39  91.6525
 33.2956  8727.5  92.3291
 33.3376  8599.49  91.4725
 33.3796  8688.12  92.0667
 33.4216  8675.02  91.6025
 33.4636  8609.3  91.3939
 33.5056  8510.07  91.1016
 33.5476  8421.59  90.6215
 33.5896  8629.75  91.5148
 33.6316  8541.64  91.3609
 33.6736  8431.91  91.0048
 33.7156  8541.7  91.6353
 33.7576  8555.78  91.3444
 33.7996  8664.55  91.6892
 33.8416  8395.18  90.4377
 33.8836  8514.9  90.8543
 33.9256  8460.39  90.634
 33.9676  8589.85  91.2171
 34.0096  8348.88  90.2382
 34.0516  8409.95  90.2137
 34.0936  8348.5  90.1347
 34.1356  8536.69  90.8895
 34.1776  8312.78  89.7009
 34.2196  8346.21  90.0645
 34.2616  8236.55  89.599
 34.3036  8312.24  90.2593
 34.3456  8415.61  90.5745
 34.3876  8347.34  90.255
 34.4296  8470.78  90.524
 34.4716  8442.73  90.524
 34.5136  8367.17  90.3181
 34.5556  8352.87  90.4902
 34.5976  8429.7  90.7409
 34.6396  8423.41  90.395
 34.6816  8404.57  90.4059
 34.7236  8333.77  89.8122
 34.7656  8480.46  90.7908
 34.8076  8247.79  89.844
 34.8496  8340.77  90.2149
 34.8916  8349.17  90.1404
 34.9336  8420.37  90.4821
 34.9756  8580.98  91.2719
 35.0176  8386.3  90.7481
 35.0596  8325.52  90.2467
 35.1016  8252.04  89.6198
 35.1436  8421.26  90.2253
 35.1856  8193.21  89.113
 35.2276  8351.91  90.148
 35.2696  8273.49  89.9133
 35.3116  8337.12  90.3488
 35.3536  8273.85  89.7516
 35.3956  8247.45  89.2919
 35.4376  8226.9  89.7234
 35.4796  8368.22  90.5541
 35.5216  8150.69  89.3252
 35.5636  7972.01  89.0693
 35.6056  8304.6  89.9303
 35.6476  8173.41  89.1174
 35.6896  8371.58  90.2727
 35.7316  8161.76  89.1176
 35.7736  8161.29  89.3073
 35.8156  8134.26  89.1546
 35.8576  8164.85  89.5619
 35.8996  8314.03  90.3449
 35.9416  8155.74  88.9936
 35.9836  8155.05  89.4326
 36.0256  8153.44  89.3526
 36.0676  8255.17  89.6679
 36.1096  8137.33  89.1632
 36.1516  8214.07  89.4646
 36.1936  8198.1  89.236
 36.2356  8060.31  89.1062
 36.2776  8205.8  89.387
 36.3196  8117.61  88.5919
 36.3616  8090.6  88.5743
 36.4036  8145.12  88.9228
 36.4456  8101.37  88.8864
 36.4876  8059.04  88.6022
 36.5296  8063.21  88.6605
 36.5716  8226.56  90.3377
 36.6136  8457.68  90.3454
 36.6556  8349.58  89.9748
 36.6976  8177.9  89.5415
 36.7396  8138.88  89.0595
 36.7816  8156.11  89.5278
 36.8236  8148.2  89.405
 36.8656  8124.06  89.346
 36.9076  8047.93  88.8032
 36.9496  8078.65  88.9617
 36.9916  8080.76  88.6065
 37.0336  8187.07  89.5053
 37.0756  8154.27  89.1162
 37.1176  7894.19  87.9474
 37.1596  8069.97  88.9211
 37.2016  7900.57  88.2113
 37.2436  8038.99  88.3049
 37.2856  7984.32  88.2561
 37.3276  8028.34  87.8553
 37.3696  7809.58  87.5128
 37.4116  8037.68  88.6863
 37.4536  7929.03  87.9604
 37.4956  7894.36  87.8061
 37.5376  7909.97  89.4278
 37.5796  7914.05  89.4151
 37.6216  7694.72  86.4725
 37.6636  7834.91  87.1672
 37.7056  7886.79  87.6476
 37.7476  7882.34  87.1628
 37.7896  7868.63  87.5768
 37.8316  7696.03  86.7894
 37.8736  7913.08  87.526
 37.9156  7894.12  87.4262
 37.9576  7904.87  87.3689
 37.9996  7804.8  86.5357
 38.0416  7789.86  87.2589
 38.0836  7931.58  87.9506
 38.1256  7835.43  87.3708
 38.1676  7726.12  86.9006
 38.2096  7841.11  87.175
 38.2516  7994.49  88.2086
 38.2936  7891.49  87.4619
 38.3356  7923.69  87.5566
 38.3776  7822.56  87.261
 38.4196  7997.97  88.0843
 38.4616  7862.14  87.5683
 38.5036  7954.36  87.9282
 38.5456  7763.83  87.6882
 38.5876  7894.88  88.4539
 38.6296  7676.6  86.2184
 38.6716  7728.61  86.3078
 38.7136  7579.81  85.4154
 38.7556  7626.21  86.1724
 38.7976  7786.86  87.0149
 38.8396  7653.9  86.7128
 38.8816  7721.98  86.8768
 38.9236  7642.62  86.2469
 38.9656  7679.85  86.3716
 39.0076  7660.27  85.6802
 39.0496  7675.03  86.2912
 39.0916  7729.12  86.2469
 39.1336  7694.22  86.4626
 39.1756  7650.4  86.282
 39.2176  7733.14  87.2665
 39.2596  7571.49  86.2729
 39.3016  7632.22  86.2001
 39.3436  7664.91  86.8049
 39.3856  7705.19  86.4904
 39.4276  7799.28  87.5092
 39.4696  7578.6  85.8946
 39.5116  7645.97  86.7833
 39.5536  7843.77  88.32
 39.5956  7805.18  87.2043
 39.6376  7799.47  87.1791
 39.6796  7776.67  86.7955
 39.7216  7759.81  86.7965
 39.7636  7744.34  87.2747
 39.8056  7739.84  87.0379
 39.8476  7668.15  86.8768
 39.8896  7695.25  86.6649
 39.9316  7631.21  86.5521
 39.9736  7832.46  87.2578
 40.0156  7682.28  86.2501
 40.0576  7776.66  87.124
 40.0996  7876.71  86.8806
 40.1416  7748.14  86.9446
 40.1836  7781.87  87.0326
 40.2256  7753.22  86.915
 40.2676  7736.64  86.9905
 40.3096  7784.09  87.1166
 40.3516  7841.52  87.5478
 40.3936  7746.52  86.5816
 40.4356  7742.14  86.7465
 40.4776  7777.42  87.1917
 40.5196  7809.8  87.6607
 40.5616  7819.79  87.3638
 40.6036  7762.61  87.2912
 40.6456  7757.38  86.8693
 40.6876  7978.34  88.0859
 40.7296  7729.24  86.8396
 40.7716  7709.09  86.8491
 40.8136  7634.37  86.3684
 40.8556  7754.48  87.1874
 40.8976  7726.68  86.9474
 40.9396  7669.4  86.9745
 40.9816  7832.83  87.1852
 41.0236  7801.47  86.7903
 41.0656  7914.37  87.9581
 41.1076  7816.26  87.1798
 41.1496  7779.93  86.8897
 41.1916  7710.92  86.8212
 41.2336  7701.99  86.7644
 41.2756  7757.83  86.684
 41.3176  7673.19  86.8174
 41.3596  7790.48  87.207
 41.4016  7738.06  87.1712
 41.4436  7829.52  87.4715
 41.4856  7843.4  87.7074
 41.5276  7652.39  86.6534
 41.5696  7781.55  87.0169
 41.6116  7669.16  86.778
 41.6536  7762.51  87.1652
 41.6956  7904.5  87.9389
 41.7376  7655.94  86.6478
 41.7796  7734.73  86.9745
 41.8216  7633.37  86.6321
 41.8636  7672.02  86.7871
 41.9056  7729.59  86.9047
 41.9476  7721.96  87.094
 41.9896  7756.51  86.9612
 42.0316  7795.74  87.2628
 42.0736  7761.46  87.2108
 42.1156  7749.73  86.9515
 42.1576  7796.31  87.3066
 42.1996  7668.23  86.7357
 42.2416  7695.38  86.4718
 42.2836  7610.2  86.1058
 42.3256  7633.02  86.3486
 42.3676  7659.62  86.3074
 42.4096  7716.01  86.5812
 42.4516  7657.63  86.3379
 42.4936  7695.9  86.6277
 42.5356  7690.77  86.7309
 42.5776  7769.61  87.1154
 42.6196  7677.67  86.6448
 42.6616  7546.79  86.0786
 42.7036  7622.48  85.8985
 42.7456  7660.63  86.4662
 42.7876  7691.04  86.7313
 42.8296  7711.98  86.6896
 42.8716  7592.28  86.171
 42.9136  7644.17  86.2105
 42.9556  7602.45  86.1528
 42.9976  7705.06  86.69
 43.0396  7619.25  85.9466
 43.0816  7532.31  85.8175
 43.1236  7587.42  86.1983
 43.1656  7628.03  86.261
 43.2076  7552.44  85.9354
 43.2496  7531.44  85.6264
 43.2916  7557.73  86.1409
 43.3336  7528.72  85.817
 43.3756  7528.56  85.5685
 43.4176  7432.24  85.1053
 43.4596  7521.8  85.4679
 43.5016  7477.55  85.6211
 43.5436  7401.76  85.0841
 43.5856  7442.69  85.3457
 43.6276  7462.3  85.355
 43.6696  7443.34  85.5035
 43.7116  7500.12  85.3308
 43.7536  7561.12  86.1639
 43.7956  7333.86  86.0293
 43.8376  7476.51  85.4112
 43.8796  7430.42  85.2257
 43.9216  7399.07  84.9674
 43.9636  7459.91  85.4253
 44.0056  7359.49  85.0729
 44.0476  7441.11  85.1786
 44.0896  7276.16  84.5629
 44.1316  7445.85  85.0725
 44.1736  7431.11  85.1117
 44.2156  7434.64  84.9798
 44.2576  7338.64  84.758
 44.2996  7380.67  84.9659
 44.3416  7436.02  85.0563
 44.3836  7321.14  84.7141
 44.4256  7246  83.9325
 44.4676  7266.5  84.202
 44.5096  7325.18  84.6846
 44.5516  7242.62  84.1631
 44.5936  7191.08  83.824
 44.6356  7411.03  84.835
 44.6776  7296.65  84.4912
 44.7196  7318.22  84.917
 44.7616  7309.04  86.1773
 44.8036  7207.3  84.2414
 44.8456  7347.68  85.0493
 44.8876  7327.12  84.7905
 44.9296  7381.48  84.5653
 44.9716  7225.99  84.089
 45.0136  7322.01  84.5778
 45.0556  7223.11  84.0854
 45.0976  7131.01  83.6111
 45.1396  7147.78  83.4686
 45.1816  7158.4  83.4656
 45.2236  7252.72  83.9086
 45.2656  7189.33  84.0399
 45.3076  7122.48  83.4398
 45.3496  7063.67  83.383
 45.3916  7127.39  84.0258
 45.4336  7176.59  84.1618
 45.4756  7144.57  83.831
 45.5176  7130.16  83.3757
 45.5596  7252.95  84.2103
 45.6016  7131.6  83.9112
 45.6436  7165.86  83.3063
 45.6856  7028.47  83.1422
 45.7276  7060.5  84.6168
 45.7696  7130.95  84.7109
 45.8116  7254.48  84.8832
 45.8536  7031.07  83.466
 45.8956  7213.91  83.9058
 45.9376  7058.76  82.4764
 45.9796  7108.68  83.4337
 46.0216  7223.79  84.4486
 46.0636  7261  83.8183
 46.1056  7113.81  82.9451
 46.1476  7220.59  84.158
 46.1896  7112.58  83.6752
 46.2316  7104.18  83.4989
 46.2736  7114.8  83.759
 46.3156  7117.52  83.5289
 46.3576  7064.04  83.415
 46.3996  7157.48  84.1187
 46.4416  7098.36  83.3275
 46.4836  7050.05  83.4185
 46.5256  7164.48  84.0357
 46.5676  7069.82  83.5885
 46.6096  7060.29  83.4711
 46.6516  7096  82.737
 46.6936  7093.31  83.2079
 46.7356  7206.4  83.9765
 46.7776  7056.68  83.9235
 46.8196  7053.91  83.645
 46.8616  6851.43  82.2497
 46.9036  6889.35  82.142
 46.9456  6969.42  82.2693
 46.9876  6932.74  82.1315
 47.0296  6875.51  82.4612
 47.0716  6912.7  82.5099
 47.1136  6901.23  82.1305
 47.1556  6923.31  82.1363
 47.1976  7015.27  82.8284
 47.2396  6922.3  82.5892
 47.2816  6884.07  82.0727
 47.3236  6864.35  82.3122
 47.3656  6940.78  82.7038
 47.4076  6943.1  82.4585
 47.4496  6942.27  82.6143
 47.4916  6870.95  82.3731
 47.5336  6952.01  82.6736
 47.5756  6956.9  82.8237
 47.6176  6991.39  82.9189
 47.6596  6871.93  81.9328
 47.7016  7011.27  82.5715
 47.7436  6930.71  82.4388
 47.7856  6918.25  82.3955
 47.8276  6846.08  82.0032
 47.8696  6863.17  82.1908
 47.9116  6963.08  82.5006
 47.9536  6929.54  82.2501
 47.9956  6773.17  82.0031
 48.0376  6784.92  81.849
 48.0796  6886.08  82.5855
 48.1216  6886.09  82.4113
 48.1636  7005.73  82.7089
 48.2056  6849.78  82.0368
 48.2476  6940.01  82.8817
 48.2896  6869.54  82.3675
 48.3316  6819.89  82.0116
 48.3736  6825.35  82.067
 48.4156  6765.56  81.5651
 48.4576  6791.19  82.0041
 48.4996  6887.3  82.0424
 48.5416  6891.95  82.3973
 48.5836  6759.26  81.2818
 48.6256  6827.93  81.8942
 48.6676  6876.87  82.7
 48.7096  6839.84  81.7594
 48.7516  6752.83  81.3796
 48.7936  6745.39  81.3942
 48.8356  6732.96  81.3712
 48.8776  6826.23  82.4861
 48.9196  6905.9  82.3557
 48.9616  6791.77  82.0394
 49.0036  6730.16  82.0098
 49.0456  6749.7  82.1043
 49.0876  6880.95  82.4428
 49.1296  6783.83  82.01
 49.1716  6712.65  81.4583
 49.2136  6680.51  81.199
 49.2556  6821.09  82.0651
 49.2976  6691.18  81.3637
 49.3396  6687.56  81.3886
 49.3816  6858.2  81.8608
 49.4236  6701.28  81.331
 49.4656  6633.59  80.9367
 49.5076  6779.11  81.572
 49.5496  6704.17  81.1768
 49.5916  6762.09  81.4569
 49.6336  6692.8  81.2316
 49.6756  6698.65  81.5058
 49.7176  6729.72  81.6288
 49.7596  6696.18  81.1955
 49.8016  6762.83  81.5098
 49.8436  6708.07  81.4793
 49.8856  6667.8  81.2419
 49.9276  6580.13  80.801
 49.9696  6740.64  81.7661
 50.0116  6688.98  81.5805
 50.0536  6736.5  81.8149
 50.0956  6636.8  81.278
 50.1376  6609.52  80.8233
 50.1796  6620.83  81.1516
 50.2216  6604.96  81.0402
 50.2636  6592.44  80.5972
 50.3056  6466.82  79.9949
 50.3476  6577.37  80.6984
 50.3896  6530.33  80.3787
 50.4316  6608.99  80.7
 50.4736  6513.34  80.3314
 50.5156  6578.99  80.7229
 50.5576  6532.66  80.2107
 50.5996  6540.71  80.5287
 50.6416  6528.13  80.3835
 50.6836  6592.12  80.8348
 50.7256  6677.34  81.2892
 50.7676  6594.31  81.079
 50.8096  6512.75  80.1255
 50.8516  6530.7  80.6467
 50.8936  6454.93  79.9668
 50.9356  6634.22  81.1734
 50.9776  6558.05  80.8526
 51.0196  6412.49  80.0732
 51.0616  6497.32  79.9396
 51.1036  6454.62  80.0212
 51.1456  6425.64  79.7593
 51.1876  6578.57  80.0575
 51.2296  6573.16  80.6516
 51.2716  6389.24  79.2271
 51.3136  6500.37  80.3565
 51.3556  6440.7  79.6268
 51.3976  6411.09  79.5879
 51.4396  6302.99  79.2022
 51.4816  6298.58  79.0355
 51.5236  6390.08  79.6854
 51.5656  6527.33  80.1561
 51.6076  6428.47  79.6263
 51.6496  6425.23  79.7957
 51.6916  6400.05  79.9816
 51.7336  6375.2  79.9193
 51.7756  6419.76  79.9008
 51.8176  6422.72  80.0221
 51.8596  6310.99  79.337
 51.9016  6529.02  80.3032
 51.9436  6350.56  80.6225
 51.9856  6277.39  80.5887
 52.0276  6454.59  80.2566
 52.0696  6364  79.7498
 52.1116  6378.06  79.9539
 52.1536  6273.37  79.1401
 52.1956  6359.95  79.208
 52.2376  6439.05  79.8731
 52.2796  6438.71  79.684
 52.3216  6196.84  78.8393
 52.3636  6335.41  79.3044
 52.4056  6267.49  78.7343
 52.4476  6247.74  78.971
 52.4896  6253.09  79.0542
 52.5316  6227.7  78.9283
 52.5736  6312.72  79.2036
 52.6156  6299.4  79.4897
 52.6576  6342.54  79.2169
 52.6996  6210.23  79.3276
 52.7416  6323.54  79.9064
 52.7836  6285.08  79.5546
 52.8256  6370.87  79.3385
 52.8676  6139.31  78.4259
 52.9096  6378.97  80.0358
 52.9516  6366.85  80.324
 52.9936  6195.38  79.6105
 53.0356  6118.97  78.1504
 53.0776  6080.94  78.1593
 53.1196  6035.8  77.9934
 53.1616  6086.79  78.3677
 53.2036  6063.53  78.1782
 53.2456  6130.35  78.7008
 53.2876  6103.43  78.2439
 53.3296  6130.48  78.7333
 53.3716  6242.36  79.2048
 53.4136  6147.09  78.7394
 53.4556  6193.19  79.0648
 53.4976  6013.94  77.7644
 53.5396  6136.21  78.9312
 53.5816  6044.09  77.9861
 53.6236  5975.72  77.8741
 53.6656  6125.74  78.4773
 53.7076  6254.28  79.2623
 53.7496  6067.01  78.1861
 53.7916  6063.58  78.2821
 53.8336  5987.33  77.6918
 53.8756  5974.68  78.1323
 53.9176  6102.06  78.3289
 53.9596  6110.64  79.135
 54.0016  6053.17  78.1063
 54.0436  6108.67  78.673
 54.0856  6189.12  78.6257
 54.1276  6080.43  78.1333
 54.1696  6115.35  78.5273
 54.2116  6027.64  77.7246
 54.2536  6068.29  77.8038
 54.2956  6212.16  78.7635
 54.3376  6018.96  78.0022
 54.3796  6036.1  78.0136
 54.4216  6155.16  78.8271
 54.4636  6163.5  78.8398
 54.5056  6123.1  78.4107
 54.5476  6103.93  78.6125
 54.5896  6084.18  78.3182
 54.6316  6082.14  78.1613
 54.6736  6182.33  78.8841
 54.7156  6088.22  78.3066
 54.7576  6007.22  77.7729
 54.7996  6012.72  77.9619
 54.8416  6047.6  78.214
 54.8836  5978.65  77.882
 54.9256  6109.16  78.4829
 54.9676  6083.52  78.1734
 55.0096  6064.17  78.1202
 55.0516  6134.04  78.7956
 55.0936  6034.46  77.7985
 55.1356  6005.82  77.6456
 55.1776  6021.96  78.0176
 55.2196  6018.97  77.7842
 55.2616  6080.6  78.3931
 55.3036  5925.68  77.5423
 55.3456  6039.9  78.4301
 55.3876  6101.49  78.5753
 55.4296  5969.95  77.7024
 55.4716  5972.34  77.7537
 55.5136  6038.62  77.9427
 55.5556  6024.74  77.9278
 55.5976  5938.26  77.4207
 55.6396  5989.73  77.6244
 55.6816  6065.13  78.0696
 55.7236  6088.85  78.2642
 55.7656  6014.96  77.5506
 55.8076  6150.31  78.3986
 55.8496  5988.76  77.7907
 55.8916  6033.05  78.1638
 55.9336  5994.25  77.7361
 55.9756  6004.6  77.6925
 56.0176  6048.64  78.1266
 56.0596  5937.75  77.3871
 56.1016  5962.47  77.5667
 56.1436  5986.12  77.9737
 56.1856  6001.11  77.8154
 56.2276  5957.85  77.5879
 56.2696  6030.35  78.0338
 56.3116  5930.52  77.7831
 56.3536  6002.24  77.9124
 56.3956  5929.15  77.4257
 56.4376  6005.12  77.957
 56.4796  6035.27  77.955
 56.5216  6041.85  78.3508
 56.5636  6019.87  77.821
 56.6056  5973.53  77.7487
 56.6476  6004.64  77.5878
 56.6896  6001.11  78.0002
 56.7316  5942.48  77.5337
 56.7736  5963.78  77.6571
 56.8156  5948.77  77.5713
 56.8576  5935.31  77.4255
 56.8996  5952.67  77.4742
 56.9416  5983.19  77.9624
 56.9836  5917.89  77.0702
 57.0256  5870.54  77.0716
 57.0676  5908.03  77.4377
 57.1096  5913.89  77.2681
 57.1516  6040.19  78.1544
 57.1936  5967.66  77.4338
 57.2356  5956.25  77.6718
 57.2776  5967.03  77.6977
 57.3196  6002.25  78.2972
 57.3616  5965.72  77.5584
 57.4036  5964.11  77.6066
 57.4456  6033.09  78.024
 57.4876  6054.49  78.0176
 57.5296  5901.36  77.3556
 57.5716  5940.39  77.6042
 57.6136  6004.46  77.8351
 57.6556  6023.79  78.1066
 57.6976  6030.85  77.9808
 57.7396  5897.69  77.4786
 57.7816  5811.21  77.2554
 57.8236  5900.78  77.6503
 57.8656  6006.39  78.0032
 57.9076  5969.91  77.7898
 57.9496  5956.69  78.0512
 57.9916  5955.03  77.5605
 58.0336  5908.36  77.5178
 58.0756  5918.01  77.1986
 58.1176  5835.07  76.6841
 58.1596  5775.44  76.8418
 58.2016  5975.62  77.3947
 58.2436  6058.42  78.338
 58.2856  5957.62  77.6064
 58.3276  5901.94  77.604
 58.3696  5960.64  77.7436
 58.4116  5857.54  76.9372
 58.4536  5931.71  77.3051
 58.4956  5916.08  77.3873
 58.5376  6039.6  77.7629
 58.5796  5931.95  77.4876
 58.6216  5889.94  77.0303
 58.6636  5972  77.7775
 58.7056  5953.49  77.5137
 58.7476  5997.89  78.2452
 58.7896  5878.82  77.1122
 58.8316  5885.03  77.1475
 58.8736  6065.65  78.3362
 58.9156  5870.57  77.104
 58.9576  6119.8  79.042
 58.9996  6160.41  78.5422
 59.0416  6078.24  78.3951
 59.0836  5925.75  77.3266
 59.1256  5854.9  77.5446
 59.1676  6043.77  79.09
 59.2096  6047.29  78.4346
 59.2516  6098.55  78.3454
 59.2936  5831.81  76.9352
 59.3356  6024.97  78.0769
 59.3776  6177.1  79.2273
 59.4196  5989.48  77.9516
 59.4616  5986.86  77.7947
 59.5036  5855.95  76.9742
 59.5456  6091.4  78.1985
 59.5876  6083.41  78.339
 59.6296  6036.03  78.1025
 59.6716  5990.54  77.8653
 59.7136  5988.38  77.8396
 59.7556  5859.21  77.1299
 59.7976  6017.93  77.9102
 59.8396  6016.37  77.7947
 59.8816  6030.11  78.428
 59.9236  5911.12  77.2983
 59.9656  5987.79  78.0577
 60.0076  6024.29  77.6532
 60.0496  5951.02  77.6795
 60.0916  6144.49  78.3454
 60.1336  5957.41  78.2432
 60.1756  5995.68  79.6741
 60.1996  0.0000000E+00  0.0000000E+00