File: docs/examples/opeando_xrd/IS17_D/Data/IS17_D/17_Da_f00108.xye
# /beamlines/bl04/projects/cycle2025-II/20250340211-lsimonelli/DATA/IS17_D/17_Da_f00108.xye : mythproc.py merge -s 0.006 -l 0.5 -f /beamlines/bl04/inhouse/ff/FlatField/ff_20Nov2024rod8mm60s_17keV.raw -b True -c true -o xye /beamlines/bl04/projects/cycle2025-II/20250340211-lsimonelli/DATA/IS17_D/17_Da_00108.dat
# IsMon = [6781911, 6781662, 6783660]  IsPos = [-1.4999, -2.4884, -3.4988]
# Wave = 0.4962  CalPath /beamlines/bl04/projects/cycle2025-II/20250340211-lsimonelli/DATA/Align/Si_Pos1_25keV_f00001.cal
# Date = 2025-09-24_23:41:02 Dt = 4.8000  Bin = 0.0060  <imon> = 6782411 +/- 889 (Min/Max) 6781662 / 6783660
# icurr 252.3473  mocoIn 1.7212E-05  mocoOut 0.8076  i15 7.10264e+06  imon 6.78241e+06  i7 6.3333  iEMpd_timer 4.8000  iEMpd_1 3.4341E-08  iEMpd_2 7.6733E-08  iEMpd_3 1.5520E-08  iEMpd_4 4.7566E-08  iEMhp_timer 4.8000  iEMhp_1 4.9295E-06  iEMhp_2 -2.4694E-08  iEMhp_3 -2.3509E-08  iEMhp_4 -1.9878E-08
#      9776
 1.5856  40780.6  207.37
 1.6276  48089.7  221.324
 1.6696  55448.4  236.817
 1.7116  63668.6  254.261
 1.7536  73925.4  272.809
 1.7956  78318.4  281.5
 1.8376  74046.1  274.148
 1.8796  62102.9  249.217
 1.9216  50823.2  226.353
 1.9636  43106.3  207.606
 2.0056  38690.1  195.923
 2.0476  36088.1  191.294
 2.0896  35274.5  188.017
 2.1316  34236.7  184.339
 2.1736  32342  180.587
 2.2156  33122.4  181.287
 2.2576  31787  178.233
 2.2996  30844.9  176.215
 2.3416  31355.8  176.251
 2.3836  30833.8  174.884
 2.4256  30069.8  173.267
 2.4676  29355.6  170.954
 2.5096  29262.1  170.738
 2.5516  29035.4  174.022
 2.5936  28875.5  170.032
 2.6356  28360.8  169.222
 2.6776  28352.9  168.045
 2.7196  27878  167.168
 2.7616  27818.6  166.762
 2.8036  27498  165.972
 2.8456  27411.4  166.352
 2.8876  27027.1  165.053
 2.9296  26418.2  163.312
 2.9716  26426.4  162.809
 3.0136  25760.7  160.817
 3.0556  25817.7  161.403
 3.0976  25841.2  160.377
 3.1396  25590  160.335
 3.1816  25266.3  159.249
 3.2236  24980.8  158.342
 3.2656  25087.5  157.693
 3.3076  24766.7  158.172
 3.3496  24937.6  157.632
 3.3916  25185.4  158.232
 3.4336  25334.3  159.286
 3.4756  25782.3  160.617
 3.5176  26509.8  162.652
 3.5596  26522.4  165.164
 3.6016  26735  163.396
 3.6436  25968.5  162.161
 3.6856  25332.3  158.434
 3.7276  24417  156.65
 3.7696  24176.7  156.069
 3.8116  23739.5  154.543
 3.8536  23682.6  154.286
 3.8956  23908.6  154.846
 3.9376  23416.7  153.495
 3.9796  23423.1  153.024
 4.0216  23620.4  152.692
 4.0636  23476.8  153.716
 4.1056  23598.2  153.75
 4.1476  23758.8  154.588
 4.1896  23877.6  154.838
 4.2316  24057.5  155.241
 4.2736  24345  155.951
 4.3156  24685.5  157.262
 4.3576  25352.3  159.308
 4.3996  25658.8  160.527
 4.4416  25931.3  160.959
 4.4836  26827.8  163.875
 4.5256  26948.7  164.857
 4.5676  26827.4  164.744
 4.6096  27708.1  166.063
 4.6516  28040  166.762
 4.6936  28156.7  167.929
 4.7356  27952.3  167.147
 4.7776  28288.4  167.98
 4.8196  27830.5  167.265
 4.8616  27608.7  166.078
 4.9036  27321.7  164.956
 4.9456  27123.5  165.007
 4.9876  26503.2  163.015
 5.0296  26879.2  163.982
 5.0716  26756.5  164.39
 5.1136  26877.3  164.472
 5.1556  27063.8  164.495
 5.1976  27610.5  166.143
 5.2396  27662.5  165.994
 5.2816  27576  166.196
 5.3236  27755.5  166.442
 5.3656  27336.6  166.108
 5.4076  26913.2  164.973
 5.4496  27149.2  165.174
 5.4916  27097.9  164.771
 5.5336  27186.8  165.05
 5.5756  26922.4  164.274
 5.6176  27149.8  164.398
 5.6596  27348.9  165.987
 5.7016  27456.7  165.57
 5.7436  27670  166.483
 5.7856  27482.4  165.981
 5.8276  27965.8  167.155
 5.8696  27864.6  167.018
 5.9116  27869.8  167.645
 5.9536  28093.4  168.066
 5.9956  28705.7  169.254
 6.0376  28684.6  169.828
 6.0796  28990.2  170.561
 6.1216  28841.4  170.328
 6.1636  29219.2  170.487
 6.2056  28945.9  170.36
 6.2476  29089.3  170.655
 6.2896  29651.7  171.974
 6.3316  29316.1  171.173
 6.3736  29759  172.355
 6.4156  29514.5  171.54
 6.4576  29960.7  172.431
 6.4996  29904.3  172.756
 6.5416  30060.1  173.343
 6.5836  30086.9  173.653
 6.6256  30197.1  173.526
 6.6676  30640.2  174.361
 6.7096  30667  175.3
 6.7516  30980.9  175.844
 6.7936  31096.1  175.592
 6.8356  31126.5  175.755
 6.8776  31785.8  178.424
 6.9196  31761.4  178.759
 6.9616  32124.4  179.216
 7.0036  32414.5  179.668
 7.0456  32576.2  179.405
 7.0876  32392  180.603
 7.1296  32478.3  179.975
 7.1716  32398.5  179.282
 7.2136  32210.3  178.541
 7.2556  32310.6  178.985
 7.2976  32483.3  179.965
 7.3396  32300.8  179.677
 7.3816  32162.9  179.506
 7.4236  32751.1  180.421
 7.4656  32687.2  179.725
 7.5076  32922.5  180.506
 7.5496  33016  181.305
 7.5916  32989.7  181.265
 7.6336  33401.2  182.29
 7.6756  33460.6  182.301
 7.7176  33670.8  183.182
 7.7596  33749  184.662
 7.8016  34224  188.157
 7.8436  34498.8  185.554
 7.8856  34844.1  186.082
 7.9276  35525.2  188.293
 7.9696  35867.6  189.52
 8.0116  36713.3  190.252
 8.0536  36735.7  190.571
 8.0956  36458.3  191.039
 8.1376  37247.8  192.56
 8.1796  37264.4  193.156
 8.2216  37834.1  193.348
 8.2636  38424.4  195.101
 8.3056  38105.1  195.066
 8.3476  38973.5  196.596
 8.3896  38523.1  195.54
 8.4316  38877.5  196.603
 8.4736  38882.1  196.068
 8.5156  38355.5  195.019
 8.5576  38042.2  195.209
 8.5996  38216.3  194.51
 8.6416  37965.7  195.151
 8.6836  37762.9  194.453
 8.7256  38329.7  195.352
 8.7676  37700.9  196.66
 8.8096  37634.1  193.757
 8.8516  37578.4  193.233
 8.8936  37053.2  191.78
 8.9356  36973.3  191.914
 8.9776  36949.4  191.95
 9.0196  36763.9  191.14
 9.0616  36845.7  190.815
 9.1036  36401.8  190.864
 9.1456  36731.5  191.062
 9.1876  36454.6  190.298
 9.2296  36596.1  190.064
 9.2716  36100.9  188.838
 9.3136  35997.4  188.545
 9.3556  36102.2  188.806
 9.3976  34798.7  185.897
 9.4396  35376  187.32
 9.4816  35010.8  186.219
 9.5236  34810.9  185.595
 9.5656  34687.2  185.587
 9.6076  34368.4  185.258
 9.6496  34534.5  185.638
 9.6916  34394.9  185.23
 9.7336  34403.6  185.034
 9.7756  34499.3  186.567
 9.8176  33765.8  184.074
 9.8596  33526.3  181.855
 9.9016  32954.6  180.293
 9.9436  32656.5  179.39
 9.9856  32435.5  179.015
 10.0276  32135.2  179.285
 10.0696  32532.6  179.424
 10.1116  31537.8  176.923
 10.1536  31759.8  177.713
 10.1956  30896.9  174.881
 10.2376  30413.2  173.01
 10.2796  30664  173.85
 10.3216  30329.2  173.169
 10.3636  29898.8  171.967
 10.4056  29544.4  171.337
 10.4476  29486.6  170.799
 10.4896  29851  171.302
 10.5316  29035.1  169.64
 10.5736  28966  169.85
 10.6156  28461.4  168.141
 10.6576  28756.3  167.574
 10.6996  28241  166.72
 10.7416  27889.1  165.926
 10.7836  28060.7  167.12
 10.8256  27504.1  165.88
 10.8676  27699.9  166.008
 10.9096  27465.4  165.338
 10.9516  27301.4  163.778
 10.9936  27328.4  164.049
 11.0356  27092.6  163.98
 11.0776  26824  162.48
 11.1196  26287.9  161.587
 11.1616  26361.6  161.512
 11.2036  26152.9  160.719
 11.2456  26340.6  162
 11.2876  26184  161.243
 11.3296  25780.9  159.901
 11.3716  26293.3  161.172
 11.4136  25928  160.947
 11.4556  26220.4  161.516
 11.4976  26173.7  160.35
 11.5396  26263.6  160.797
 11.5816  26651.6  162.439
 11.6236  27389.7  164.896
 11.6656  27428.7  164.149
 11.7076  26729  162.896
 11.7496  26154.7  165.1
 11.7916  25918.9  159.667
 11.8336  25582.3  159.517
 11.8756  25208.3  157.885
 11.9176  25450.1  158.298
 11.9596  25103.3  157.395
 12.0016  25022.4  157.941
 12.0436  24896.6  156.955
 12.0856  24769.9  157.095
 12.1276  24734.1  156.901
 12.1696  24618.9  155.66
 12.2116  24940.6  156.671
 12.2536  24515.1  156.165
 12.2956  24754.4  156.248
 12.3376  24281.8  154.961
 12.3796  24413.3  155.836
 12.4216  24643.9  155.791
 12.4636  24255.3  155.471
 12.5056  24537.6  155.645
 12.5476  24556.9  155.229
 12.5896  24421  155.434
 12.6316  24093.3  154.548
 12.6736  24246.4  155.526
 12.7156  24115.9  154.964
 12.7576  24240.2  155.605
 12.7996  24566.2  155.284
 12.8416  24295.1  155.484
 12.8836  24777.2  156.842
 12.9256  24757.5  155.794
 12.9676  24872.7  156.578
 13.0096  24551.2  156.66
 13.0516  24787.4  156.445
 13.0936  24726.2  156.657
 13.1356  25318.7  157.495
 13.1776  25013.5  157.541
 13.2196  25224.1  157.855
 13.2616  25354  158.575
 13.3036  25250.7  158.224
 13.3456  25381.9  158.996
 13.3876  25208.6  157.737
 13.4296  25105.5  157.565
 13.4716  25359.4  157.963
 13.5136  25166.1  157.523
 13.5556  25009.9  157.644
 13.5976  25016  157.813
 13.6396  25412  158.415
 13.6816  24904.9  157.321
 13.7236  25566.8  159.039
 13.7656  24893  157.465
 13.8076  25109.4  156.915
 13.8496  24619.3  155.982
 13.8916  24815.7  157.623
 13.9336  24820.3  156.852
 13.9756  24600.2  155.494
 14.0176  24677.8  156.435
 14.0596  24641.9  156.284
 14.1016  24250.9  155.436
 14.1436  23953.8  153.615
 14.1856  23707  153.113
 14.2276  23514  152.975
 14.2696  23710.5  153.455
 14.3116  23572.6  152.908
 14.3536  23129.8  151.644
 14.3956  23074.5  151.189
 14.4376  23410.4  152.057
 14.4796  23011.7  150.752
 14.5216  22798.7  150.846
 14.5636  22735.7  150.206
 14.6056  22789.4  149.955
 14.6476  22781.2  149.153
 14.6896  22416.3  148.5
 14.7316  21960.5  148.024
 14.7736  21919.8  147.022
 14.8156  21700  146.32
 14.8576  21645.9  145.985
 14.8996  21136.2  145.469
 14.9416  20909.4  144.689
 14.9836  21110.4  145.338
 15.0256  20758.6  143.035
 15.0676  21020.4  144.263
 15.1096  20812.4  143.28
 15.1516  20398.4  142.413
 15.1936  20285.9  141.439
 15.2356  20041.2  140.866
 15.2776  19945.1  140.109
 15.3196  19653  140.092
 15.3616  19561.6  139.516
 15.4036  19437.6  138.927
 15.4456  19664.6  139.388
 15.4876  19491.8  138.449
 15.5296  19253.7  137.894
 15.5716  18870.7  136.112
 15.6136  18954.8  136.745
 15.6556  19016.9  136.197
 15.6976  18715.5  135.415
 15.7396  18589.3  135.345
 15.7816  18621.3  134.965
 15.8236  18256.7  134.339
 15.8656  18363.1  134.522
 15.9076  18015.7  133.07
 15.9496  17766.7  134.938
 15.9916  18081.2  136.588
 16.0336  17691.8  131.966
 16.0756  17791.2  132.648
 16.1176  17705.9  132.397
 16.1596  17165.5  131.543
 16.2016  17435.3  131.307
 16.2436  17237.6  130.947
 16.2856  17099.3  129.966
 16.3276  16987.2  129.955
 16.3696  16926.9  129.54
 16.4116  16721.1  129.219
 16.4536  17140.8  130.609
 16.4956  16762.9  128.899
 16.5376  16770.1  129.109
 16.5796  16653.9  128.015
 16.6216  16711.2  128.552
 16.6636  16501.8  127.894
 16.7056  16511.1  127.805
 16.7476  16814  128.49
 16.7896  16609.3  128.464
 16.8316  16562.3  128.248
 16.8736  16402.2  127.889
 16.9156  16676  129.283
 16.9576  16371.1  128.908
 16.9996  16488.4  129.859
 17.0416  16673.8  128.924
 17.0836  16590.5  128.352
 17.1256  16308.9  127.276
 17.1676  16588.9  128.352
 17.2096  16406.6  127.523
 17.2516  16108.3  126.133
 17.2936  16350.2  127.418
 17.3356  15782.4  125.186
 17.3776  15928.5  125.956
 17.4196  15909.6  125.572
 17.4616  15822.5  125.146
 17.5036  15469.4  124.11
 17.5456  15477  124.782
 17.5876  15370.8  123.397
 17.6296  15232.8  122.656
 17.6716  15308.3  123.542
 17.7136  14961.5  122.274
 17.7556  14953.5  122.534
 17.7976  15016.7  122.534
 17.8396  14802.2  121.154
 17.8816  14915.1  122.155
 17.9236  14744.2  121.27
 17.9656  14875.8  122.346
 18.0076  14829.6  121.732
 18.0496  14854.4  120.968
 18.0916  14772.3  121.17
 18.1336  14730.5  121.1
 18.1756  14920.1  121.405
 18.2176  14443.3  119.673
 18.2596  14576  119.959
 18.3016  14695.5  120.699
 18.3436  14859.3  121.375
 18.3856  14397.9  119.607
 18.4276  14817.7  121.005
 18.4696  14448.5  119.596
 18.5116  14438.4  119.842
 18.5536  14612.6  120.915
 18.5956  14410.2  119.629
 18.6376  14333.2  119.722
 18.6796  14372.3  119.202
 18.7216  14547.1  120.416
 18.7636  14154.7  118.755
 18.8056  14178.7  118.808
 18.8476  14138.9  119.265
 18.8896  14083.2  118.371
 18.9316  14412.5  119.733
 18.9736  14248  118.744
 19.0156  14167.9  118.814
 19.0576  14179.7  117.729
 19.0996  14372.6  119.244
 19.1416  14009.9  118.115
 19.1836  14177.1  118.419
 19.2256  14064.7  118.164
 19.2676  14195  118.807
 19.3096  14152.4  118.872
 19.3516  14066.8  118.471
 19.3936  14091.7  118.478
 19.4356  14178.8  118.71
 19.4776  14031.7  118.19
 19.5196  14116.1  118.389
 19.5616  13987.6  118.109
 19.6036  14067.1  117.94
 19.6456  13993.4  117.756
 19.6876  14121.7  117.94
 19.7296  14081.3  118.227
 19.7716  13971.4  117.928
 19.8136  14022.6  118.351
 19.8556  14235.6  118.721
 19.8976  14025.5  117.907
 19.9396  14030.6  117.508
 19.9816  14322.7  118.967
 20.0236  14379.4  119.42
 20.0656  14708.2  120.772
 20.1076  14682.4  121.134
 20.1496  15016.9  122.52
 20.1916  14895  121.521
 20.2336  15258.8  122.927
 20.2756  14955.3  122.144
 20.3176  14596.7  120.411
 20.3596  14337  119.307
 20.4016  14278.4  118.866
 20.4436  14098.4  118.676
 20.4856  13855.9  117.446
 20.5276  13901  118.099
 20.5696  13843.8  117.31
 20.6116  13789.2  117.358
 20.6536  13696  116.468
 20.6956  13566.2  116.038
 20.7376  13610.9  116.46
 20.7796  13636.2  116.253
 20.8216  13760.8  116.481
 20.8636  13456.5  115.561
 20.9056  13517.7  115.771
 20.9476  13424.6  115.204
 20.9896  13647.1  116.026
 21.0316  13544.1  115.482
 21.0736  13440  115.561
 21.1156  13402  115.559
 21.1576  13444.8  115.797
 21.1996  13282.2  115.071
 21.2416  13357.4  115.228
 21.2836  13380.9  115.29
 21.3256  13216  114.659
 21.3676  13345.5  114.769
 21.4096  13236.3  114.608
 21.4516  13133.3  114.044
 21.4936  13013.2  113.773
 21.5356  13166.3  114.38
 21.5776  13289.2  114.745
 21.6196  13083.8  113.891
 21.6616  13226.2  114.596
 21.7036  13046.8  113.599
 21.7456  13018.8  113.551
 21.7876  13032.5  113.36
 21.8296  12951  112.863
 21.8716  12963.4  113.151
 21.9136  13151.5  114.169
 21.9556  12954  112.977
 21.9976  12969.6  113.061
 22.0396  12825.3  112.687
 22.0816  13073.2  114.316
 22.1236  13089.2  113.83
 22.1656  13133.9  114.151
 22.2076  13074.4  113.367
 22.2496  12961.5  112.905
 22.2916  12950.9  112.735
 22.3336  13011.5  113.739
 22.3756  12985.4  113.34
 22.4176  12857.4  112.632
 22.4596  12655.6  112.333
 22.5016  12855.6  112.706
 22.5436  12929.8  112.909
 22.5856  12890.4  112.991
 22.6276  12878.7  113.083
 22.6696  12913.9  113.589
 22.7116  12789  112.549
 22.7536  12840.1  112.745
 22.7956  12883.2  112.267
 22.8376  12979.8  113.206
 22.8796  12770.5  112.094
 22.9216  12932.9  113.357
 22.9636  12929  112.477
 23.0056  12818.3  112.136
 23.0476  13013.7  113.566
 23.0896  13005.8  112.899
 23.1316  13077.4  113.651
 23.1736  12826.1  115.54
 23.2156  13023.5  113.749
 23.2576  12949.1  113.556
 23.2996  12951.4  113.349
 23.3416  12887.5  113.583
 23.3836  13019  113.389
 23.4256  13087.5  113.803
 23.4676  13006.1  113.147
 23.5096  12856.8  113.179
 23.5516  12814.6  112.27
 23.5936  12679.7  112.583
 23.6356  12974.4  113.545
 23.6776  12916.6  113.504
 23.7196  12697.4  112.118
 23.7616  13043.3  113.548
 23.8036  12931.8  113.101
 23.8456  12901.2  112.535
 23.8876  12551.2  111.342
 23.9296  12550.5  111.841
 23.9716  12725.3  111.796
 24.0136  12564.9  111.998
 24.0556  12464  111.277
 24.0976  12262.4  110.183
 24.1396  12518.7  114.019
 24.1816  12518.5  112.416
 24.2236  12317.7  111.122
 24.2656  12283.2  110.435
 24.3076  12092.7  109.813
 24.3496  12212  110.259
 24.3916  12129.1  109.934
 24.4336  12138.7  110.184
 24.4756  12070.6  109.74
 24.5176  11980  108.98
 24.5596  11887.7  108.686
 24.6016  11749.2  108.338
 24.6436  11959.3  108.783
 24.6856  11984.2  108.659
 24.7276  11781.5  108.055
 24.7696  11579.8  107.232
 24.8116  11712.3  108.025
 24.8536  11657.1  107.768
 24.8956  11661  107.529
 24.9376  11607.8  107.22
 24.9796  11465.3  106.916
 25.0216  11252.8  106.025
 25.0636  11377.2  106.266
 25.1056  11252.2  106.384
 25.1476  11509.5  109.275
 25.1896  11488.1  107.634
 25.2316  11535.3  107.116
 25.2736  11381.8  106.056
 25.3156  11311.6  105.803
 25.3576  11359.5  106.449
 25.3996  11367.5  106.46
 25.4416  11441.8  106.799
 25.4836  11141.3  105.915
 25.5256  11232.6  105.706
 25.5676  11334.1  105.914
 25.6096  11092.4  105.349
 25.6516  11341.7  106.023
 25.6936  11121.8  105.303
 25.7356  11199.3  105.804
 25.7776  11257.2  105.677
 25.8196  11096.9  105.163
 25.8616  11126.1  105.217
 25.9036  11231.2  105.181
 25.9456  11134.9  105.331
 25.9876  10994.1  104.725
 26.0296  11206.1  105.242
 26.0716  11035.4  104.856
 26.1136  11166.7  105.422
 26.1556  11179.5  104.847
 26.1976  11058  105.216
 26.2396  11049.7  104.325
 26.2816  11142.5  105.38
 26.3236  11066.1  105.181
 26.3656  10939.7  104.303
 26.4076  11048.2  105.029
 26.4496  11621.6  107.152
 26.4916  11247.7  105.463
 26.5336  11007.8  104.655
 26.5756  11276.8  105.792
 26.6176  11144.9  105.218
 26.6596  11093.5  105.287
 26.7016  10959  104.402
 26.7436  10740.2  103.488
 26.7856  10762  103.573
 26.8276  10783.3  103.626
 26.8696  10966.9  104.385
 26.9116  10670.7  102.894
 26.9536  10729.8  103.233
 26.9956  10751.1  103.373
 27.0376  10624.4  102.97
 27.0796  10672.1  102.941
 27.1216  10548.1  102.413
 27.1636  10601  102.834
 27.2056  10449.9  101.982
 27.2476  10605.9  102.743
 27.2896  10654.8  103.092
 27.3316  10578.6  102.434
 27.3736  10585.5  102.735
 27.4156  10458.7  101.951
 27.4576  10470.5  102.248
 27.4996  10481.7  101.896
 27.5416  10483.5  102.223
 27.5836  10511.5  102.179
 27.6256  10817.3  103.782
 27.6676  10706.5  103.306
 27.7096  10342.3  101.4
 27.7516  10362.7  101.654
 27.7936  10325.7  101.638
 27.8356  10338.8  101.326
 27.8776  10288.4  101.124
 27.9196  10233.9  100.709
 27.9616  10417.5  101.794
 28.0036  10231.6  100.858
 28.0456  10256.8  101.112
 28.0876  10161.8  100.732
 28.1296  10097.7  100.259
 28.1716  10146.9  100.51
 28.2136  10319.3  101.326
 28.2556  10063.1  100.175
 28.2976  10147.8  100.589
 28.3396  10227.1  100.736
 28.3816  10218.9  100.718
 28.4236  10185.1  100.707
 28.4656  10041.8  100.031
 28.5076  10026.3  99.5877
 28.5496  10039.2  99.9145
 28.5916  10123.2  100.138
 28.6336  9916.79  99.4548
 28.6756  9990.5  99.0231
 28.7176  10081.5  100.024
 28.7596  9867.51  98.8566
 28.8016  9997.9  99.5454
 28.8436  9822.61  98.9079
 28.8856  9966.27  99.4764
 28.9276  10063.2  100.208
 28.9696  9862.1  98.8546
 29.0116  9979.02  99.6309
 29.0536  9810.03  98.9814
 29.0956  9929.66  99.3001
 29.1376  9884.85  99.0413
 29.1796  9799.03  98.6559
 29.2216  9864.84  98.8271
 29.2636  9789.77  98.5264
 29.3056  9791.81  98.3269
 29.3476  9802.25  98.9024
 29.3896  9774.16  98.849
 29.4316  9995.83  99.3036
 29.4736  9877.24  98.7758
 29.5156  10001  99.3135
 29.5576  9846.36  99.2908
 29.5996  9902.38  98.8218
 29.6416  9806.65  98.458
 29.6836  9875.28  98.7334
 29.7256  9816.02  99.0081
 29.7676  9844.53  98.8
 29.8096  9840.52  98.7307
 29.8516  9735.09  98.5294
 29.8936  9795.65  98.936
 29.9356  9915.72  99.291
 29.9776  9664.91  98.1817
 30.0196  9660.29  97.5435
 30.0616  9653.75  97.8862
 30.1036  9717.3  98.0293
 30.1456  9818.36  98.7728
 30.1876  9625.92  97.783
 30.2296  9590.09  97.5443
 30.2716  9768.57  98.0845
 30.3136  9735.42  98.7835
 30.3556  9722.13  98.7307
 30.3976  9559.58  99.433
 30.4396  9734.73  97.6405
 30.4816  9731.15  97.2112
 30.5236  9603.11  96.5987
 30.5656  9534.47  96.8986
 30.6076  9563.34  96.4726
 30.6496  9531.95  96.7045
 30.6916  9556.76  96.9196
 30.7336  9423.16  96.3942
 30.7756  9400.57  96.366
 30.8176  9493.85  96.7615
 30.8596  9584.19  96.9793
 30.9016  9570.27  97.265
 30.9436  9648.68  97.4136
 30.9856  9550.46  97.0221
 31.0276  9557.39  96.659
 31.0696  9493.13  96.9196
 31.1116  9542.03  97.1438
 31.1536  9541.67  97.0206
 31.1956  9445.01  96.6186
 31.2376  9447.43  96.6407
 31.2796  9552.17  96.7076
 31.3216  9508.57  96.4286
 31.3636  9588.32  97.5376
 31.4056  9499.74  98.4258
 31.4476  9392.57  95.7375
 31.4896  9357.89  96.0686
 31.5316  9406.45  95.7083
 31.5736  9548.51  96.246
 31.6156  9399.42  95.5162
 31.6576  9473.66  95.9874
 31.6996  9438.41  95.4839
 31.7416  9221.69  95.439
 31.7836  9331.81  95.0164
 31.8256  9215.83  94.6913
 31.8676  9340.81  95.3345
 31.9096  9299.76  95.4816
 31.9516  9132.62  94.7795
 31.9936  9122.8  94.5522
 32.0356  9133.45  94.6794
 32.0776  9366.07  95.7579
 32.1196  9294.99  95.4883
 32.1616  9307.63  95.0034
 32.2036  9091.75  94.4006
 32.2456  9182.41  95.2583
 32.2876  9295.01  95.3262
 32.3296  9111.75  94.3515
 32.3716  9154.34  94.671
 32.4136  9208.23  95.1632
 32.4556  9256.67  94.7931
 32.4976  9244.93  94.6385
 32.5396  9257.83  94.7748
 32.5816  9095.83  94.0633
 32.6236  9329.97  95.3435
 32.6656  9330.51  95.8892
 32.7076  9155.67  94.6384
 32.7496  9026.79  93.6408
 32.7916  9207.7  94.5281
 32.8336  9121.33  94.1858
 32.8756  9192.69  94.2655
 32.9176  8919.15  93.3406
 32.9596  9069.49  94.1963
 33.0016  9168.42  94.5002
 33.0436  9085.87  94.2461
 33.0856  9084.51  94.3102
 33.1276  9018.28  93.6956
 33.1696  9101.17  93.9715
 33.2116  9150.96  94.4493
 33.2536  8999.58  93.6733
 33.2956  9037.09  93.9481
 33.3376  8964.91  93.3128
 33.3796  9032.43  93.8715
 33.4216  9099.91  93.8051
 33.4636  9147.94  94.2112
 33.5056  8928.63  93.3197
 33.5476  8885.93  93.0838
 33.5896  9200.87  94.4939
 33.6316  8936.24  93.4426
 33.6736  8855.72  93.2586
 33.7156  8884.24  93.458
 33.7576  9148.03  94.4544
 33.7996  9133.13  94.1331
 33.8416  8818.64  92.6801
 33.8836  8918.15  92.9883
 33.9256  8894.91  92.9267
 33.9676  8963.74  93.1825
 34.0096  8814.98  92.7232
 34.0516  8857.46  92.5809
 34.0936  8836.57  92.7321
 34.1356  8918.54  92.9069
 34.1776  8869.19  92.6574
 34.2196  8824.53  92.6063
 34.2616  8693.7  92.0531
 34.3036  8677.55  92.2157
 34.3456  8742.83  92.3188
 34.3876  8892.86  93.0686
 34.4296  8775.08  92.1345
 34.4716  8872.69  92.8058
 34.5136  8717.83  92.1873
 34.5556  8803.73  92.8948
 34.5976  8727.07  92.301
 34.6396  8765.48  92.2128
 34.6816  8717.73  92.0693
 34.7236  8746.56  92.0091
 34.7656  8737.34  92.1552
 34.8076  8645.31  91.9838
 34.8496  8688.26  92.075
 34.8916  8708.01  92.051
 34.9336  8721.83  92.089
 34.9756  8681.34  91.7951
 35.0176  8769.05  92.7992
 35.0596  8720.01  92.3511
 35.1016  8636.04  91.6757
 35.1436  8815.97  92.3124
 35.1856  8667.39  91.6598
 35.2276  8780.19  92.4339
 35.2696  8804.03  92.7467
 35.3116  8656.45  92.0632
 35.3536  8657.67  91.7777
 35.3956  8652.51  91.4603
 35.4376  8616.14  91.8259
 35.4796  8790.67  92.8089
 35.5216  8588.52  91.6945
 35.5636  8394.78  91.4006
 35.6056  8627.42  91.6656
 35.6476  8575.88  91.2823
 35.6896  8617.66  91.6023
 35.7316  8533.49  91.1229
 35.7736  8679.99  92.1032
 35.8156  8465.15  90.9531
 35.8576  8523.67  91.5184
 35.8996  8652.54  92.1719
 35.9416  8568.5  91.222
 35.9836  8509.14  91.2545
 36.0256  8657.59  92.0711
 36.0676  8593.2  91.4894
 36.1096  8572.9  91.516
 36.1516  8507.99  91.0577
 36.1936  8525.44  90.9995
 36.2356  8383.8  90.8796
 36.2776  8492.57  90.9439
 36.3196  8452.27  90.3989
 36.3616  8531.72  90.9546
 36.4036  8526.38  90.9822
 36.4456  8481.23  90.9568
 36.4876  8467.28  90.8191
 36.5296  8477.3  90.9141
 36.5716  8435.06  91.4721
 36.6136  8512.59  90.6548
 36.6556  8538.34  90.9917
 36.6976  8386.59  90.6829
 36.7396  8457.41  90.7936
 36.7816  8446.62  91.1127
 36.8236  8425.32  90.9255
 36.8656  8342.72  90.5449
 36.9076  8319.34  90.2973
 36.9496  8330.85  90.34
 36.9916  8349.24  90.0728
 37.0336  8517.93  91.298
 37.0756  8532.44  91.1633
 37.1176  8209.55  89.6934
 37.1596  8440.99  90.9548
 37.2016  8355.74  90.7232
 37.2436  8357.84  90.0438
 37.2856  8388.11  90.4655
 37.3276  8402.74  89.8871
 37.3696  8248.78  89.9515
 37.4116  8361.52  90.4626
 37.4536  8283.33  89.9105
 37.4956  8295.52  90.0115
 37.5376  8296.6  91.584
 37.5796  8152.39  90.7529
 37.6216  8128.26  88.874
 37.6636  8051.04  88.3578
 37.7056  8246.43  89.6166
 37.7476  8269.7  89.2763
 37.7896  8230.97  89.5675
 37.8316  8041.85  88.7059
 37.8736  8297.91  89.6202
 37.9156  8193.92  89.0632
 37.9576  8150.97  88.7258
 37.9996  8103.67  88.1735
 38.0416  8099.78  88.972
 38.0836  8419.38  90.6122
 38.1256  8186.53  89.308
 38.1676  7951.41  88.1527
 38.2096  8092.48  88.5451
 38.2516  8242.06  89.5721
 38.2936  8175.51  89.0115
 38.3356  8174.8  88.9141
 38.3776  8012  88.3053
 38.4196  8174.85  89.0505
 38.4616  8133.43  89.0622
 38.5036  8240.9  89.4893
 38.5456  8059.74  89.3442
 38.5876  8131.32  89.7751
 38.6296  7939.46  87.6861
 38.6716  8026.99  87.9596
 38.7136  8033.07  87.9362
 38.7556  7959.65  88.0367
 38.7976  8043.3  88.4386
 38.8396  7916.33  88.1893
 38.8816  7905.2  87.9022
 38.9236  7927.11  87.8322
 38.9656  8010.15  88.2124
 39.0076  7957.6  87.3289
 39.0496  8086.29  88.5708
 39.0916  7918.17  87.2883
 39.1336  8017.38  88.259
 39.1756  7859.49  87.4534
 39.2176  8033.67  88.9543
 39.2596  8005.33  88.7169
 39.3016  7932.8  87.8796
 39.3436  7909.67  88.1833
 39.3856  7929.03  87.7392
 39.4276  8028.56  88.78
 39.4696  8032.6  88.4332
 39.5116  7955.04  88.5192
 39.5536  8193.07  90.2651
 39.5956  8092.97  88.799
 39.6376  8061.12  88.6291
 39.6796  8050.34  88.3102
 39.7216  8128.17  88.8371
 39.7636  8109.09  89.3078
 39.8056  8086.92  88.9585
 39.8476  7904.77  88.2108
 39.8896  8041.32  88.5904
 39.9316  8006.61  88.6573
 39.9736  8165.63  89.0997
 40.0156  8029.49  88.1755
 40.0576  8115.85  89.0096
 40.0996  8021.99  87.6759
 40.1416  8099.84  88.8998
 40.1836  8060.94  88.5776
 40.2256  8050.85  88.5689
 40.2676  8083.73  88.8532
 40.3096  8156.54  89.1818
 40.3516  8166.93  89.3448
 40.3936  8268.6  89.4502
 40.4356  8091.81  88.6893
 40.4776  8161  89.4829
 40.5196  8125.24  89.4082
 40.5616  8109.21  88.9633
 40.6036  8049.5  88.8877
 40.6456  8249.64  89.5864
 40.6876  8096.92  88.7386
 40.7296  8110.63  88.9575
 40.7716  8147.19  89.2901
 40.8136  8007.89  88.4668
 40.8556  8188.6  89.592
 40.8976  8156.34  89.3318
 40.9396  8078.86  89.2633
 40.9816  8199.74  89.2041
 41.0236  8111.1  88.4933
 41.0656  8156.79  89.2905
 41.1076  8208.13  89.3387
 41.1496  8168.92  89.0361
 41.1916  8037.64  88.6431
 41.2336  8096.13  88.9562
 41.2756  8084.45  88.487
 41.3176  8077.05  89.0691
 41.3596  8097.56  88.9064
 41.4016  8110.4  89.2453
 41.4436  8248.15  89.7821
 41.4856  8175.58  89.5508
 41.5276  8024.46  88.7373
 41.5696  7965.03  88.0388
 41.6116  8032.37  88.8063
 41.6536  8113.55  89.1136
 41.6956  8060.4  88.8736
 41.7376  8020.18  88.6822
 41.7796  8024.31  88.586
 41.8216  8134.97  89.4344
 41.8636  8154.65  89.4775
 41.9056  7950.03  88.1382
 41.9476  8008.21  88.7006
 41.9896  8073.31  88.7184
 42.0316  8140.25  89.1717
 42.0736  8038.53  88.7204
 42.1156  7962.43  88.14
 42.1576  8063.01  88.7893
 42.1996  8065.38  88.9524
 42.2416  8066.19  88.5339
 42.2836  7938.94  87.9448
 42.3256  7922.46  87.9683
 42.3676  8021.86  88.3225
 42.4096  7988.2  88.0998
 42.4516  7993.38  88.216
 42.4936  7897.15  87.7537
 42.5356  7979.66  88.3415
 42.5776  7985.87  88.3191
 42.6196  8009.16  88.5029
 42.6616  7801.05  87.5148
 42.7036  7965.89  87.8137
 42.7456  7909.25  87.8602
 42.7876  7935.74  88.1059
 42.8296  7993.43  88.2513
 42.8716  7821.05  87.4603
 42.9136  7874.64  87.5485
 42.9556  7992.04  88.3337
 42.9976  7997.82  88.3293
 43.0396  7897  87.4986
 43.0816  7937.24  88.1035
 43.1236  7857.8  87.7192
 43.1656  7953.39  88.0803
 43.2076  7813.56  87.4031
 43.2496  7897.7  87.6881
 43.2916  7820.43  87.6252
 43.3336  7861.71  87.6906
 43.3756  7878.3  87.5312
 43.4176  7756.53  86.9422
 43.4596  7863.28  87.3896
 43.5016  7795.38  87.4168
 43.5436  7867.25  87.7241
 43.5856  7796.69  87.354
 43.6276  7736.94  86.9092
 43.6696  7792.49  87.4839
 43.7116  7923.19  87.706
 43.7536  7873.14  87.9193
 43.7956  7670.76  87.9799
 43.8376  7781.49  87.136
 43.8796  7692.99  86.7257
 43.9216  7722.37  86.8097
 43.9636  7770.88  87.1855
 44.0056  7848.18  87.8568
 44.0476  7701.41  86.6577
 44.0896  7701.31  87.0052
 44.1316  7835.07  87.2688
 44.1736  7696.27  86.6224
 44.2156  7756.95  86.8206
 44.2576  7725.03  86.9647
 44.2996  7680.73  86.6862
 44.3416  7803.19  87.1264
 44.3836  7656.18  86.6349
 44.4256  7542.58  85.634
 44.4676  7487.67  85.48
 44.5096  7682.47  86.729
 44.5516  7748.55  87.0646
 44.5936  7515.87  85.7027
 44.6356  7679.03  86.3634
 44.6776  7663.73  86.5992
 44.7196  7628.41  86.7065
 44.7616  7538.54  87.5215
 44.8036  7552.02  86.0227
 44.8456  7601.16  86.4996
 44.8876  7580.72  86.2309
 44.9296  7702.78  86.373
 44.9716  7535.32  85.8581
 45.0136  7497.84  85.5841
 45.0556  7570.03  85.9675
 45.0976  7534.15  85.9336
 45.1396  7400.53  84.9202
 45.1816  7491.34  85.3762
 45.2236  7561.37  85.6761
 45.2656  7427.03  85.4103
 45.3076  7572.01  86.0203
 45.3496  7444.41  85.5987
 45.3916  7411.7  85.6719
 45.4336  7563.51  86.3897
 45.4756  7487.25  85.8018
 45.5176  7592.45  86.0266
 45.5596  7493.02  85.5835
 45.6016  7374.96  85.321
 45.6436  7484.54  85.1306
 45.6856  7340.81  84.9643
 45.7276  7418  86.724
 45.7696  7505.65  86.9002
 45.8116  7569.86  86.7139
 45.8536  7431.91  85.8156
 45.8956  7427.78  85.1438
 45.9376  7460.87  84.7951
 45.9796  7432.45  85.3193
 46.0216  7442.37  85.7155
 46.0636  7651.6  86.0433
 46.1056  7485.24  85.0922
 46.1476  7520.37  85.8899
 46.1896  7540.47  86.1525
 46.2316  7359.76  84.9902
 46.2736  7257.02  84.7569
 46.3156  7443.07  85.4212
 46.3576  7387.08  85.3012
 46.3996  7338.32  85.1793
 46.4416  7381.99  85.0092
 46.4836  7376.5  85.3354
 46.5256  7392.25  85.3597
 46.5676  7350.54  85.2318
 46.6096  7363.02  85.2334
 46.6516  7531.68  85.2486
 46.6936  7395.51  84.9637
 46.7356  7443.11  85.3437
 46.7776  7308.14  85.4047
 46.8196  7202.84  84.3868
 46.8616  7148.61  84.0117
 46.9036  7163.09  83.757
 46.9456  7184.84  83.5325
 46.9876  7251.4  83.9998
 47.0296  7165.45  84.1797
 47.0716  7234.27  84.4095
 47.1136  7197.24  83.8738
 47.1556  7268.63  84.1586
 47.1976  7362.72  84.7791
 47.2396  7206.56  84.2742
 47.2816  7172.98  83.7789
 47.3236  7235.54  84.5096
 47.3656  7261.45  84.5944
 47.4076  7139.43  83.6821
 47.4496  7162.29  83.9138
 47.4916  7167.45  84.1259
 47.5336  7281.88  84.6181
 47.5756  7190.36  84.2002
 47.6176  7112.68  83.6459
 47.6596  7136.45  83.5013
 47.7016  7265.47  84.0698
 47.7436  7283  84.504
 47.7856  7281.34  84.5145
 47.8276  7151.32  83.8111
 47.8696  7159.53  83.9393
 47.9116  7264.9  84.275
 47.9536  7113.98  83.3322
 47.9956  7062.65  83.737
 48.0376  7087.27  83.6573
 48.0796  7178.8  84.3271
 48.1216  7251.02  84.5662
 48.1636  7320.24  84.541
 48.2056  7073.1  83.3635
 48.2476  7268.91  84.8188
 48.2896  7064.01  83.5253
 48.3316  7110.21  83.7367
 48.3736  7104.86  83.7313
 48.4156  7004.8  82.9961
 48.4576  7049.13  83.5456
 48.4996  7182.84  83.7913
 48.5416  7231.1  84.3995
 48.5836  7091.42  83.263
 48.6256  7056.15  83.256
 48.6676  7117.06  84.1244
 48.7096  7111.43  83.3626
 48.7516  7031.5  83.041
 48.7936  6947.08  82.6039
 48.8356  7166.41  83.9486
 48.8776  7071.58  83.9553
 48.9196  7196.92  84.0694
 48.9616  6915.11  82.7875
 49.0036  7060.16  83.9885
 49.0456  6950.03  83.3086
 49.0876  7063.41  83.5261
 49.1296  6950.28  83.0205
 49.1716  6873.91  82.4361
 49.2136  7057.05  83.4379
 49.2556  7043.87  83.4026
 49.2976  6991.06  83.1613
 49.3396  6887.63  82.6014
 49.3816  7083.66  83.1951
 49.4236  6966.5  82.9237
 49.4656  6916.35  82.6449
 49.5076  7004.04  82.9188
 49.5496  6931.04  82.551
 49.5916  7045.77  83.1397
 49.6336  6949.93  82.7769
 49.6756  6989.15  83.2398
 49.7176  6965.39  83.0443
 49.7596  6995.52  82.9897
 49.8016  7091.16  83.4809
 49.8436  6882.38  82.5319
 49.8856  6913.9  82.719
 49.9276  6910.45  82.8091
 49.9696  6838.05  82.3529
 50.0116  6902.03  82.8735
 50.0536  6860.71  82.5696
 50.0956  6809.46  82.3326
 50.1376  6895.92  82.5544
 50.1796  6907.6  82.8914
 50.2216  6838.66  82.4692
 50.2636  6867.31  82.2622
 50.3056  6839.97  82.2721
 50.3476  6833.64  82.2511
 50.3896  6843.11  82.2799
 50.4316  6754.36  81.5834
 50.4736  6707  81.5165
 50.5156  6832.49  82.2666
 50.5576  6870.13  82.2541
 50.5996  6836.41  82.3305
 50.6416  6711.61  81.5051
 50.6836  6811.37  82.1655
 50.7256  6874.64  82.48
 50.7676  6846.27  82.6204
 50.8096  6833.8  82.0795
 50.8516  6745.46  81.9644
 50.8936  6776.13  81.9324
 50.9356  6729.36  81.7512
 50.9776  6823.05  82.4685
 51.0196  6638.86  81.48
 51.0616  6683.99  81.0879
 51.1036  6690.23  81.4754
 51.1456  6747.58  81.7336
 51.1876  6775.5  81.2525
 51.2296  6663.68  81.2088
 51.2716  6680.31  81.0155
 51.3136  6721.4  81.7218
 51.3556  6745.24  81.4875
 51.3976  6627.63  80.9278
 51.4396  6572.13  80.8889
 51.4816  6640.95  81.1638
 51.5236  6707.52  81.6556
 51.5656  6657.71  80.9599
 51.6076  6643.49  80.9562
 51.6496  6667.58  81.2892
 51.6916  6625.92  81.3916
 51.7336  6695.23  81.902
 51.7756  6657.4  81.3734
 51.8176  6592.83  81.0761
 51.8596  6607.56  81.1867
 51.9016  6760.98  81.7336
 51.9436  6606.81  82.2224
 51.9856  6552.87  82.337
 52.0276  6598.69  81.1402
 52.0696  6690.8  81.7687
 52.1116  6631.12  81.5147
 52.1536  6585.89  81.1235
 52.1956  6707.86  81.3386
 52.2376  6748.04  81.755
 52.2796  6691.22  81.2159
 52.3216  6535.36  80.9584
 52.3636  6562.47  80.7043
 52.4056  6602.4  80.8042
 52.4476  6541.9  80.7995
 52.4896  6471.69  80.412
 52.5316  6461.81  80.3969
 52.5736  6604.55  81.0059
 52.6156  6601.49  81.3692
 52.6576  6621.56  80.937
 52.6996  6416.58  80.6359
 52.7416  6581.88  81.5185
 52.7836  6510.16  80.9603
 52.8256  6666.27  81.1435
 52.8676  6420.06  80.1992
 52.9096  6496.16  80.7605
 52.9516  6635.91  81.999
 52.9936  6480.85  81.4243
 53.0356  6453.25  80.2598
 53.0776  6446.38  80.4754
 53.1196  6432.94  80.5155
 53.1616  6383.25  80.2522
 53.2036  6276.23  79.5394
 53.2456  6329.65  79.9761
 53.2876  6434.76  80.341
 53.3296  6404.51  80.4773
 53.3716  6489.67  80.7539
 53.4136  6505.78  81.0074
 53.4556  6311.91  79.8158
 53.4976  6256.62  79.3199
 53.5396  6404.49  80.6419
 53.5816  6446.38  80.5412
 53.6236  6212.11  79.3924
 53.6656  6377.73  80.0836
 53.7076  6504.64  80.8343
 53.7496  6479.98  80.8004
 53.7916  6583.75  81.5711
 53.8336  6284.3  79.5962
 53.8756  6196.19  79.579
 53.9176  6418.11  80.3326
 53.9596  6463.71  81.3889
 54.0016  6366.43  80.1084
 54.0436  6352.64  80.2329
 54.0856  6449.55  80.2695
 54.1276  6316.42  79.6353
 54.1696  6391.55  80.2797
 54.2116  6424.01  80.24
 54.2536  6476.08  80.3787
 54.2956  6315.88  79.4223
 54.3376  6302.73  79.821
 54.3796  6368.71  80.1404
 54.4216  6457.02  80.7327
 54.4636  6362.58  80.1094
 54.5056  6365.44  79.9428
 54.5476  6308.33  79.9152
 54.5896  6342.46  79.9672
 54.6316  6425.02  80.3425
 54.6736  6428.06  80.4381
 54.7156  6368.11  80.082
 54.7576  6336.74  79.8842
 54.7996  6349.97  80.0986
 54.8416  6401.99  80.4785
 54.8836  6261.81  79.7041
 54.9256  6434.69  80.5418
 54.9676  6415.75  80.2802
 55.0096  6347.52  79.9232
 55.0516  6328.75  80.0371
 55.0936  6332.45  79.6865
 55.1356  6270.69  79.3488
 55.1776  6340.37  80.053
 55.2196  6320.27  79.7074
 55.2616  6312.57  79.8688
 55.3036  6205.59  79.352
 55.3456  6310.7  80.1642
 55.3876  6321.78  79.9846
 55.4296  6293  79.7788
 55.4716  6321.04  79.9921
 55.5136  6371.79  80.0644
 55.5556  6295.35  79.6563
 55.5976  6351.43  80.0631
 55.6396  6254.36  79.3951
 55.6816  6242.68  79.2039
 55.7236  6256.59  79.334
 55.7656  6264.38  79.1411
 55.8076  6374.03  79.8134
 55.8496  6231.81  79.2383
 55.8916  6272.75  79.7059
 55.9336  6344.87  79.9729
 55.9756  6212.26  79.0235
 56.0176  6242.82  79.3707
 56.0596  6372.66  80.1783
 56.1016  6368.75  80.1611
 56.1436  6224.34  79.5011
 56.1856  6274.26  79.5667
 56.2276  6289.26  79.7141
 56.2696  6270.22  79.5724
 56.3116  6160.22  79.2714
 56.3536  6276.54  79.675
 56.3956  6268.24  79.6135
 56.4376  6213.28  79.2966
 56.4796  6313.39  79.7311
 56.5216  6222.56  79.5291
 56.5636  6246.14  79.2707
 56.6056  6166.35  78.9907
 56.6476  6292.05  79.4196
 56.6896  6223.59  79.4356
 56.7316  6237.42  79.4345
 56.7736  6192.55  79.1423
 56.8156  6277.37  79.6827
 56.8576  6271.91  79.5861
 56.8996  6231.84  79.2726
 56.9416  6255.59  79.7294
 56.9836  6146.59  78.5382
 57.0256  6219.56  79.3307
 57.0676  6185.55  79.2366
 57.1096  6273.75  79.5837
 57.1516  6265.27  79.5949
 57.1936  6230.97  79.1234
 57.2356  6229.91  79.4404
 57.2776  6232.7  79.4109
 57.3196  6240.86  79.8382
 57.3616  6215.94  79.1679
 57.4036  6248.52  79.4291
 57.4456  6189.98  79.0308
 57.4876  6281.59  79.4751
 57.5296  6197.1  79.271
 57.5716  6180.56  79.1528
 57.6136  6247.59  79.4098
 57.6556  6261.58  79.6248
 57.6976  6186.66  78.9771
 57.7396  6218.51  79.5513
 57.7816  6118.41  79.2733
 57.8236  6211.97  79.6685
 57.8656  6203.05  79.2667
 57.9076  6237.43  79.5101
 57.9496  6224.79  79.7847
 57.9916  6177.63  78.9911
 58.0336  6277.02  79.9042
 58.0756  6206.67  79.0898
 58.1176  6120.94  78.5402
 58.1596  6110.47  79.0398
 58.2016  6175.8  78.679
 58.2436  6189.42  79.1833
 58.2856  6169  78.9731
 58.3276  6160.72  79.2961
 58.3696  6153.48  79.0009
 58.4116  6210.12  79.2206
 58.4536  6239.54  79.2912
 58.4956  6119.18  78.7068
 58.5376  6141.78  78.4232
 58.5796  6158.64  78.9561
 58.6216  6176.26  78.8797
 58.6636  6232.32  79.4566
 58.7056  6211.28  79.1793
 58.7476  6224.19  79.7121
 58.7896  6193.55  79.1565
 58.8316  6149.55  78.8714
 58.8736  6274.25  79.671
 58.9156  6166.34  79.0296
 58.9576  6317.34  80.3048
 58.9996  6328.1  79.6175
 59.0416  6423.66  80.5818
 59.0836  6214.83  79.1929
 59.1256  6132.6  79.3702
 59.1676  6032.83  79.0275
 59.2096  6406.35  80.7255
 59.2516  6350.22  79.9415
 59.2936  6135.58  78.9095
 59.3356  6145.89  78.8525
 59.3776  6230.58  79.5655
 59.4196  6218.81  79.4218
 59.4616  6317.56  79.9102
 59.5036  6153.25  78.9
 59.5456  6340.74  79.7788
 59.5876  6211.62  79.1561
 59.6296  6108.62  78.5667
 59.6716  6199.33  79.2066
 59.7136  6271.35  79.6534
 59.7556  6165.81  79.1182
 59.7976  6000.46  77.7931
 59.8396  6193.65  78.9285
 59.8816  6221.13  79.6559
 59.9236  6455.48  80.775
 59.9656  6167.39  79.2139
 60.0076  6211.44  78.8461
 60.0496  6250.15  79.6021
 60.0916  6362.03  79.7161
 60.1336  6019.06  78.643
 60.1756  6119.71  80.4898
 60.1996  0.0000000E+00  0.0000000E+00