File: docs/examples/opeando_xrd/IS17_D/Data/IS17_D/17_Db_f00018.xye
# /beamlines/bl04/projects/cycle2025-II/20250340211-lsimonelli/DATA/IS17_D/17_Db_f00018.xye : mythproc.py merge -s 0.006 -l 0.5 -f /beamlines/bl04/inhouse/ff/FlatField/ff_20Nov2024rod8mm60s_17keV.raw -b True -c true -o xye /beamlines/bl04/projects/cycle2025-II/20250340211-lsimonelli/DATA/IS17_D/17_Db_00018.dat
# IsMon = [6770849, 6772740, 6770498]  IsPos = [-1.5000, -2.4886, -3.4985]
# Wave = 0.4962  CalPath /beamlines/bl04/projects/cycle2025-II/20250340211-lsimonelli/DATA/Align/Si_Pos1_25keV_f00001.cal
# Date = 2025-09-23_22:43:44 Dt = 4.8000  Bin = 0.0060  <imon> = 6771362 +/- 985 (Min/Max) 6770498 / 6772740
# icurr 251.7406  mocoIn 1.7186E-05  mocoOut 0.8061  i15 7.08873e+06  imon 6.77136e+06  i7 5.3333  iEMpd_timer 4.8000  iEMpd_1 3.6003E-08  iEMpd_2 7.8565E-08  iEMpd_3 1.6642E-08  iEMpd_4 4.6710E-08  iEMhp_timer 4.8000  iEMhp_1 4.9209E-06  iEMhp_2 -2.5602E-08  iEMhp_3 -2.3391E-08  iEMhp_4 -2.0482E-08
#      9776
 1.5856  41907.5  210.216
 1.6276  48873.3  223.12
 1.6696  54649.6  235.105
 1.7116  62006.1  250.919
 1.7536  70511.1  266.435
 1.7956  74318  274.217
 1.8376  71401.5  269.208
 1.8796  60948.8  246.893
 1.9216  50214.1  224.993
 1.9636  43202.5  208.364
 2.0056  39067.2  196.875
 2.0476  36750.9  193.043
 2.0896  34951.2  187.153
 2.1316  34093.6  183.954
 2.1736  32636.6  181.408
 2.2156  32714.3  180.166
 2.2576  31749  178.124
 2.2996  30720.8  175.86
 2.3416  30885.5  174.925
 2.3836  30186.5  173.039
 2.4256  29347.6  171.174
 2.4676  29403.9  171.095
 2.5096  29617.6  171.772
 2.5516  36028.1  193.763
 2.5936  138375  372.19
 2.6356  31931.7  179.514
 2.6776  27463.4  165.401
 2.7196  26597.7  163.246
 2.7616  26416.5  162.489
 2.8036  25831.4  160.84
 2.8456  25674.2  160.982
 2.8876  25338.8  159.763
 2.9296  24719.7  157.95
 2.9716  24633.3  157.177
 3.0136  24193.2  155.829
 3.0556  24514.2  157.235
 3.0976  24404.8  155.811
 3.1396  23888  154.87
 3.1816  23607.1  153.901
 3.2236  23480.1  153.47
 3.2656  23378  152.206
 3.3076  23242.5  153.206
 3.3496  23469.3  153.126
 3.3916  23888.6  154.074
 3.4336  24205.5  155.678
 3.4756  24552.4  156.733
 3.5176  25361.1  159.064
 3.5596  24956.1  160.752
 3.6016  25210.6  158.661
 3.6436  24207.1  156.555
 3.6856  24040.3  154.351
 3.7276  22973.4  151.936
 3.7696  23023  151.692
 3.8116  22549.5  150.611
 3.8536  22709.1  151.073
 3.8956  22707.5  150.898
 3.9376  23067  152.388
 3.9796  22392.3  149.609
 4.0216  22433.2  148.793
 4.0636  22329.1  149.896
 4.1056  22312.4  149.494
 4.1476  22880  151.687
 4.1896  22788.2  151.246
 4.2316  23000.8  151.603
 4.2736  23263  152.445
 4.3156  23364.7  153.008
 4.3576  24418.6  156.307
 4.3996  24552.4  156.828
 4.4416  25147.8  158.505
 4.4836  26417.4  162.614
 4.5256  26391.6  163.144
 4.5676  25814.7  161.598
 4.6096  26384.3  162.409
 4.6516  27092.4  163.901
 4.6936  27154.1  164.919
 4.7356  27983.3  167.239
 4.7776  27139.5  164.528
 4.8196  26958.6  164.613
 4.8616  26137.7  161.724
 4.9036  26165.3  161.412
 4.9456  26285.9  162.431
 4.9876  25373.9  159.489
 5.0296  25473.3  159.649
 5.0716  25272.9  159.622
 5.1136  25589.3  160.48
 5.1556  25900.4  160.918
 5.1976  35039.1  187.139
 5.2396  26890  163.656
 5.2816  26361.2  162.499
 5.3236  26303.4  162.018
 5.3656  25799.9  161.377
 5.4076  25452.8  160.427
 5.4496  25484.2  160.032
 5.4916  25714.7  160.506
 5.5336  25517.7  159.985
 5.5756  25660.7  160.36
 5.6176  25716  159.993
 5.6596  26069.2  161.901
 5.7016  25833.1  160.595
 5.7436  26042.4  161.286
 5.7856  26068.5  161.665
 5.8276  26116.7  161.533
 5.8696  26598.4  163.075
 5.9116  26109.5  162.237
 5.9536  26586.7  163.485
 5.9956  26609.3  162.962
 6.0376  26810.3  164.184
 6.0796  27237.4  165.314
 6.1216  26825.9  164.258
 6.1636  27246.9  164.617
 6.2056  27009.4  164.563
 6.2476  27580.7  165.988
 6.2896  27692.8  166.187
 6.3316  27745.1  166.516
 6.3736  27625.7  166.051
 6.4156  27723.7  166.292
 6.4576  28014.7  166.734
 6.4996  27952.9  167.014
 6.5416  27958.6  167.16
 6.5836  28346.7  168.505
 6.6256  28104.4  167.395
 6.6676  28698.5  168.729
 6.7096  28692.9  169.558
 6.7516  29134.8  170.523
 6.7936  30263.5  173.144
 6.8356  30784  174.776
 6.8776  30027.5  173.413
 6.9196  29633.5  172.665
 6.9616  29798.4  172.714
 7.0036  30331.3  173.797
 7.0456  30476.5  173.523
 7.0876  30584.7  175.404
 7.1296  30211.4  173.566
 7.1716  30208.8  173.479
 7.2136  29969.9  172.203
 7.2556  30269.1  173.223
 7.2976  30294.9  173.774
 7.3396  30342.1  174.371
 7.3816  30033.7  173.456
 7.4236  30455.2  173.973
 7.4656  30575.9  173.786
 7.5076  30905  174.872
 7.5496  30463.7  174.151
 7.5916  30788.8  175.117
 7.6336  31596.2  177.286
 7.6756  31268.4  176.21
 7.7176  31743.8  177.868
 7.7596  31676.2  178.873
 7.8016  37421.3  196.8
 7.8436  31993.7  178.688
 7.8856  32029.3  178.4
 7.9276  32492.7  180.085
 7.9696  32722.6  181.018
 8.0116  33711.3  182.59
 8.0536  34447.9  184.538
 8.0956  36459.1  191.039
 8.1376  34665.5  185.765
 8.1796  34620.4  186.166
 8.2216  35605.1  187.56
 8.2636  36274.8  189.566
 8.3056  35672.7  188.745
 8.3476  37434.3  192.669
 8.3896  36585.5  191.002
 8.4316  36036.4  189.28
 8.4736  35879.7  188.352
 8.5156  35481.6  187.573
 8.5576  35402  188.307
 8.5996  35098.3  186.408
 8.6416  35078.3  187.574
 8.6836  34931.1  187.03
 8.7256  35665.5  188.24
 8.7676  38466.9  198.689
 8.8096  38596.6  196.265
 8.8516  36537.2  190.587
 8.8936  37866.1  193.91
 8.9356  36058.4  189.554
 8.9776  35625.4  188.496
 9.0196  35546.6  187.962
 9.0616  35561.6  187.512
 9.1036  37019.6  192.5
 9.1456  34787.7  185.951
 9.1876  34542.5  185.226
 9.2296  34170  183.691
 9.2716  33778.7  182.663
 9.3136  33525.7  182.11
 9.3556  34538.8  184.672
 9.3976  33192.6  181.553
 9.4396  33024.9  181.006
 9.4816  32993.8  180.777
 9.5236  32721.7  179.937
 9.5656  32392.5  179.374
 9.6076  31978.9  178.81
 9.6496  32043.6  178.803
 9.6916  31448.8  177.091
 9.7336  32093.8  178.691
 9.7756  31867  179.242
 9.8176  31673.5  178.249
 9.8596  31544.7  176.368
 9.9016  31236.8  175.484
 9.9436  30790.7  173.974
 9.9856  31500.7  176.42
 10.0276  30322.5  174.137
 10.0696  30933.5  174.922
 10.1116  29970.5  172.448
 10.1536  29947.9  172.053
 10.1956  29006.6  169.428
 10.2376  29063.9  169.117
 10.2796  29079.6  169.258
 10.3216  28513  167.732
 10.3636  28538.1  167.984
 10.4056  31678.1  177.409
 10.4476  32235.9  178.555
 10.4896  36430.5  189.189
 10.5316  33537.4  181.947
 10.5736  28674.4  168.989
 10.6156  28453  168.084
 10.6576  33939.3  182.023
 10.6996  28027.2  166.239
 10.7416  27331.6  164.25
 10.7836  28163.2  167.4
 10.8256  26121.2  161.639
 10.8676  26043.8  161.267
 10.9096  26371.2  161.999
 10.9516  25724.3  158.972
 10.9936  26712.4  162.205
 11.0356  26290.7  161.513
 11.0776  27728.7  165.253
 11.1196  27413.9  165.037
 11.1616  25434.3  158.636
 11.2036  26987.8  163.263
 11.2456  28755.3  169.751
 11.2876  25251.3  158.348
 11.3296  25234.1  158.208
 11.3716  25463.2  158.662
 11.4136  25078  158.283
 11.4556  25064.9  157.894
 11.4976  26721.2  162.024
 11.5396  27377  164.34
 11.5816  25661.1  159.364
 11.6236  24702.2  156.806
 11.6656  24774  155.994
 11.7076  24243.1  155.126
 11.7496  24431.7  159.681
 11.7916  24560.3  155.395
 11.8336  23406.9  152.597
 11.8756  24098.8  154.365
 11.9176  23488.4  152.323
 11.9596  23651.5  152.777
 12.0016  23213  152.109
 12.0436  23147.2  151.357
 12.0856  22910.8  151.066
 12.1276  22866.6  150.875
 12.1696  22928.9  150.214
 12.2116  23406.2  151.773
 12.2536  26063.9  160.987
 12.2956  23344.9  151.723
 12.3376  23568.8  152.659
 12.3796  23024.3  151.361
 12.4216  23289.5  151.439
 12.4636  24120.1  155.059
 12.5056  22907.8  150.273
 12.5476  22812.4  149.605
 12.5896  22503.8  149.217
 12.6316  22567.7  149.567
 12.6736  22496.7  149.674
 12.7156  22985.4  151.275
 12.7576  22674.6  150.486
 12.7996  23080  150.495
 12.8416  23061.5  151.481
 12.8836  23961.6  154.205
 12.9256  23448.3  151.615
 12.9676  23289.8  151.495
 13.0096  23091.7  151.945
 13.0516  23153.5  151.2
 13.0936  23096  151.136
 13.1356  23701.5  152.359
 13.1776  23331.4  151.989
 13.2196  23274.1  151.619
 13.2616  22935.8  150.829
 13.3036  23311.7  152.187
 13.3456  22918.6  150.867
 13.3876  23766.5  153.135
 13.4296  23172.3  151.364
 13.4716  23567  152.282
 13.5136  23394.8  151.845
 13.5556  23489.3  152.775
 13.5976  23463.6  152.858
 13.6396  23621.6  152.736
 13.6816  23583.9  152.966
 13.7236  23782.6  153.579
 13.7656  25744.1  159.952
 13.8076  27322.1  163.422
 13.8496  25071.2  157.377
 13.8916  23981.4  154.865
 13.9336  22921.7  150.7
 13.9756  23093.2  150.66
 14.0176  22711.2  150.126
 14.0596  23784.6  153.499
 14.1016  22853  150.891
 14.1436  22529.5  148.966
 14.1856  22200  148.165
 14.2276  22452.1  149.465
 14.2696  22606.5  149.842
 14.3116  21700.1  146.718
 14.3536  21478.7  146.126
 14.3956  21432.7  145.968
 14.4376  21761.9  146.604
 14.4796  21233.7  144.817
 14.5216  21054.3  144.978
 14.5636  21564.7  146.295
 14.6056  21197.6  144.327
 14.6476  20901.4  142.86
 14.6896  20523.1  142.092
 14.7316  20325.8  142.418
 14.7736  20210.5  141.216
 14.8156  20061.5  140.672
 14.8576  20002.8  140.321
 14.8996  19912.1  141.186
 14.9416  19271.2  138.912
 14.9836  19390.9  139.326
 15.0256  18819.8  136.197
 15.0676  18717.2  136.129
 15.1096  18565.5  135.325
 15.1516  18215.7  134.57
 15.1936  18196.8  133.959
 15.2356  18446.2  135.145
 15.2776  18237.6  133.978
 15.3196  17768  133.203
 15.3616  17587  132.295
 15.4036  17699.1  132.569
 15.4456  17935  132.899
 15.4876  17576.8  131.472
 15.5296  17290.6  130.669
 15.5716  17049.7  129.377
 15.6136  17059.9  129.723
 15.6556  19111.7  136.536
 15.6976  17543.3  130.889
 15.7396  17218.8  130.268
 15.7816  17114.7  129.394
 15.8236  16693.6  128.467
 15.8656  16777.3  128.584
 15.9076  16907.4  128.905
 15.9496  17951.6  135.649
 15.9916  16550.6  131.113
 16.0336  17202.8  130.081
 16.0756  16920.2  129.354
 16.1176  16422.5  127.354
 16.1596  16181.5  127.705
 16.2016  16146  126.372
 16.2436  16217.9  127.029
 16.2856  16104.6  126.11
 16.3276  15746  125.125
 16.3696  16019  126.023
 16.4116  15846  125.779
 16.4536  16119.8  126.669
 16.4956  16951.7  129.634
 16.5376  16103.7  126.539
 16.5796  15935.3  125.247
 16.6216  15749.9  124.765
 16.6636  15659.6  124.61
 16.7056  15815.9  125.078
 16.7476  15725.9  124.412
 16.7896  15692.4  124.865
 16.8316  15591.9  124.447
 16.8736  16167.4  126.972
 16.9156  16174.9  127.331
 16.9576  15568.1  125.682
 16.9996  15783.4  127.028
 17.0416  15577.5  124.792
 17.0836  15585  124.399
 17.1256  15589  124.427
 17.1676  16005.6  126.036
 17.2096  15809.9  125.166
 17.2516  15569.7  124.295
 17.2936  15116.4  122.521
 17.3356  14840.9  121.287
 17.3776  14767  121.263
 17.4196  14826.4  121.214
 17.4616  15023.6  121.925
 17.5036  15492.4  124.157
 17.5456  14587  121.119
 17.5876  14633.3  120.372
 17.6296  14860.5  121.114
 17.6716  14945.9  122.063
 17.7136  15350.1  123.835
 17.7556  14548.1  120.847
 17.7976  14472.4  120.138
 17.8396  14438.8  119.643
 17.8816  14111.3  118.822
 17.9236  14102.9  118.593
 17.9656  14136.8  119.385
 18.0076  14788.1  121.554
 18.0496  15234.4  122.496
 18.0916  20564.5  142.953
 18.1336  17726  132.821
 18.1756  15362.6  123.121
 18.2176  16171.6  126.631
 18.2596  14226.4  118.499
 18.3016  14839.8  121.297
 18.3436  15602  124.622
 18.3856  14702.3  120.861
 18.4276  14110.8  118.103
 18.4696  14322.4  119.075
 18.5116  14321.9  119.328
 18.5536  13880.7  117.822
 18.5956  14113.2  118.388
 18.6376  14260.3  119.402
 18.6796  13949.9  117.436
 18.7216  14114  118.676
 18.7636  13851.5  117.497
 18.8056  13457.1  115.742
 18.8476  13293.6  115.355
 18.8896  13384.2  115.387
 18.9316  13479.9  115.625
 18.9736  13492  115.539
 19.0156  14005.8  118.119
 19.0576  14054.4  117.184
 19.0996  13519.3  115.641
 19.1416  13679.5  116.711
 19.1836  13325.7  114.805
 19.2256  13133.1  114.188
 19.2676  13320.5  115.086
 19.3096  13090.2  114.325
 19.3516  13404.3  115.46
 19.3936  13473  115.901
 19.4356  13343  115.161
 19.4776  13311.4  115.118
 19.5196  13216.7  114.559
 19.5616  13288.8  115.128
 19.6036  13283.6  114.602
 19.6456  13457.5  115.479
 19.6876  13790.6  116.537
 19.7296  13336.7  115.051
 19.7716  13313.2  114.91
 19.8136  13634.4  116.69
 19.8556  13649.5  116.242
 19.8976  13907.2  117.399
 19.9396  13849.1  116.748
 19.9816  14081.8  117.858
 20.0236  14632.2  120.452
 20.0656  13692.3  116.516
 20.1076  13582.9  116.521
 20.1496  13219.7  114.945
 20.1916  13378.2  115.122
 20.2336  13356.2  114.991
 20.2756  13025.8  113.981
 20.3176  12947.2  113.393
 20.3596  12818  112.816
 20.4016  13009.6  113.448
 20.4436  12745.3  112.856
 20.4856  12898.1  113.31
 20.5276  12811.6  113.388
 20.5696  12670.2  112.328
 20.6116  12863.6  113.348
 20.6536  12550.1  111.532
 20.6956  12717.2  112.352
 20.7376  12514.2  111.653
 20.7796  12507.9  111.319
 20.8216  12594  111.584
 20.8636  13074.3  113.913
 20.9056  14022.1  117.906
 20.9476  12959.4  113.194
 20.9896  13861.4  116.922
 21.0316  12669.5  111.69
 21.0736  12904.5  113.234
 21.1156  13188.7  114.64
 21.1576  12729.4  112.654
 21.1996  12464.6  111.471
 21.2416  12643  112.095
 21.2836  12639.9  112.056
 21.3256  12580.9  111.862
 21.3676  12649.3  111.71
 21.4096  12707  112.336
 21.4516  12331.8  110.489
 21.4936  12138.6  109.722
 21.5356  12355.9  110.808
 21.5776  12440.9  111.024
 21.6196  12578  111.671
 21.6616  12600.6  111.853
 21.7036  12437.3  110.857
 21.7456  12299.7  110.366
 21.7876  12111.4  109.287
 21.8296  12083.1  109.009
 21.8716  12158.3  109.565
 21.9136  12537.1  111.458
 21.9556  12510.5  111.017
 21.9976  12111.9  109.268
 22.0396  12239.6  110.088
 22.0816  12196.6  110.416
 22.1236  12569.3  111.552
 22.1656  12159.5  109.91
 22.2076  12012.1  108.66
 22.2496  11926.2  108.295
 22.2916  11955.4  108.319
 22.3336  12027.1  109.33
 22.3756  12014.7  109.021
 22.4176  11822.6  107.998
 22.4596  11667.6  107.864
 22.5016  11994.7  108.878
 22.5436  11898.8  108.324
 22.5856  12400.9  110.826
 22.6276  12358.8  110.757
 22.6696  11875.5  108.931
 22.7116  11739.5  107.827
 22.7536  11900  108.541
 22.7956  11957.5  107.956
 22.8376  11679  107.394
 22.8796  11767  107.6
 22.9216  11867.9  108.595
 22.9636  11664.3  106.838
 23.0056  11742.7  107.325
 23.0476  11854.6  108.393
 23.0896  12157.3  109.156
 23.1316  12231.5  109.919
 23.1736  12061.5  112.037
 23.2156  12223.6  110.14
 23.2576  12324.3  110.793
 23.2996  11866.5  108.507
 23.3416  12325.2  111.098
 23.3836  11909.8  108.439
 23.4256  12336.3  110.503
 23.4676  12185.2  109.53
 23.5096  12314.5  110.755
 23.5516  12043.4  108.838
 23.5936  12292.4  110.867
 23.6356  12463.6  111.303
 23.6776  12166.1  110.495
 23.7196  12097.9  109.656
 23.7616  12135.5  109.536
 23.8036  12203.8  109.896
 23.8456  12007.1  108.572
 23.8876  11997.4  108.877
 23.9296  11821.4  108.552
 23.9716  12020.1  108.677
 24.0136  12034.2  109.629
 24.0556  11833.3  108.431
 24.0976  11794.6  108.077
 24.1396  11513.5  109.313
 24.1816  11822.4  109.552
 24.2236  11842.8  108.946
 24.2656  11898  108.665
 24.3076  11841.4  108.681
 24.3496  11968.4  109.11
 24.3916  11960.3  109.153
 24.4336  11855.4  108.879
 24.4756  11973  109.299
 24.5176  11450.9  106.509
 24.5596  11565.4  107.371
 24.6016  11435.1  106.859
 24.6436  11557.4  106.891
 24.6856  11548.8  106.655
 24.7276  11507.5  106.782
 24.7696  11330.2  106.065
 24.8116  11347.1  106.307
 24.8536  11271  105.968
 24.8956  11501.8  106.782
 24.9376  11279.4  105.922
 24.9796  11223  105.764
 25.0216  11299.6  106.241
 25.0636  11252.4  105.671
 25.1056  10972.5  104.77
 25.1476  11022.3  106.887
 25.1896  10882.3  104.749
 25.2316  10980  104.395
 25.2736  11047.8  104.476
 25.3156  10761.5  103.19
 25.3576  10696.8  103.303
 25.3996  10733.9  103.471
 25.4416  10867.9  104.087
 25.4836  10657.5  103.492
 25.5256  10791  103.601
 25.5676  10879.8  103.756
 25.6096  10606.8  103.013
 25.6516  10739.4  103.201
 25.6936  10712.1  103.347
 25.7356  10632.4  103.093
 25.7776  10719  103.193
 25.8196  10778.8  103.643
 25.8616  10522.3  102.275
 25.9036  10907.5  103.646
 25.9456  10521.3  102.382
 25.9876  10544  102.411
 26.0296  10624.5  102.553
 26.0716  10685.5  103.185
 26.1136  10805.5  103.696
 26.1556  10862.1  103.259
 26.1976  10494  102.502
 26.2396  10506.2  101.971
 26.2816  10565  102.613
 26.3236  10530.5  102.517
 26.3656  10755.5  103.414
 26.4076  10409.9  101.931
 26.4496  10685.4  102.875
 26.4916  10774.8  103.2
 26.5336  11040.6  104.809
 26.5756  11178  105.334
 26.6176  10853.2  103.819
 26.6596  10575  102.787
 26.7016  10397.8  101.721
 26.7436  10419.1  101.915
 26.7856  10238.9  101.023
 26.8276  10259  101.084
 26.8696  10266.4  100.987
 26.9116  10155.4  100.381
 26.9536  10030  99.808
 26.9956  10076.6  100.075
 27.0376  10290.9  101.354
 27.0796  10084.4  100.104
 27.1216  10345.1  101.406
 27.1636  10071.6  100.225
 27.2056  10132.2  100.413
 27.2476  10068.3  100.088
 27.2896  9909.15  99.3331
 27.3316  9991.31  99.5419
 27.3736  9880.22  99.2499
 27.4156  10042.4  99.8982
 27.4576  10061.8  100.212
 27.4996  10080.7  99.9176
 27.5416  9983.2  99.7382
 27.5836  9998.34  99.6479
 27.6256  9932.42  99.5049
 27.6676  9920.95  99.4332
 27.7096  10098.8  100.204
 27.7516  10553.3  102.545
 27.7936  10792.8  103.902
 27.8356  10242.7  100.815
 27.8776  10383.9  101.581
 27.9196  10147.9  100.273
 27.9616  10262  100.935
 28.0036  9963.65  99.5204
 28.0456  9752.74  98.5961
 28.0876  9815.71  99.0022
 28.1296  9922.56  99.4515
 28.1716  9911.18  99.333
 28.2136  9845.69  98.9657
 28.2556  9726.18  98.4811
 28.2976  9792.55  98.8115
 28.3396  9812.05  98.5234
 28.3816  9639.99  97.8138
 28.4236  9843.53  98.9918
 28.4656  9539.52  97.492
 28.5076  9557.64  97.2302
 28.5496  9617.13  97.7865
 28.5916  9580.06  97.4064
 28.6336  9630.35  98.0023
 28.6756  9641.05  97.2715
 28.7176  9515.72  97.1793
 28.7596  9427.46  96.6229
 28.8016  9314.71  96.1614
 28.8436  9353.05  96.5079
 28.8856  9498.53  97.1127
 28.9276  9513.86  97.4348
 28.9696  9450.07  96.7654
 29.0116  9348.26  96.4153
 29.0536  9354.15  96.6606
 29.0956  9475.96  96.9974
 29.1376  9401.72  96.5879
 29.1796  9315.9  96.1264
 29.2216  9284.88  95.8705
 29.2636  9454.46  96.7444
 29.3056  9294.76  95.7884
 29.3476  9441.06  97.0548
 29.3896  9569.5  98.1384
 29.4316  9338.59  95.9811
 29.4736  9007.19  94.3285
 29.5156  9259.32  95.5628
 29.5576  9117.57  95.5427
 29.5996  9146.02  94.9681
 29.6416  9024.04  94.4488
 29.6836  9090.99  94.7297
 29.7256  9115.38  95.4086
 29.7676  9106.45  95.1265
 29.8096  9072.12  94.7972
 29.8516  8971.42  94.5967
 29.8936  9075.77  95.2315
 29.9356  8941.38  94.2855
 29.9776  9105.47  95.2969
 30.0196  9180.99  95.0891
 30.0616  9130.36  95.1957
 30.1036  8959.28  94.126
 30.1456  8870.24  93.9067
 30.1876  8921.99  94.3141
 30.2296  8844.8  93.684
 30.2716  8922.98  93.7428
 30.3136  8836.16  93.8637
 30.3556  9191.15  95.9888
 30.3976  9284.36  97.9165
 30.4396  9516.25  96.5275
 30.4816  9220.78  94.6389
 30.5236  9357.98  95.3391
 30.5656  9166.04  94.9868
 30.6076  9131.49  94.5896
 30.6496  9324.37  95.6381
 30.6916  8943.32  93.7587
 30.7336  9221.5  95.3526
 30.7756  8970.14  94.3385
 30.8176  9163.19  95.047
 30.8596  9126.87  94.6271
 30.9016  9170.45  94.7231
 30.9436  9063.54  94.3961
 30.9856  9275.9  95.6036
 31.0276  9062.75  94.142
 31.0696  9144.94  94.9729
 31.1116  9111.78  94.9004
 31.1536  9089.22  94.6811
 31.1956  9066.12  94.6501
 31.2376  8836.98  93.4631
 31.2796  9059.5  94.1814
 31.3216  8944.23  93.9128
 31.3636  9062.93  94.814
 31.4056  8900.83  95.2317
 31.4476  9086.4  94.1532
 31.4896  9151.69  94.9948
 31.5316  9133.05  94.3404
 31.5736  9780.93  97.4206
 31.6156  9556.57  96.2952
 31.6576  9138.49  94.2527
 31.6996  9213.57  94.3137
 31.7416  9275.29  95.5673
 31.7836  9211.64  94.3942
 31.8256  9098.19  94.1418
 31.8676  9056.75  93.8332
 31.9096  8917.14  93.3228
 31.9516  8979.58  93.9739
 31.9936  8906.35  93.5483
 32.0356  9036.97  94.1477
 32.0776  9064.97  94.1884
 32.1196  9078.68  94.2823
 32.1616  8974.79  93.2795
 32.2036  8887.06  93.3299
 32.2456  8820.47  93.3428
 32.2876  8839.75  92.7862
 32.3296  8751.01  92.4572
 32.3716  8659.39  92.0786
 32.4136  8642.45  92.1952
 32.4556  8782.09  92.3839
 32.4976  8809.03  92.4229
 32.5396  8625.99  91.4748
 32.5816  8699.94  91.8983
 32.6236  8648.6  91.7696
 32.6656  8727.65  92.7426
 32.7076  8676.7  92.1294
 32.7496  8630.3  91.5602
 32.7916  8618.15  91.4568
 32.8336  8578.28  91.4461
 32.8756  8711.71  91.852
 32.9176  8690.38  92.137
 32.9596  8684.1  92.1725
 33.0016  8730.12  92.1936
 33.0436  8590.45  91.6196
 33.0856  8607.33  91.8061
 33.1276  8557.94  91.2714
 33.1696  8638.65  91.5202
 33.2116  8668.94  91.7343
 33.2536  8639.12  91.7542
 33.2956  8596.63  91.6217
 33.3376  8526.47  91.0447
 33.3796  8543.61  91.3007
 33.4216  8535.29  90.8861
 33.4636  8575.22  91.2181
 33.5056  8506.77  90.933
 33.5476  8554.48  91.3283
 33.5896  8540.81  91.0273
 33.6316  8573.01  91.5184
 33.6736  8407.99  90.88
 33.7156  8382.49  90.7695
 33.7576  8492.49  91.0151
 33.7996  8487.12  90.7532
 33.8416  8259.78  89.712
 33.8836  8377.22  90.1249
 33.9256  8563  91.1714
 33.9676  8493.86  90.7094
 34.0096  8348.76  90.2333
 34.0516  8314.08  89.6925
 34.0936  8285.98  89.8071
 34.1356  8459.18  90.4818
 34.1776  8277.15  89.4967
 34.2196  8346.67  90.0511
 34.2616  8194.93  89.4918
 34.3036  8380.08  90.6136
 34.3456  8365.56  90.2922
 34.3876  8251.33  89.7381
 34.4296  8289.62  89.5524
 34.4716  8437.31  90.6443
 34.5136  8395.17  90.4598
 34.5556  8200.5  89.6507
 34.5976  8531.36  91.2911
 34.6396  8347.03  89.8694
 34.6816  8346.33  90.0793
 34.7236  8211.15  89.1333
 34.7656  8382.62  90.2691
 34.8076  8192.69  89.5625
 34.8496  8271.28  89.9665
 34.8916  8207.65  89.3607
 34.9336  8308.95  89.8944
 34.9756  8439.67  90.541
 35.0176  8429.65  90.9905
 35.0596  8371.68  90.499
 35.1016  8300.28  89.8674
 35.1436  8481.37  90.536
 35.1856  8203.39  89.1496
 35.2276  8269.07  89.6827
 35.2696  8294.32  90.0162
 35.3116  8232.67  89.7994
 35.3536  8323.61  90.0155
 35.3956  8145.49  88.7376
 35.4376  8366.24  90.492
 35.4796  8274.42  90.0283
 35.5216  8200.62  89.5125
 35.5636  8021.3  89.328
 35.6056  8157.72  89.128
 35.6476  8230.72  89.4214
 35.6896  8202.24  89.4326
 35.7316  8065.79  88.5943
 35.7736  8159.41  89.2852
 35.8156  8136.79  89.1704
 35.8576  8188.65  89.6912
 35.8996  8174.4  89.5817
 35.9416  8143.79  88.9332
 35.9836  8097.51  89.1247
 36.0256  8257.94  89.9018
 36.0676  8307.25  89.6997
 36.1096  8156.79  89.2551
 36.1516  8214.71  89.4706
 36.1936  8224.77  89.3679
 36.2356  8142.37  89.5494
 36.2776  8072.75  88.7986
 36.3196  8092.73  88.4483
 36.3616  8103.78  88.6334
 36.4036  8107.02  88.7182
 36.4456  8139.74  89.0739
 36.4876  7918.55  87.8248
 36.5296  8028.14  88.4705
 36.5716  8147.13  89.8965
 36.6136  8026.49  88.0305
 36.6556  8079.41  88.5139
 36.6976  8038.85  88.7827
 36.7396  7855.36  87.5896
 36.7816  7918.7  88.2203
 36.8236  7872.12  87.881
 36.8656  7648.01  86.6872
 36.9076  7838.02  87.7709
 36.9496  7666.33  86.817
 36.9916  7777.87  86.9349
 37.0336  7873.4  87.7783
 37.0756  7953.88  88.0196
 37.1176  7738.39  87.1729
 37.1596  7767.63  87.248
 37.2016  7747  87.3027
 37.2436  7863.37  87.3408
 37.2856  7733.87  86.865
 37.3276  7871.46  86.9985
 37.3696  7709.03  86.9536
 37.4116  7682.3  86.7154
 37.4536  7716.59  86.778
 37.4956  7592.68  86.1258
 37.5376  7795.55  88.816
 37.5796  7734.18  88.3973
 37.6216  7793.67  87.044
 37.6636  7870.53  87.3605
 37.7056  7982.72  88.1677
 37.7476  8072.27  88.2074
 37.7896  7806.44  87.3646
 37.8316  7768.98  87.1759
 37.8736  7781.15  86.7853
 37.9156  7810.96  86.9565
 37.9576  7665.68  86.1973
 37.9996  7723.96  86.0972
 38.0416  7789.06  87.2457
 38.0836  7927.08  87.9228
 38.1256  7820.09  87.3063
 38.1676  7771.62  87.1422
 38.2096  8000.21  88.0418
 38.2516  7907.63  87.6576
 38.2936  8037.08  88.253
 38.3356  7852.49  87.173
 38.3776  7771.15  86.9565
 38.4196  7894.75  87.5188
 38.4616  7727.72  86.8217
 38.5036  7825.7  87.3205
 38.5456  7652.59  87.0554
 38.5876  7714.77  87.4257
 38.6296  7815.38  86.985
 38.6716  7783.2  86.6063
 38.7136  7646.58  85.7788
 38.7556  7746.01  86.8391
 38.7976  7775.99  86.9229
 38.8396  7657.58  86.7104
 38.8816  7583.39  86.0959
 38.9236  7744.72  86.8083
 38.9656  7730.83  86.6387
 39.0076  7662.77  85.6841
 39.0496  7984.01  88.0079
 39.0916  7897.94  87.1825
 39.1336  7798.41  87.0378
 39.1756  7741.74  86.7763
 39.2176  7664.98  86.8793
 39.2596  7790.58  87.5098
 39.3016  7716.96  86.6859
 39.3436  7740.6  87.2256
 39.3856  7807.94  87.0426
 39.4276  7851.44  87.797
 39.4696  7705.37  86.5951
 39.5116  7729.78  87.2535
 39.5536  7713.03  87.5668
 39.5956  7725.6  86.7531
 39.6376  7662.96  86.2459
 39.6796  7629.48  85.9654
 39.7216  7657.27  86.2284
 39.7636  7712.83  87.0887
 39.8056  7734.6  87.0066
 39.8476  7638.55  86.7071
 39.8896  7695.28  86.5998
 39.9316  7607.34  86.4138
 39.9736  7654.67  86.2616
 40.0156  7618  85.8914
 40.0576  7719  86.8091
 40.0996  7768.65  86.2834
 40.1416  7705.11  86.7052
 40.1836  7625.53  86.1514
 40.2256  7629.42  86.2025
 40.2676  7539.75  85.8639
 40.3096  7726.55  86.7861
 40.3516  7721.69  86.948
 40.3936  7851.01  87.1543
 40.4356  7575.43  85.8127
 40.4776  7796.8  87.285
 40.5196  7775.94  87.4632
 40.5616  7827.04  87.3991
 40.6036  7713.16  87.0136
 40.6456  7716.1  86.6468
 40.6876  7837.31  87.3128
 40.7296  7685.09  86.5924
 40.7716  7645.9  86.4734
 40.8136  7650.86  86.4582
 40.8556  7812.44  87.4991
 40.8976  7595.86  86.2113
 40.9396  7687.46  87.067
 40.9816  7837.85  87.2117
 41.0236  7730.79  86.5123
 41.0656  7788.26  87.2444
 41.1076  7673.95  86.3808
 41.1496  7725.25  86.5668
 41.1916  7677.93  86.5612
 41.2336  7734.94  86.9459
 41.2756  7775.54  86.7722
 41.3176  7730.63  87.1279
 41.3596  7819.47  87.3635
 41.4016  7809.01  87.4968
 41.4436  7685.14  86.6566
 41.4856  7584.79  86.2571
 41.5276  7723.68  87.0562
 41.5696  7708.74  86.7392
 41.6116  7770.49  87.3387
 41.6536  7665.36  86.5967
 41.6956  7800.84  87.3548
 41.7376  7771.42  87.2883
 41.7796  7662.98  86.4201
 41.8216  7768.87  87.3753
 41.8636  7666.57  86.7601
 41.9056  7649.6  86.4556
 41.9476  7703.17  86.9903
 41.9896  7823.01  87.3267
 42.0316  7676.4  86.5955
 42.0736  7727.6  87.0187
 42.1156  7692.71  86.6185
 42.1576  7596.47  86.1876
 42.1996  7740.21  87.1152
 42.2416  7693.12  86.4569
 42.2836  7688.38  86.5424
 42.3256  7579.61  86.0279
 42.3676  7784.07  86.9953
 42.4096  7784.97  86.9721
 42.4516  7724.94  86.7028
 42.4936  7597.41  86.058
 42.5356  7596.98  86.2029
 42.5776  7641.42  86.3904
 42.6196  7647.64  86.3927
 42.6616  7520.03  85.9227
 42.7036  7564.28  85.561
 42.7456  7848.99  87.5175
 42.7876  7541.39  85.872
 42.8296  7744.29  86.9214
 42.8716  7558.98  85.9793
 42.9136  7525.75  85.5468
 42.9556  7607.04  86.1718
 42.9976  7590.81  86.065
 43.0396  7612.93  85.9101
 43.0816  7539.53  85.8698
 43.1236  7523.62  85.8214
 43.1656  7604.04  86.1131
 43.2076  7613.33  86.2693
 43.2496  7567.05  85.8363
 43.2916  7521.82  85.932
 43.3336  7635.76  86.4089
 43.3756  7556.23  85.7195
 43.4176  7443.4  85.1625
 43.4596  7518.15  85.4397
 43.5016  7543.01  85.9852
 43.5436  7526.01  85.7971
 43.5856  7350.4  84.8221
 43.6276  7483.69  85.4644
 43.6696  7440.22  85.3691
 43.7116  7631.67  86.0686
 43.7536  7556.65  86.1292
 43.7956  7336.93  86.0649
 43.8376  7355.11  84.5469
 43.8796  7222.62  84.0324
 43.9216  7409.59  85.0319
 43.9636  7307.48  84.5512
 44.0056  7222.65  84.2837
 44.0476  7338.03  84.5942
 44.0896  7274.86  84.562
 44.1316  7344.08  84.6303
 44.1736  7321.9  84.4888
 44.2156  7438.24  85.0027
 44.2576  7327.43  84.699
 44.2996  7262.3  84.4801
 44.3416  7384.11  84.7631
 44.3836  7208.94  84.071
 44.4256  7214.66  83.7568
 44.4676  7271.28  84.231
 44.5096  7279.74  84.4272
 44.5516  7162.44  83.7122
 44.5936  7255.49  84.2044
 44.6356  7355.65  84.5246
 44.6776  7272.78  84.355
 44.7196  7331.76  84.9651
 44.7616  7278.51  85.9995
 44.8036  7394.47  85.3278
 44.8456  7390.12  85.3037
 44.8876  7496.21  85.7563
 44.9296  7527.98  85.3913
 44.9716  7363.13  84.863
 45.0136  7417.27  85.1233
 45.0556  7511.65  85.7501
 45.0976  7385.28  85.0519
 45.1396  7351.68  84.6494
 45.1816  7351.48  84.4062
 45.2236  7411.45  84.8292
 45.2656  7303.07  84.6948
 45.3076  7333.25  84.6595
 45.3496  7204  84.2094
 45.3916  7337.29  85.2515
 45.4336  7467.48  85.8443
 45.4756  7364.9  85.1154
 45.5176  7473.45  85.3512
 45.5596  7438.63  85.268
 45.6016  7294.86  84.8647
 45.6436  7321.58  84.197
 45.6856  7312.72  84.792
 45.7276  7215.28  86.0169
 45.7696  7306.77  85.7512
 45.8116  7246.74  84.8239
 45.8536  7309.06  85.0895
 45.8956  7244.5  84.0746
 45.9376  7327.01  84.0177
 45.9796  7439.61  85.3665
 46.0216  7514.69  86.128
 46.0636  7327.42  84.1829
 46.1056  7287.23  83.9467
 46.1476  7320.69  84.7267
 46.1896  7284.79  84.6679
 46.2316  7319.45  84.7384
 46.2736  7209.02  84.2443
 46.3156  7246.98  84.2782
 46.3576  7320.03  84.9005
 46.3996  7247.84  84.6345
 46.4416  7289.97  84.449
 46.4836  7317.5  84.975
 46.5256  7353.67  85.1292
 46.5676  7321.66  85.0582
 46.6096  7345.51  85.1207
 46.6516  7348.53  84.1945
 46.6936  7452.05  85.2821
 46.7356  7404.61  85.1034
 46.7776  7277.65  85.2214
 46.8196  7243.36  84.7624
 46.8616  7188.78  84.2523
 46.9036  7106.61  83.4254
 46.9456  7206.5  83.6593
 46.9876  7165.54  83.4985
 47.0296  7139.2  84.0269
 47.0716  7078.19  83.4939
 47.1136  7164.9  83.6801
 47.1556  7193.17  83.7143
 47.1976  7286.29  84.3592
 47.2396  7156.7  83.9807
 47.2816  7124.8  83.4928
 47.3236  7238.32  84.5259
 47.3656  7211.41  84.3852
 47.4076  7260.86  84.3215
 47.4496  7123.37  83.6817
 47.4916  7130.92  83.9139
 47.5336  7172.21  83.9718
 47.5756  7214.94  84.3055
 47.6176  7168.09  83.966
 47.6596  7073.38  83.1269
 47.7016  7274.84  84.1227
 47.7436  7269.46  84.369
 47.7856  7186.88  83.9692
 47.8276  7156.75  83.8475
 47.8696  7263.86  84.5576
 47.9116  7221.21  84.0213
 47.9536  7165.73  83.6404
 47.9956  7161.75  84.3232
 48.0376  7023.33  83.3296
 48.0796  7220.13  84.5577
 48.1216  7181.15  84.2717
 48.1636  7189.9  83.7796
 48.2056  7297.29  84.6732
 48.2476  7250.81  84.7106
 48.2896  7173.32  84.1711
 48.3316  7233.14  84.4633
 48.3736  7230.17  84.4604
 48.4156  7085.67  83.4722
 48.4576  7104.3  83.8731
 48.4996  7292.02  84.4099
 48.5416  7291.81  84.7514
 48.5836  7186.41  83.8174
 48.6256  7212.01  84.1627
 48.6676  7171.92  84.4513
 48.7096  7121.41  83.4374
 48.7516  7138.31  83.6723
 48.7936  7100.59  83.5132
 48.8356  7174.04  83.994
 48.8776  7195.61  84.6097
 48.9196  7206.04  84.1172
 48.9616  7228.87  84.6371
 49.0036  7150.41  84.525
 49.0456  7208.79  84.8494
 49.0876  7245.58  84.6965
 49.1296  7126.63  84.0686
 49.1716  7049.36  83.4789
 49.2136  7156  84.0332
 49.2556  7173.64  84.1735
 49.2976  7203.42  84.4158
 49.3396  7014.55  83.3474
 49.3816  7238.97  84.1041
 49.4236  7178.08  84.1682
 49.4656  7033.88  83.3439
 49.5076  7204.82  84.0972
 49.5496  7111.18  83.4905
 49.5916  7131.01  83.6362
 49.6336  7151.36  83.9677
 49.6756  7143.47  84.1585
 49.7176  7137.71  84.0655
 49.7596  7164.19  84.1653
 49.8016  7273.37  84.5388
 49.8436  7100.25  83.8253
 49.8856  7112.17  83.9007
 49.9276  7003.65  83.422
 49.9696  7182.16  84.3962
 50.0116  7097.14  84.0311
 50.0536  7104.19  84.012
 50.0956  7052.08  83.7842
 50.1376  7075.52  83.6999
 50.1796  6936.14  83.0578
 50.2216  7025.36  83.5801
 50.2636  7037.91  83.2751
 50.3056  6977.2  83.0903
 50.3476  7089.89  83.7775
 50.3896  7094.99  83.7825
 50.4316  7160.67  84.0036
 50.4736  6999.59  83.2744
 50.5156  6958.35  83.0093
 50.5576  7082.88  83.5071
 50.5996  7006.63  83.3434
 50.6416  7029.1  83.3994
 50.6836  7075.54  83.7371
 50.7256  7133.83  84.0017
 50.7676  7212.84  84.7567
 50.8096  6971.24  82.8928
 50.8516  6965.75  83.2856
 50.8936  6955.71  83.0106
 50.9356  7128.21  84.1339
 50.9776  7017.32  83.6441
 51.0196  6800.61  82.4594
 51.0616  6855.43  82.1189
 51.1036  6904.26  82.7703
 51.1456  6969.59  83.0688
 51.1876  6893.99  81.96
 51.2296  7046.81  83.5018
 51.2716  6773.38  81.5832
 51.3136  6861.82  82.5706
 51.3556  6797.4  81.8072
 51.3976  6722.04  81.5015
 51.4396  6741.59  81.9287
 51.4816  6784.48  82.0426
 51.5236  6832.89  82.4167
 51.5656  6764.37  81.6027
 51.6076  6836.55  82.12
 51.6496  6788.34  82.0877
 51.6916  6746.13  82.1948
 51.7336  6675.81  81.79
 51.7756  6786.12  82.145
 51.8176  6681.52  81.6189
 51.8596  6672.06  81.5839
 51.9016  6857.01  82.3129
 51.9436  6820.31  83.5862
 51.9856  6901.61  84.4923
 52.0276  6828.74  82.5473
 52.0696  7015.22  83.7252
 52.1116  6832.04  82.7461
 52.1536  6976.02  83.4427
 52.1956  6835.82  82.1167
 52.2376  6911.73  82.7446
 52.2796  6811.12  81.9874
 52.3216  6778.17  82.4442
 52.3636  6961.71  83.1185
 52.4056  6806.07  82.0468
 52.4476  6700.94  81.7752
 52.4896  6690.73  81.7658
 52.5316  6806.26  82.5193
 52.5736  6774.99  81.8319
 52.6156  7028.44  83.9639
 52.6576  6866.84  82.4264
 52.6996  6673.13  82.2451
 52.7416  6672.78  82.0931
 52.7836  6786.5  82.6801
 52.8256  6840.27  82.2141
 52.8676  6644.5  81.6051
 52.9096  6878.16  83.0946
 52.9516  6696.69  82.3747
 52.9936  6728.6  82.9416
 53.0356  6769.71  82.1919
 53.0776  6782.2  82.566
 53.1196  6806.77  82.8001
 53.1616  6761.91  82.5907
 53.2036  6737.87  82.4057
 53.2456  6694.88  82.2471
 53.2876  6891.26  83.1257
 53.3296  6867.48  83.3175
 53.3716  6793.52  82.679
 53.4136  6696.94  82.1793
 53.4556  6753.25  82.5512
 53.4976  6661.44  81.8241
 53.5396  6687.06  82.3865
 53.5816  6741.51  82.3541
 53.6236  6706.2  82.4899
 53.6656  6642.41  81.6875
 53.7076  6789.95  82.5644
 53.7496  6814.97  82.8471
 53.7916  6737.16  82.5085
 53.8336  6696.23  82.1645
 53.8756  6598.46  82.0844
 53.9176  6608.61  81.4816
 53.9596  6505.65  81.6296
 54.0016  6489.61  80.8465
 54.0436  6364.18  80.2953
 54.0856  6521.5  80.7049
 54.1276  6576  81.2401
 54.1696  6563.23  81.3308
 54.2116  6551.93  81.0017
 54.2536  6462.45  80.2643
 54.2956  6477.14  80.4104
 54.3376  6523.25  81.1774
 54.3796  6445.35  80.5687
 54.4216  6506.16  81.0263
 54.4636  6416.12  80.4282
 54.5056  6478.54  80.618
 54.5476  6462.92  80.8699
 54.5896  6384.11  80.206
 54.6316  6462.91  80.5455
 54.6736  6360.67  79.9808
 54.7156  6452.91  80.5957
 54.7576  6278.94  79.482
 54.7996  6441.35  80.6755
 54.8416  6431.33  80.6443
 54.8836  6447.28  80.832
 54.9256  6300.59  79.6839
 54.9676  6302.21  79.5607
 55.0096  6272.78  79.3827
 55.0516  6256.13  79.4681
 55.0936  6297.36  79.4597
 55.1356  6314.33  79.6063
 55.1776  6491.49  80.94
 55.2196  6349.99  79.8574
 55.2616  6465.38  80.8053
 55.3036  6314.52  80.0284
 55.3456  6275.06  80.0076
 55.3876  6356.44  80.144
 55.4296  6247.06  79.4592
 55.4716  6325.46  79.997
 55.5136  6251.2  79.252
 55.5556  6421.01  80.3931
 55.5976  6221.96  79.2146
 55.6396  6312.25  79.6696
 55.6816  6258.81  79.2823
 55.7236  6240.72  79.3241
 55.7656  6394.48  79.9237
 55.8076  6238.23  78.9361
 55.8496  6355.41  80.0964
 55.8916  6082.9  78.4592
 55.9336  6398.86  80.295
 55.9756  6237.37  79.1588
 56.0176  6250.11  79.3862
 56.0596  6110.38  78.4837
 56.1016  6113.71  78.5786
 56.1436  6158.06  79.0385
 56.1856  6110.99  78.5117
 56.2276  6339.87  80.0166
 56.2696  6158.32  78.8432
 56.3116  6308.4  80.1579
 56.3536  6114.63  78.5968
 56.3956  6157.31  78.8415
 56.4376  6148.46  78.8488
 56.4796  6152.33  78.6963
 56.5216  6176.68  79.2243
 56.5636  6112.12  78.3718
 56.6056  6307.82  79.8518
 56.6476  6176.05  78.6187
 56.6896  6324.8  80.0382
 56.7316  6096.08  78.4923
 56.7736  6058.71  78.4496
 56.8156  6138.81  78.7735
 56.8576  6020.24  77.9707
 56.8996  6189.74  78.9527
 56.9416  6053.74  78.2644
 56.9836  6191.64  78.8181
 57.0256  6089.65  78.4742
 57.0676  6241.34  79.5449
 57.1096  6153.27  78.7624
 57.1516  6073.83  78.3427
 57.1936  6096.82  78.2319
 57.2356  5969.73  77.7357
 57.2776  6048.77  78.2101
 57.3196  6062.11  78.6463
 57.3616  5984.48  77.6371
 57.4036  6117.88  78.5592
 57.4456  6190.78  78.9941
 57.4876  6024.17  77.8121
 57.5296  5974.44  77.7048
 57.5716  6066.71  78.4061
 57.6136  5925.79  77.328
 57.6556  6085.82  78.5
 57.6976  6056.33  78.1368
 57.7396  5905.68  77.4928
 57.7816  5992.81  78.4427
 57.8236  6029.69  78.4532
 57.8656  6026.11  78.1087
 57.9076  6022.65  78.1126
 57.9496  5980.03  78.1892
 57.9916  5979.2  77.6531
 58.0336  5920.39  77.5954
 58.0756  6028.37  77.8763
 58.1176  5987.64  77.6699
 58.1596  5918.72  77.7855
 58.2016  5811  76.3411
 58.2436  5750.14  76.3217
 58.2856  5796.6  76.5561
 58.3276  5816.39  77.0416
 58.3696  5729.72  76.2215
 58.4116  5806.91  76.6091
 58.4536  5916.28  77.2124
 58.4956  5691.32  75.9082
 58.5376  5841.62  76.4817
 58.5796  5709.09  76.1416
 58.6216  5793.41  76.4034
 58.6636  5790.09  76.5845
 58.7056  5783.3  76.4027
 58.7476  5766.05  76.5953
 58.7896  5771.89  76.413
 58.8316  5817.67  76.7086
 58.8736  5791.24  76.549
 58.9156  5771.26  76.4562
 58.9576  5817.88  76.9689
 58.9996  5750.85  75.9143
 59.0416  5752.64  76.272
 59.0836  5803.12  76.5164
 59.1256  5766.21  76.6666
 59.1676  5716.49  76.936
 59.2096  5682.87  76.0426
 59.2516  5822.61  76.5604
 59.2936  5792.63  76.6844
 59.3356  5745.53  76.2528
 59.3776  5605.63  75.4815
 59.4196  5657.34  75.7654
 59.4616  5758.61  76.3052
 59.5036  5755.74  76.3196
 59.5456  5885.47  76.8733
 59.5876  5682.19  75.6637
 59.6296  5586.06  75.1428
 59.6716  5674.61  75.7923
 59.7136  5734.63  76.1806
 59.7556  5678.22  75.9373
 59.7976  5642.43  75.4483
 59.8396  5663.71  75.4881
 59.8816  5700.31  76.3314
 59.9236  5811.45  76.6518
 59.9656  5726.17  76.3412
 60.0076  5849.71  76.5277
 60.0496  5673.56  75.8514
 60.0916  5727.32  75.6469
 60.1336  5711.48  76.6192
 60.1756  5776.86  78.2148
 60.1996  0.0000000E+00  0.0000000E+00