File: docs/examples/XRD/IS17_D/Data/IS17_D_fresh/17_D_fresh_f00004.xye
# /beamlines/bl04/projects/cycle2025-II/20250340211-lsimonelli/DATA/IS17_D_fresh/17_D_fresh_f00004.xye : mythproc.py merge -s 0.006 -l 0.5 -f /beamlines/bl04/inhouse/ff/FlatField/ff_20Nov2024rod8mm60s_17keV.raw -b True -c true -o xye /beamlines/bl04/projects/cycle2025-II/20250340211-lsimonelli/DATA/IS17_D_fresh/17_D_fresh_00004.dat
# IsMon = [6775269, 6771781, 6774327]  IsPos = [-1.4999, -2.4885, -3.4988]
# Wave = 0.4962  CalPath /beamlines/bl04/projects/cycle2025-II/20250340211-lsimonelli/DATA/Align/Si_Pos1_25keV_f00001.cal
# Date = 2025-09-24_06:26:11 Dt = 4.8000  Bin = 0.0060  <imon> = 6773792 +/- 1473 (Min/Max) 6771781 / 6775269
# icurr 251.0099  mocoIn 1.7129E-05  mocoOut 0.8034  i15 7.08749e+06  imon 6.77379e+06  i7 6.3333  iEMpd_timer 4.8000  iEMpd_1 3.4791E-08  iEMpd_2 7.7900E-08  iEMpd_3 1.6953E-08  iEMpd_4 4.9390E-08  iEMhp_timer 4.8000  iEMhp_1 4.9042E-06  iEMhp_2 -2.5218E-08  iEMhp_3 -2.3446E-08  iEMhp_4 -2.1637E-08
#      9776
 1.5856  39867  205.004
 1.6276  47512.2  219.959
 1.6696  54334  234.391
 1.7116  62727.4  252.338
 1.7536  71793.4  268.808
 1.7956  76822.8  278.758
 1.8376  72873.9  271.93
 1.8796  61415  247.813
 1.9216  49765  223.951
 1.9636  42295.6  205.616
 2.0056  38490.4  195.388
 2.0476  35528.3  189.777
 2.0896  34272.5  185.3
 2.1316  33458  182.205
 2.1736  32138.2  179.991
 2.2156  32690.5  180.075
 2.2576  31458  177.28
 2.2996  30416.8  174.962
 2.3416  30868.6  174.851
 2.3836  30182.7  173.003
 2.4256  29335  171.112
 2.4676  29105  170.198
 2.5096  28753.7  169.223
 2.5516  28485.6  172.37
 2.5936  28491.7  168.896
 2.6356  27892.3  167.814
 2.6776  27951.8  166.83
 2.7196  27602.2  166.339
 2.7616  27722.9  166.467
 2.8036  27204.3  165.083
 2.8456  27116.7  165.447
 2.8876  26737.4  164.135
 2.9296  26296.2  162.928
 2.9716  26141.4  161.919
 3.0136  25751.2  160.778
 3.0556  25846.7  161.492
 3.0976  25823.2  160.32
 3.1396  25659.6  160.558
 3.1816  25324.3  159.43
 3.2236  25094  158.704
 3.2656  25283.8  158.307
 3.3076  24879  158.523
 3.3496  25018.3  158.136
 3.3916  25653.7  159.693
 3.4336  25895.1  161.036
 3.4756  26171.7  161.805
 3.5176  27259.4  164.943
 3.5596  26902.9  166.34
 3.6016  27375.6  165.342
 3.6436  26319.6  163.255
 3.6856  26076.2  160.737
 3.7276  25080.6  158.769
 3.7696  24913.6  158.43
 3.8116  24357.3  156.537
 3.8536  24334  156.387
 3.8956  24483.4  156.692
 3.9376  24202.2  156.041
 3.9796  24226.7  155.626
 4.0216  24538.4  155.63
 4.0636  24218.4  156.134
 4.1056  24477.4  156.59
 4.1476  24449.5  156.814
 4.1896  24783.2  157.742
 4.2316  24919.8  157.989
 4.2736  25323.6  159.051
 4.3156  25709.9  160.501
 4.3576  26240.4  162.079
 4.3996  26577.2  163.381
 4.4416  26981.1  164.181
 4.4836  27670.7  166.43
 4.5256  27916  167.784
 4.5676  27981.6  168.249
 4.6096  28304.5  167.827
 4.6516  28916.3  169.348
 4.6936  28983.2  170.372
 4.7356  29129.7  170.628
 4.7776  29392.2  171.231
 4.8196  28740.7  169.975
 4.8616  28747.6  169.595
 4.9036  28233.6  167.68
 4.9456  28221.4  168.317
 4.9876  27685.3  166.608
 5.0296  27901.9  167.061
 5.0716  28126.8  168.394
 5.1136  27928.3  167.649
 5.1556  28559.2  168.981
 5.1976  28614.9  169.127
 5.2396  28721.3  169.143
 5.2816  28679.7  169.481
 5.3236  29000.3  170.134
 5.3656  28678.7  170.13
 5.4076  28335.3  169.275
 5.4496  28814.9  170.168
 5.4916  28504.4  168.994
 5.5336  28647.9  169.431
 5.5756  28226.5  168.201
 5.6176  28740.2  169.143
 5.6596  28561.3  169.615
 5.7016  28947.7  170.003
 5.7436  29312.4  171.35
 5.7856  29045.5  170.629
 5.8276  29645.6  172.104
 5.8696  29658.1  172.308
 5.9116  29554.6  172.635
 5.9536  29672.1  172.719
 5.9956  30082  173.255
 6.0376  30192.5  174.227
 6.0796  30442.2  174.778
 6.1216  30684.2  175.687
 6.1636  30762.8  174.938
 6.2056  31027.1  176.381
 6.2476  31022.4  176.227
 6.2896  31159.8  176.294
 6.3316  31280.5  176.806
 6.3736  31525.5  177.394
 6.4156  31410.5  176.958
 6.4576  31545.2  176.931
 6.4996  32025.1  178.78
 6.5416  32046.8  178.978
 6.5836  32049.5  179.229
 6.6256  32002.6  178.634
 6.6676  32932.4  180.764
 6.7096  32543.6  180.571
 6.7516  33121.2  181.816
 6.7936  33199.4  181.433
 6.8356  33507.4  182.357
 6.8776  33890.8  184.242
 6.9196  33939.5  184.79
 6.9616  34484.3  185.655
 7.0036  34827.6  186.234
 7.0456  35028.4  186.033
 7.0876  34703.3  186.935
 7.1296  34711  186.055
 7.1716  34646.3  185.388
 7.2136  34661.9  185.207
 7.2556  34932.5  186.104
 7.2976  34987.8  186.772
 7.3396  34966.1  186.939
 7.3816  35016.1  187.297
 7.4236  35324.9  187.37
 7.4656  35397.4  187.033
 7.5076  35677.2  187.905
 7.5496  35488.9  187.974
 7.5916  35665.3  188.457
 7.6336  36052.6  189.379
 7.6756  36204.8  189.628
 7.7176  36636.3  191.068
 7.7596  36694.5  192.551
 7.8016  36931.6  195.415
 7.8436  37862.1  194.4
 7.8856  38158.2  194.745
 7.9276  38410.1  195.801
 7.9696  39136.2  197.977
 8.0116  40036.1  198.693
 8.0536  40443  199.966
 8.0956  40120.6  200.425
 8.1376  40580.7  201.004
 8.1796  40866.7  202.289
 8.2216  41856.1  203.376
 8.2636  41713.4  203.294
 8.3056  41866.5  204.481
 8.3476  42471.6  205.24
 8.3896  42297  204.908
 8.4316  42929.9  206.611
 8.4736  42729.3  205.561
 8.5156  42554.1  205.431
 8.5576  42269.6  205.787
 8.5996  42259.5  204.557
 8.6416  42070  205.447
 8.6836  41743.1  204.455
 8.7256  42684.4  206.168
 8.7676  41396.5  206.056
 8.8096  41344.7  203.071
 8.8516  41265.4  202.481
 8.8936  41059  201.841
 8.9356  40643.6  201.177
 8.9776  41074.4  202.355
 9.0196  40530.3  200.655
 9.0616  40732.7  200.596
 9.1036  40456.5  201.177
 9.1456  40528.8  200.69
 9.1876  40655.6  200.948
 9.2296  40878.5  200.855
 9.2716  39750.3  198.134
 9.3136  39951.9  198.614
 9.3556  40306.8  199.482
 9.3976  38452.8  195.398
 9.4396  39514.3  197.96
 9.4816  38392.5  194.981
 9.5236  38617.8  195.469
 9.5656  38409  195.264
 9.6076  38461.9  195.975
 9.6496  38165.9  195.136
 9.6916  37997  194.689
 9.7336  38056.4  194.601
 9.7756  38810.6  197.978
 9.8176  37387.8  193.682
 9.8596  37557.8  192.47
 9.9016  37136.9  191.375
 9.9436  36692.9  190.142
 9.9856  36441.9  189.701
 10.0276  36879.3  192.065
 10.0696  36383  189.731
 10.1116  35218.4  186.944
 10.1536  35270.7  187.271
 10.1956  34623.4  185.098
 10.2376  33851.6  182.498
 10.2796  34386.8  184.087
 10.3216  33944.6  183.168
 10.3636  33909.7  183.116
 10.4056  33695.7  182.969
 10.4476  33009.8  180.708
 10.4896  33558.2  181.617
 10.5316  32564.5  179.638
 10.5736  32223.6  179.134
 10.6156  31611.3  177.177
 10.6576  32270.5  177.495
 10.6996  31793  176.872
 10.7416  31489.6  176.281
 10.7836  31826  177.972
 10.8256  31227.7  176.746
 10.8676  31426.9  176.82
 10.9096  30526.2  174.3
 10.9516  30821  174.001
 10.9936  30468.9  173.211
 11.0356  30357.3  173.574
 11.0776  30220.8  172.456
 11.1196  29581.7  171.389
 11.1616  29566.2  171.044
 11.2036  29436.4  170.507
 11.2456  29472.7  171.357
 11.2876  29143.4  170.102
 11.3296  28915.8  169.331
 11.3716  29047.1  169.398
 11.4136  28948.4  170.049
 11.4556  29024.9  169.933
 11.4976  28998.1  168.773
 11.5396  29176.6  169.476
 11.5816  29407.9  170.634
 11.6236  29979.9  172.747
 11.6656  30375.9  172.73
 11.7076  29836  172.104
 11.7496  29141.1  174.274
 11.7916  28947.4  168.737
 11.8336  28389.7  168.073
 11.8756  27933.3  166.184
 11.9176  28281.3  166.858
 11.9596  27860.5  165.801
 12.0016  27929.4  166.862
 12.0436  27696.9  165.532
 12.0856  27463.4  165.41
 12.1276  27457.6  165.294
 12.1696  27543.6  164.636
 12.2116  28020.8  166.065
 12.2536  27400.2  165.088
 12.2956  27653  165.148
 12.3376  27146.2  163.833
 12.3796  27356.1  164.954
 12.4216  27446.6  164.402
 12.4636  27086.8  164.274
 12.5056  27222.5  163.926
 12.5476  27494.6  164.245
 12.5896  27497.4  164.92
 12.6316  26765.9  162.868
 12.6736  27109.6  164.437
 12.7156  26761.6  163.235
 12.7576  27162.9  164.715
 12.7996  27247.3  163.534
 12.8416  26941.1  163.723
 12.8836  27757.4  166.01
 12.9256  27746.8  164.923
 12.9676  27992  166.109
 13.0096  27479  165.713
 13.0516  27847.1  165.819
 13.0936  27627.2  165.575
 13.1356  28384.2  166.758
 13.1776  27901.9  166.379
 13.2196  28288.6  167.161
 13.2616  28291.4  167.507
 13.3036  28250.9  167.343
 13.3456  28265.6  167.568
 13.3876  27937.4  166.043
 13.4296  28118  166.742
 13.4716  28230.6  166.657
 13.5136  28141.5  166.576
 13.5556  28054.8  166.963
 13.5976  28061.9  167.114
 13.6396  28449.2  167.609
 13.6816  27843.5  166.341
 13.7236  28298.9  167.328
 13.7656  27240.2  164.707
 13.8076  27676.3  164.736
 13.8496  27452.7  164.703
 13.8916  27568.5  166.131
 13.9336  27568.7  165.311
 13.9756  27321.8  163.862
 14.0176  27532.9  165.23
 14.0596  27243.1  164.332
 14.1016  26948.9  163.829
 14.1436  26622.3  161.927
 14.1856  26497.3  161.872
 14.2276  26081.4  161.096
 14.2696  26556.5  162.387
 14.3116  26252.3  161.364
 14.3536  25753.3  159.994
 14.3956  25728  159.644
 14.4376  25969.8  160.142
 14.4796  25756.4  159.48
 14.5216  25534.5  159.64
 14.5636  25304.4  158.445
 14.6056  25290  157.962
 14.6476  25304.6  157.183
 14.6896  24855.6  156.359
 14.7316  24651.3  156.811
 14.7736  24453.9  155.281
 14.8156  24336.1  154.953
 14.8576  24137.5  154.147
 14.8996  23823.4  154.427
 14.9416  23133.6  152.173
 14.9836  23404.4  153.018
 15.0256  23300.8  151.56
 15.0676  23413.2  152.262
 15.1096  23245.5  151.434
 15.1516  22995.3  151.222
 15.1936  22882  150.226
 15.2356  22457.3  149.127
 15.2776  22502.8  148.834
 15.3196  21950.5  148.067
 15.3616  21991.6  147.938
 15.4036  21783.7  147.094
 15.4456  22180.7  148.048
 15.4876  21729.5  146.191
 15.5296  21728.2  146.5
 15.5716  21460.3  145.16
 15.6136  21335.9  145.098
 15.6556  21295  144.135
 15.6976  21038.3  143.348
 15.7396  20858.7  143.377
 15.7816  20884.6  142.943
 15.8236  20410.2  142.05
 15.8656  20453.2  141.985
 15.9076  20284.9  141.202
 15.9496  19711.1  142.106
 15.9916  20096.9  144.002
 16.0336  19422.3  138.254
 16.0756  19456.8  138.703
 16.1176  19343.3  138.374
 16.1596  18965.5  138.256
 16.2016  19283.7  138.085
 16.2436  19154.4  138.017
 16.2856  18796.8  136.258
 16.3276  18605.2  135.998
 16.3696  18824.1  136.608
 16.4116  18573.1  136.182
 16.4536  18779.9  136.698
 16.4956  18465  135.266
 16.5376  18470.6  135.493
 16.5796  18435.9  134.684
 16.6216  18497.8  135.244
 16.6636  18265.7  134.55
 16.7056  18253.8  134.353
 16.7476  18365.9  134.279
 16.7896  18367.2  135.08
 16.8316  18108.2  134.067
 16.8736  17936.8  133.717
 16.9156  18067.8  134.562
 16.9576  18058.3  135.379
 16.9996  18175.7  136.348
 17.0416  18291.2  135.022
 17.0836  18303.4  134.798
 17.1256  18226.2  134.531
 17.1676  18157.1  134.288
 17.2096  18032.3  133.677
 17.2516  17849.2  132.764
 17.2936  18094.2  133.996
 17.3356  17474.2  131.71
 17.3776  17626.9  132.482
 17.4196  17851.7  133.013
 17.4616  17563.5  131.846
 17.5036  17339.4  131.394
 17.5456  16850  130.198
 17.5876  17091.1  130.109
 17.6296  17124.3  130.033
 17.6716  16897.7  129.765
 17.7136  16563.5  128.645
 17.7556  16830  129.978
 17.7976  16726.1  129.178
 17.8396  16493.8  127.874
 17.8816  16758.1  129.467
 17.9236  16218.9  127.183
 17.9656  16375.2  128.536
 18.0076  16530.1  128.513
 18.0496  16461.8  127.34
 18.0916  16367.2  127.532
 18.1336  16283.9  127.318
 18.1756  16592.3  128.011
 18.2176  15982.2  125.876
 18.2596  16201  126.469
 18.3016  16274.3  127.017
 18.3436  16376.2  127.675
 18.3856  15966.5  125.946
 18.4276  16168.6  126.399
 18.4696  15974.9  125.738
 18.5116  16195.6  126.92
 18.5536  16147.1  127.102
 18.5956  15869.7  125.538
 18.6376  16109  126.913
 18.6796  15939.4  125.529
 18.7216  15982.2  126.293
 18.7636  15649.1  124.864
 18.8056  15707.4  125.049
 18.8476  15735.1  125.815
 18.8896  15704.4  124.993
 18.9316  16076.6  126.279
 18.9736  15761.7  124.885
 19.0156  15888  125.819
 19.0576  15608.1  123.513
 19.0996  15863.2  125.272
 19.1416  15483  124.154
 19.1836  15580.2  124.136
 19.2256  15501.3  124.05
 19.2676  15706.8  124.968
 19.3096  15716.9  125.272
 19.3516  15526  124.452
 19.3936  15706.2  125.072
 19.4356  15585.6  124.455
 19.4776  15631.4  124.731
 19.5196  15617.8  124.517
 19.5616  15453.9  124.137
 19.6036  15590.4  124.158
 19.6456  15638.2  124.476
 19.6876  15867.1  125.016
 19.7296  15490.9  123.993
 19.7716  15344.8  123.412
 19.8136  15598.1  124.811
 19.8556  15835  125.199
 19.8976  15685.3  124.689
 19.9396  15844.1  124.866
 19.9816  15816.6  125.012
 20.0236  15879.1  125.493
 20.0656  16027.2  126.074
 20.1076  15779.3  125.575
 20.1496  16153  127.065
 20.1916  16451.4  127.702
 20.2336  16573.3  128.117
 20.2756  16493.8  128.269
 20.3176  16234.4  126.981
 20.3596  16209.5  126.864
 20.4016  15914.7  125.493
 20.4436  15776  125.546
 20.4856  15511.2  124.247
 20.5276  15489.7  124.661
 20.5696  15307  123.348
 20.6116  15263.4  123.469
 20.6536  15353.8  123.367
 20.6956  15331.1  123.338
 20.7376  15400.8  123.882
 20.7796  15191.2  122.695
 20.8216  15369.3  123.101
 20.8636  14777.8  121.082
 20.9056  14953.7  121.76
 20.9476  14870.2  121.247
 20.9896  15164.9  122.307
 21.0316  15156  122.157
 21.0736  14888.8  121.618
 21.1156  14942.5  122.014
 21.1576  14855.1  121.705
 21.1996  14854.9  121.683
 21.2416  14775.7  121.185
 21.2836  14811.7  121.291
 21.3256  14629.2  120.625
 21.3676  14868  121.139
 21.4096  14695.9  120.757
 21.4516  14784.1  120.998
 21.4936  14544.7  120.272
 21.5356  14612.6  120.496
 21.5776  14689.5  120.64
 21.6196  14597.2  120.29
 21.6616  14443.9  119.746
 21.7036  14539  119.915
 21.7456  14614.3  120.301
 21.7876  14550.6  119.768
 21.8296  14381.4  118.93
 21.8716  14547.9  119.862
 21.9136  14673.6  120.592
 21.9556  14555.4  119.756
 21.9976  14361.7  118.955
 22.0396  14224.3  118.666
 22.0816  14527.1  120.51
 22.1236  14622.1  120.313
 22.1656  14471.9  119.874
 22.2076  14625.8  119.913
 22.2496  14544.7  119.611
 22.2916  14506.5  119.327
 22.3336  14489  120.009
 22.3756  14568  120.056
 22.4176  14532.4  119.746
 22.4596  14167  118.861
 22.5016  14469.1  119.591
 22.5436  14421.4  119.257
 22.5856  14336.5  119.17
 22.6276  14414.4  119.642
 22.6696  14536.5  120.526
 22.7116  14443.2  119.617
 22.7536  14534.2  119.964
 22.7956  14551.9  119.326
 22.8376  14302.6  118.846
 22.8796  14250.4  118.42
 22.9216  14355.5  119.437
 22.9636  14283.8  118.237
 23.0056  14402.3  118.868
 23.0476  14417.8  119.547
 23.0896  14675.8  119.94
 23.1316  14465.8  119.546
 23.1736  14268.7  121.855
 23.2156  14309.8  119.211
 23.2576  14040.1  118.214
 23.2996  14089.5  118.219
 23.3416  14027.3  118.499
 23.3836  14087.2  117.946
 23.4256  14179  118.452
 23.4676  14131.2  117.923
 23.5096  14258  119.18
 23.5516  14112  117.81
 23.5936  13938.1  118.024
 23.6356  14282.9  119.12
 23.6776  14108.2  118.617
 23.7196  13709.7  116.483
 23.7616  14043.5  117.81
 23.8036  14097  118.069
 23.8456  14023.7  117.32
 23.8876  13527.7  115.59
 23.9296  13700.4  116.847
 23.9716  13782  116.343
 24.0136  13737.9  117.092
 24.0556  13768.9  116.954
 24.0976  13604.5  116.047
 24.1396  13602.2  118.85
 24.1816  13664.4  117.801
 24.2236  13732.5  117.326
 24.2656  13567.7  116.06
 24.3076  13384.8  115.518
 24.3496  13515.6  115.994
 24.3916  13429  115.66
 24.4336  13444.2  115.953
 24.4756  13331.1  115.309
 24.5176  13062.8  113.794
 24.5596  13000  113.655
 24.6016  13071.3  114.263
 24.6436  12889.5  112.924
 24.6856  13176.9  113.934
 24.7276  13076.1  113.829
 24.7696  12914.4  113.242
 24.8116  13010.6  113.859
 24.8536  12723.6  112.573
 24.8956  12840.5  112.829
 24.9376  12665  111.995
 24.9796  12624.2  112.184
 25.0216  12277.8  110.737
 25.0636  12649.5  112.033
 25.1056  12575.9  112.18
 25.1476  12642  114.528
 25.1896  12810.6  113.66
 25.2316  12596.9  111.933
 25.2736  12621.5  111.682
 25.3156  12507  111.249
 25.3576  12456.7  111.467
 25.3996  12416.2  111.266
 25.4416  12610.2  112.116
 25.4836  12266  111.131
 25.5256  12507.4  111.538
 25.5676  12560.4  111.498
 25.6096  12333.1  111.08
 25.6516  12541.3  111.49
 25.6936  12286.3  110.668
 25.7356  12255.3  110.67
 25.7776  12314.7  110.521
 25.8196  12109.3  109.836
 25.8616  12163.4  110.013
 25.9036  12267.1  109.925
 25.9456  12342.1  110.895
 25.9876  12126.5  109.986
 26.0296  12326.6  110.457
 26.0716  11981.6  109.251
 26.1136  12197.5  110.183
 26.1556  12279.4  109.889
 26.1976  11959.5  109.418
 26.2396  12261  110.166
 26.2816  12132  109.955
 26.3236  12149.2  110.214
 26.3656  12018.3  109.319
 26.4076  12343.2  111.005
 26.4496  13665.5  116.119
 26.4916  12338.5  110.463
 26.5336  12100.3  109.723
 26.5756  12010  109.182
 26.6176  12044.4  109.381
 26.6596  11991.2  109.466
 26.7016  12023  109.357
 26.7436  11831.5  108.607
 26.7856  11839.3  108.628
 26.8276  11911.1  108.915
 26.8696  11883.4  108.657
 26.9116  11871.7  108.543
 26.9536  11905.6  108.738
 26.9956  11887.1  108.692
 27.0376  11644  107.786
 27.0796  11781.9  108.238
 27.1216  11650  107.625
 27.1636  11616.3  107.636
 27.2056  11544.9  107.192
 27.2476  11676.2  107.803
 27.2896  11653.7  107.819
 27.3316  11646.7  107.475
 27.3736  11672.8  107.886
 27.4156  11454.1  106.694
 27.4576  11458  106.963
 27.4996  11512.4  106.778
 27.5416  11580.3  107.439
 27.5836  11515.9  106.939
 27.6256  11919.3  108.998
 27.6676  11634.3  107.691
 27.7096  11454.2  106.716
 27.7516  11398.1  106.612
 27.7936  11203.6  105.869
 27.8356  11346.9  106.152
 27.8776  11312.9  106.03
 27.9196  11334.6  105.975
 27.9616  11330  106.149
 28.0036  11264.7  105.831
 28.0456  11357.6  106.4
 28.0876  11140.7  105.459
 28.1296  11272.4  105.928
 28.1716  11207.3  105.618
 28.2136  11281.4  105.945
 28.2556  11105.1  105.225
 28.2976  11265.1  105.97
 28.3396  11222.8  105.556
 28.3816  11174.9  105.322
 28.4236  11170.8  105.466
 28.4656  10929.5  104.354
 28.5076  11029  104.443
 28.5496  11165.8  105.374
 28.5916  11194.7  105.307
 28.6336  10900.7  104.262
 28.6756  11102.5  104.383
 28.7176  11068.2  104.801
 28.7596  10984.8  104.302
 28.8016  11117.4  104.967
 28.8436  10871.9  104.049
 28.8856  11100.9  104.986
 28.9276  10891.6  104.249
 28.9696  10883.7  103.858
 29.0116  10934.4  104.286
 29.0536  10771.8  103.708
 29.0956  10868.4  103.891
 29.1376  10882.4  103.916
 29.1796  10866.7  103.888
 29.2216  10854.2  103.658
 29.2636  10858.1  103.658
 29.3056  10874.8  103.621
 29.3476  10740.2  103.525
 29.3896  10844.2  104.125
 29.4316  10996.8  104.165
 29.4736  10913.9  103.835
 29.5156  11095.5  104.611
 29.5576  10951.7  104.724
 29.5996  10823.1  103.321
 29.6416  10820.7  103.433
 29.6836  10941.9  103.937
 29.7256  10975.4  104.7
 29.7676  10645.7  102.755
 29.8096  10795.9  103.42
 29.8516  10602.8  102.838
 29.8936  10747.3  103.638
 29.9356  10929.3  104.248
 29.9776  10605.4  102.851
 30.0196  10694.3  102.641
 30.0616  10782.7  103.456
 30.1036  10699.1  102.872
 30.1456  10581.9  102.546
 30.1876  10725.6  103.226
 30.2296  10679.7  102.946
 30.2716  10785.9  103.07
 30.3136  10813.2  104.119
 30.3556  10672.3  103.437
 30.3976  10549.9  104.468
 30.4396  10587.5  101.82
 30.4816  10661.4  101.755
 30.5236  10555.7  101.263
 30.5656  10584.9  102.095
 30.6076  10457.6  100.886
 30.6496  10419  101.098
 30.6916  10286.1  100.548
 30.7336  10560  102.038
 30.7756  10286.9  100.809
 30.8176  10388.8  101.215
 30.8596  10378.1  100.926
 30.9016  10349.9  101.144
 30.9436  10443.2  101.34
 30.9856  10422.1  101.348
 31.0276  10319.9  100.436
 31.0696  10327.1  101.081
 31.1116  10436.3  101.589
 31.1536  10393.8  101.258
 31.1956  10389.7  101.33
 31.2376  10261.7  100.719
 31.2796  10342.1  100.621
 31.3216  10315.2  100.432
 31.3636  10561.2  102.366
 31.4056  10431.2  103.129
 31.4476  10516.5  101.3
 31.4896  10315.1  100.853
 31.5316  10463.8  100.986
 31.5736  10480.9  100.834
 31.6156  10336.7  100.162
 31.6576  10434  100.74
 31.6996  10480.4  100.618
 31.7416  10345.5  101.07
 31.7836  10398.4  100.299
 31.8256  10281.3  100.098
 31.8676  10502.8  101.089
 31.9096  10265.3  100.312
 31.9516  10244.4  100.381
 31.9936  10215.4  100.058
 32.0356  10268.9  100.39
 32.0776  10288  100.358
 32.1196  10368.8  100.831
 32.1616  10523.6  101.016
 32.2036  10134.9  99.6659
 32.2456  10102.6  99.9122
 32.2876  10313.8  100.242
 32.3296  10124.9  99.4571
 32.3716  10080.3  99.3471
 32.4136  10037.6  99.3646
 32.4556  10136.4  99.2572
 32.4976  10127.6  99.0475
 32.5396  10047.3  98.7356
 32.5816  9993.2  98.5895
 32.6236  10040.4  98.9068
 32.6656  10165.8  100.082
 32.7076  10053.3  99.1655
 32.7496  10074  98.9066
 32.7916  10094.6  98.9744
 32.8336  10098.1  99.0955
 32.8756  10010  98.3544
 32.9176  9837.89  98.0076
 32.9596  9814.18  97.9784
 33.0016  9940.78  98.3988
 33.0436  9994.41  98.8389
 33.0856  9897.51  98.4407
 33.1276  9803.1  97.6889
 33.1696  9871.15  97.87
 33.2116  10064.2  99.066
 33.2536  9958.21  98.5268
 33.2956  9894.14  98.3061
 33.3376  9798.65  97.5527
 33.3796  9805.55  97.8079
 33.4216  9937.12  98.0242
 33.4636  9984.71  98.4238
 33.5056  9819.9  97.8682
 33.5476  9801.44  97.7596
 33.5896  9915.4  98.0622
 33.6316  9821.11  97.9386
 33.6736  9673.99  97.4644
 33.7156  9718.73  97.7495
 33.7576  9923.54  98.3832
 33.7996  9787.31  97.4602
 33.8416  9598.77  96.6932
 33.8836  9756.49  97.2635
 33.9256  9753.38  97.307
 33.9676  9889.17  97.8762
 34.0096  9629.08  96.904
 34.0516  9655.29  96.6588
 34.0936  9626.89  96.8018
 34.1356  9763.78  97.2104
 34.1776  9628.66  96.5498
 34.2196  9596.46  96.5652
 34.2616  9495.92  96.2113
 34.3036  9597.1  96.9759
 34.3456  9631.63  96.8984
 34.3876  9502.44  96.2063
 34.4296  9503.1  95.8782
 34.4716  9637.05  96.7209
 34.5136  9591.83  96.7058
 34.5556  9424.8  96.127
 34.5976  9560.1  96.6059
 34.6396  9333.37  95.1493
 34.6816  9523.59  96.2312
 34.7236  9515.62  95.9662
 34.7656  9359.72  95.3762
 34.8076  9452.27  96.187
 34.8496  9479.28  96.1815
 34.8916  9454.08  95.9218
 34.9336  9515.72  96.1971
 34.9756  9522.11  96.1478
 35.0176  9449.19  96.3286
 35.0596  9299.75  95.3842
 35.1016  9366.91  95.4828
 35.1436  9404.25  95.333
 35.1856  9314.48  95.0139
 35.2276  9360.94  95.4458
 35.2696  9290.13  95.2776
 35.3116  9368.06  95.7764
 35.3536  9270.72  94.9691
 35.3956  9261.93  94.6177
 35.4376  9354.63  95.6749
 35.4796  9282.99  95.3736
 35.5216  9307.74  95.4491
 35.5636  9133.8  95.3329
 35.6056  9277.28  95.0566
 35.6476  9241.34  94.7624
 35.6896  9439.91  95.9602
 35.7316  9253.07  94.8904
 35.7736  9163.72  94.6333
 35.8156  9151.37  94.5676
 35.8576  9289.26  95.5491
 35.8996  9445.25  96.2924
 35.9416  9673.03  96.8392
 35.9836  9095.13  94.3535
 36.0256  9251.04  95.179
 36.0676  9170.63  94.2814
 36.1096  9205.18  94.835
 36.1516  9234.46  94.8676
 36.1936  9143.06  94.2424
 36.2356  9111.47  94.7478
 36.2776  9101.91  94.1476
 36.3196  9002.92  93.2893
 36.3616  9031.61  93.581
 36.4036  9107.77  94.0388
 36.4456  9138.33  94.4178
 36.4876  8957.99  93.4022
 36.5296  9043.28  93.9024
 36.5716  9089.96  94.9549
 36.6136  9012.3  93.2866
 36.6556  9102.08  93.9448
 36.6976  9048.7  94.2016
 36.7396  9091.35  94.1346
 36.7816  9010.01  94.1085
 36.8236  8900.07  93.4509
 36.8656  8720.22  92.5482
 36.9076  8811.92  93.0693
 36.9496  8728.57  92.4812
 36.9916  8854.54  92.7602
 37.0336  8989.52  93.7954
 37.0756  8833.73  92.7653
 37.1176  8801.1  92.8735
 37.1596  8783.22  92.7894
 37.2016  8820.04  93.1621
 37.2436  8907.39  92.9609
 37.2856  8902.36  93.1871
 37.3276  8878.13  92.4033
 37.3696  8715.36  92.4652
 37.4116  8728.03  92.4339
 37.4536  8710.76  92.2025
 37.4956  8655.59  91.9551
 37.5376  8751.77  94.1004
 37.5796  8773.24  94.1544
 37.6216  8472.92  90.7471
 37.6636  8618.94  91.4145
 37.7056  8690.06  91.9816
 37.7476  8855.56  92.3749
 37.7896  8609.28  91.6104
 37.8316  8577.36  91.5991
 37.8736  8686.05  91.6963
 37.9156  8577.87  91.1152
 37.9576  8659.97  91.4513
 37.9996  8524.29  90.4379
 38.0416  8519.74  91.2418
 38.0836  8719.05  92.2073
 38.1256  8587.82  91.476
 38.1676  8427.72  90.748
 38.2096  8643.73  91.508
 38.2516  8738.3  92.2317
 38.2936  8677.87  91.6991
 38.3356  8671.11  91.5926
 38.3776  8553.22  91.233
 38.4196  8505.39  90.8252
 38.4616  8566.33  91.4017
 38.5036  8624.59  91.5475
 38.5456  8506.04  91.7842
 38.5876  8625.23  92.4456
 38.6296  8508.68  90.7659
 38.6716  8579.42  90.9336
 38.7136  8529.44  90.6097
 38.7556  8590.99  91.4572
 38.7976  8631.14  91.6069
 38.8396  8469.12  91.2136
 38.8816  8514.87  91.2392
 38.9236  8424.97  90.5546
 38.9656  8451.87  90.6097
 39.0076  8555.15  90.5455
 39.0496  8621.5  91.4569
 39.0916  8621.43  91.0758
 39.1336  8455.05  90.6369
 39.1756  8492.14  90.9014
 39.2176  8499.26  91.4967
 39.2596  8504.62  91.4392
 39.3016  8555.61  91.2738
 39.3436  8451.86  91.1512
 39.3856  8376.16  90.1768
 39.4276  8658.47  92.1952
 39.4696  8543.77  91.2005
 39.5116  8504.03  91.516
 39.5536  8526.4  92.0792
 39.5956  8569.39  91.3834
 39.6376  8445.03  90.7154
 39.6796  8408.36  90.2565
 39.7216  8409.35  90.362
 39.7636  8421.43  91.0117
 39.8056  8381.35  90.5671
 39.8476  8299.62  90.3885
 39.8896  8454.78  90.8416
 39.9316  8413.74  90.8865
 39.9736  8475.66  90.7795
 40.0156  8465.7  90.5378
 40.0576  8387.08  90.4901
 40.0996  8545.34  90.4913
 40.1416  8440.39  90.7536
 40.1836  8446.4  90.6701
 40.2256  8376.46  90.3288
 40.2676  8358.11  90.3464
 40.3096  8473.38  90.8913
 40.3516  8482.4  91.0623
 40.3936  8592.62  91.1815
 40.4356  8355.21  90.1248
 40.4776  8402.79  90.8015
 40.5196  8397.16  90.898
 40.5616  8497.98  91.0678
 40.6036  8319.81  90.3726
 40.6456  8416.11  90.493
 40.6876  8620.26  91.5711
 40.7296  8501.44  91.0823
 40.7716  8480.23  91.0849
 40.8136  8392.1  90.5639
 40.8556  8378.05  90.6174
 40.8976  8491.27  91.1531
 40.9396  8361.47  90.8063
 40.9816  8562.49  91.156
 41.0236  8535.43  90.7815
 41.0656  8567.76  91.5149
 41.1076  8488.59  90.8595
 41.1496  8526.12  90.9622
 41.1916  8420.23  90.7301
 41.2336  8377.51  90.4829
 41.2756  8279.66  89.5541
 41.3176  8410.11  90.8856
 41.3596  8419.6  90.6572
 41.4016  8319.65  90.389
 41.4436  8459.58  90.9266
 41.4856  8452.68  91.0524
 41.5276  8367.32  90.6153
 41.5696  8365.54  90.2061
 41.6116  8275.68  90.1381
 41.6536  8400.35  90.675
 41.6956  8382.11  90.6297
 41.7376  8311.86  90.2814
 41.7796  8339.33  90.3605
 41.8216  8408.54  90.9261
 41.8636  8397.56  90.8067
 41.9056  8206  89.5429
 41.9476  8491.19  91.3263
 41.9896  8377.44  90.3715
 42.0316  8402.74  90.5926
 42.0736  8179.79  89.4971
 42.1156  8226.94  89.5923
 42.1576  8240.93  89.7697
 42.1996  8364.58  90.5835
 42.2416  8319.86  89.9183
 42.2836  8266.65  89.7436
 42.3256  8119.54  89.0539
 42.3676  8292.19  89.7938
 42.4096  8341.44  90.0233
 42.4516  8272.35  89.7419
 42.4936  8140.58  89.0958
 42.5356  8256.98  89.8663
 42.5776  8207.53  89.5292
 42.6196  8325.51  90.2354
 42.6616  8130.97  89.344
 42.7036  8167.03  88.9151
 42.7456  8240.92  89.677
 42.7876  8329.55  90.2696
 42.8296  8194.17  89.3563
 42.8716  8159.4  89.3287
 42.9136  8223.56  89.4655
 42.9556  8415.78  90.6452
 42.9976  8260.79  89.7701
 43.0396  8209.72  89.208
 43.0816  8082.6  88.8931
 43.1236  8145.47  89.3119
 43.1656  8156.26  89.1976
 43.2076  8160.67  89.3192
 43.2496  8136.81  89.0001
 43.2916  8068.38  89.0016
 43.3336  8198.89  89.5546
 43.3756  8191.93  89.2639
 43.4176  8111.25  88.9059
 43.4596  8028.82  88.3036
 43.5016  8181.86  89.5595
 43.5436  8186.85  89.4729
 43.5856  8087.13  88.963
 43.6276  8208.65  89.5222
 43.6696  8122.55  89.2048
 43.7116  8230.92  89.3868
 43.7536  8149.18  89.4422
 43.7956  8059.84  90.1483
 43.8376  8209.61  89.5157
 43.8796  8255.12  89.8409
 43.9216  8261.69  89.7974
 43.9636  8259.07  89.8888
 44.0056  8202.21  89.8236
 44.0476  8159.64  89.2055
 44.0896  8216.73  89.8762
 44.1316  8163.39  89.237
 44.1736  8126.09  89.016
 44.2156  8100.17  88.7258
 44.2576  7962.92  88.3018
 44.2996  8216.01  89.6657
 44.3416  8100.36  88.7815
 44.3836  8013.79  88.6401
 44.4256  8018.1  88.2996
 44.4676  8067.22  88.7333
 44.5096  8155.96  89.368
 44.5516  8148.29  89.2778
 44.5936  7954.79  88.1766
 44.6356  8147.56  88.9656
 44.6776  8054.58  88.7877
 44.7196  8198.96  89.8911
 44.7616  7968.58  89.9736
 44.8036  7945.51  88.2158
 44.8456  7971.74  88.5679
 44.8876  7887.75  87.946
 44.9296  7964.3  87.8243
 44.9716  7772.21  87.2034
 45.0136  7965.5  88.2019
 45.0556  7800.02  87.2454
 45.0976  7833.43  87.6225
 45.1396  7743.26  86.8789
 45.1816  7913.28  87.7486
 45.2236  7917.1  87.6508
 45.2656  7925.08  88.2279
 45.3076  7859.56  87.6497
 45.3496  7896.67  88.1534
 45.3916  7729.91  87.4698
 45.4336  7738.9  87.3739
 45.4756  7828.18  87.7453
 45.5176  7662.19  86.3981
 45.5596  7907.84  87.9166
 45.6016  7811.03  87.7893
 45.6436  7833.33  87.0833
 45.6856  7821.68  87.7024
 45.7276  7887.79  89.4371
 45.7696  7752.78  88.3086
 45.8116  7961.4  88.9353
 45.8536  7674.18  87.1996
 45.8956  7797.34  87.2247
 45.9376  7749.83  86.4085
 45.9796  7637.28  86.4717
 46.0216  7740.44  87.4199
 46.0636  7873.14  87.2865
 46.1056  7763.22  86.6482
 46.1476  7698.67  86.8962
 46.1896  7820.89  87.7398
 46.2316  7747.94  87.1889
 46.2736  7620.42  86.8168
 46.3156  7701.4  86.8845
 46.3576  7689.53  87.016
 46.3996  7584.03  86.588
 46.4416  7761.17  87.156
 46.4836  7636.55  86.8182
 46.5256  7715.46  87.1991
 46.5676  7638.23  86.882
 46.6096  7758  87.5063
 46.6516  7801.34  86.7551
 46.6936  7670.35  86.4985
 46.7356  7626.28  86.3893
 46.7776  7722.89  87.7947
 46.8196  7766.68  87.6304
 46.8616  7682.37  87.0837
 46.9036  7750.97  87.1292
 46.9456  7852.33  87.3244
 46.9876  7711.41  86.6149
 47.0296  7823.43  87.9473
 47.0716  7665.96  86.8774
 47.1136  7584.59  86.1038
 47.1556  7791.67  87.1291
 47.1976  7770.69  87.0996
 47.2396  7763.22  87.4544
 47.2816  7684.05  86.7061
 47.3236  7657.06  86.9408
 47.3656  7901.21  88.2429
 47.4076  7845.1  87.7153
 47.4496  7709.02  87.0561
 47.4916  7596.85  86.6108
 47.5336  7785.26  87.4936
 47.5756  7798.53  87.6941
 47.6176  7629.58  86.6263
 47.6596  7778.39  87.1698
 47.7016  7845.28  87.363
 47.7436  7837.79  87.6797
 47.7856  7629.09  86.5188
 47.8276  7594.98  86.3783
 47.8696  7656.15  86.8015
 47.9116  7689.62  86.6921
 47.9536  7803.16  87.2709
 47.9956  7627.24  87.0035
 48.0376  7568.22  86.4455
 48.0796  7669.46  87.1599
 48.1216  7827.8  87.8692
 48.1636  7907.65  87.8622
 48.2056  7818.02  87.6184
 48.2476  7680.16  87.1704
 48.2896  7734.18  87.3877
 48.3316  7736.14  87.3447
 48.3736  7644.8  86.8523
 48.4156  7676.59  86.8708
 48.4576  7619.69  86.8341
 48.4996  7821.31  87.4311
 48.5416  7619.71  86.618
 48.5836  7660.62  86.5323
 48.6256  7571.23  86.2549
 48.6676  7723.8  87.6418
 48.7096  7673.59  86.6044
 48.7516  7701.32  86.8963
 48.7936  7667.57  86.7715
 48.8356  7646.65  86.6984
 48.8776  7602.7  86.9804
 48.9196  7665.61  86.7627
 48.9616  7684.65  87.2752
 49.0036  7572.72  86.974
 49.0456  7689.3  87.6326
 49.0876  7659.69  87.1061
 49.1296  7417.36  85.7697
 49.1716  7586.2  86.6009
 49.2136  7692.34  87.1557
 49.2556  7692  87.1549
 49.2976  7499.48  86.1177
 49.3396  7492.88  86.1583
 49.3816  7615.1  86.2679
 49.4236  7608.64  86.6735
 49.4656  7704.3  87.2251
 49.5076  7641.23  86.5941
 49.5496  7624.98  86.5831
 49.5916  7712.83  86.9871
 49.6336  7606.82  86.6029
 49.6756  7525.08  86.3653
 49.7176  7496.42  86.1267
 49.7596  7550.31  86.2097
 49.8016  7660.35  86.7778
 49.8436  7628.87  86.8965
 49.8856  7492.27  86.1165
 49.9276  7661.08  87.1754
 49.9696  7610.85  86.8822
 50.0116  7647.19  87.2475
 50.0536  7626.17  87.0558
 50.0956  7599.39  86.9581
 50.1376  7467.68  85.9116
 50.1796  7570.16  86.7541
 50.2216  7503.66  86.3923
 50.2636  7515.33  86.0452
 50.3056  7558.76  86.4799
 50.3476  7519.08  86.2871
 50.3896  7324.68  85.1189
 50.4316  7585.43  86.4592
 50.4736  7434.95  85.8151
 50.5156  7631.24  86.9446
 50.5576  7580.67  86.4063
 50.5996  7510.11  86.2751
 50.6416  7510.76  86.2172
 50.6836  7491.67  86.1754
 50.7256  7570.91  86.5633
 50.7676  7414.87  85.9356
 50.8096  7483.54  85.9002
 50.8516  7467.81  86.2382
 50.8936  7588.97  86.7062
 50.9356  7680.12  87.3344
 50.9776  7602.65  87.0417
 51.0196  7680.64  87.6421
 51.0616  7725.36  87.1845
 51.1036  7756.43  87.7356
 51.1456  7641.56  86.9956
 51.1876  7623.8  86.1947
 51.2296  7598.43  86.7224
 51.2716  7574.95  86.2726
 51.3136  7561.31  86.6836
 51.3556  7522.68  86.0591
 51.3976  7577.94  86.5389
 51.4396  7423.72  85.9773
 51.4816  7623.68  86.975
 51.5236  7680.84  87.3883
 51.5656  7505.85  85.9687
 51.6076  7483.13  85.9252
 51.6496  7519.34  86.331
 51.6916  7485.28  86.517
 51.7336  7474.09  86.5414
 51.7756  7502.48  86.3866
 51.8176  7599.98  87.0641
 51.8596  7541.31  86.7413
 51.9016  7705.71  87.2649
 51.9436  7463.12  87.3666
 51.9856  7233.79  86.506
 52.0276  7397.75  85.8934
 52.0696  7249.26  85.1032
 52.1116  7374.55  85.9473
 52.1536  7168.04  84.6279
 52.1956  7427.79  85.5783
 52.2376  7416.75  85.6846
 52.2796  7306.33  84.8465
 52.3216  7106.54  84.414
 52.3636  7398.13  85.6817
 52.4056  7194.08  84.3359
 52.4476  7188.57  84.6914
 52.4896  7162.41  84.5934
 52.5316  7243.64  85.0955
 52.5736  7333.25  85.3591
 52.6156  7230.17  85.1334
 52.6576  7453.83  85.8672
 52.6996  7149.63  85.1126
 52.7416  7360.47  86.2001
 52.7836  7368.21  86.1035
 52.8256  7318.39  84.9845
 52.8676  7130.78  84.5201
 52.9096  7383.99  86.0844
 52.9516  7392.32  86.5267
 52.9936  7306.66  86.4534
 53.0356  7183.79  84.6785
 53.0776  7161.82  84.828
 53.1196  7230.29  85.3611
 53.1616  7130.33  84.8039
 53.2036  7044.93  84.255
 53.2456  7108.31  84.7349
 53.2876  7216.09  85.0732
 53.3296  7193.83  85.2876
 53.3716  7139.96  84.684
 53.4136  7182.67  85.0965
 53.4556  7103.38  84.6617
 53.4976  7072.85  84.3268
 53.5396  7368.87  86.5033
 53.5816  7146.59  84.7734
 53.6236  7146.09  85.1421
 53.6656  7306.06  85.7118
 53.7076  7259.16  85.3936
 53.7496  7028.3  84.1383
 53.7916  7204.94  85.3332
 53.8336  7092.86  84.5536
 53.8756  7044.19  84.8474
 53.9176  7306.65  85.7199
 53.9596  7277.7  86.3439
 54.0016  7237.67  85.411
 54.0436  7118.99  84.9285
 54.0856  7233.75  85.0044
 54.1276  7190.44  84.9569
 54.1696  7159.37  84.9542
 54.2116  7195.34  84.9141
 54.2536  7200.19  84.7555
 54.2956  7278.68  85.2656
 54.3376  7109.11  84.775
 54.3796  7166.87  85.0164
 54.4216  7153.35  84.9855
 54.4636  7243.91  85.4716
 54.5056  7243.49  85.2727
 54.5476  7189.51  85.3111
 54.5896  7086.68  84.5145
 54.6316  7205.94  85.0803
 54.6736  7312.55  85.7271
 54.7156  7229.85  85.3118
 54.7576  7086.59  84.4791
 54.7996  7191.63  85.241
 54.8416  7135.77  84.9639
 54.8836  6978.69  84.1377
 54.9256  7125.91  84.7392
 54.9676  7321.55  85.7533
 55.0096  7187.06  85.0472
 55.0516  7175.79  85.1549
 55.0936  7128.7  84.5443
 55.1356  7150.01  84.7249
 55.1776  7098.19  84.6949
 55.2196  7151.34  84.7866
 55.2616  7047.58  84.3801
 55.3036  7154  85.1908
 55.3456  7103.8  85.0548
 55.3876  7148.58  85.0549
 55.4296  7199.87  85.3361
 55.4716  7123.69  84.9169
 55.5136  7120.43  84.6368
 55.5556  7049.18  84.278
 55.5976  7111.4  84.7182
 55.6396  7002.58  83.9996
 55.6816  7140.91  84.7107
 55.7236  7136.25  84.717
 55.7656  7167.58  84.6539
 55.8076  7234.42  85.0291
 55.8496  7002.16  83.9762
 55.8916  7103.81  84.773
 55.9336  7023.22  84.1304
 55.9756  7022.28  84.0033
 56.0176  7056.02  84.3828
 56.0596  7103.47  84.6447
 56.1016  7114.71  84.7558
 56.1436  6991.57  84.266
 56.1856  7129.25  84.8127
 56.2276  7021.36  84.2253
 56.2696  7159.34  85.0185
 56.3116  7018.6  84.6078
 56.3536  7145.91  85.0118
 56.3956  7063.48  84.5115
 56.4376  7088.69  84.6957
 56.4796  7129.11  84.722
 56.5216  7120.47  85.074
 56.5636  7159.34  84.8697
 56.6056  7042.6  84.4106
 56.6476  7032.01  83.9566
 56.6896  7116.57  84.9367
 56.7316  7111.63  84.817
 56.7736  7177.99  85.2071
 56.8156  7099.16  84.7283
 56.8576  7100.16  84.6826
 56.8996  7035.07  84.2254
 56.9416  6887.23  83.6578
 56.9836  7036  84.0241
 57.0256  7009.85  84.211
 57.0676  6957.79  84.032
 57.1096  7191.9  85.2117
 57.1516  7126.99  84.8565
 57.1936  7003.17  83.8773
 57.2356  7094.39  84.772
 57.2776  7027.41  84.3155
 57.3196  7085.97  85.069
 57.3616  7021.4  84.1374
 57.4036  7073.08  84.5147
 57.4456  6934.57  83.6384
 57.4876  7095.41  84.4507
 57.5296  6963.15  83.9253
 57.5716  6963.58  84.0114
 57.6136  7068.04  84.4561
 57.6556  7078.17  84.6503
 57.6976  7084.09  84.5049
 57.7396  7012.32  84.4684
 57.7816  6895.66  84.1505
 57.8236  6978.06  84.435
 57.8656  7052.45  84.5169
 57.9076  7014.02  84.3114
 57.9496  7115.49  85.2919
 57.9916  7026.04  84.2398
 58.0336  6987.25  84.3059
 58.0756  6947.21  83.6661
 58.1176  7092.22  84.5275
 58.1596  6983.45  84.4599
 58.2016  7248.21  85.2463
 58.2436  7133.51  85.0103
 58.2856  7133.32  84.9268
 58.3276  7159.62  85.4842
 58.3696  7008.65  84.3175
 58.4116  6984.15  84.0239
 58.4536  7151.45  84.9022
 58.4956  7071.9  84.6212
 58.5376  7131.72  84.5116
 58.5796  7088.39  84.7132
 58.6216  7101.49  84.5942
 58.6636  7199.88  85.4069
 58.7056  7084.79  84.5698
 58.7476  7216.83  85.8405
 58.7896  7070.37  84.5768
 58.8316  7041.59  84.4015
 58.8736  7174.58  85.2081
 58.9156  7139.11  85.0418
 58.9576  7047.08  84.8389
 58.9996  7109.62  84.4063
 59.0416  7223.99  85.4747
 59.0836  7217.12  85.3439
 59.1256  7024.26  84.9533
 59.1676  7073.48  85.5849
 59.2096  7036.03  84.6042
 59.2516  7177.41  84.9933
 59.2936  7074.04  84.7341
 59.3356  7084.33  84.6633
 59.3776  7064.62  84.7282
 59.4196  7086.04  84.7871
 59.4616  7148.06  85.0051
 59.5036  7132.66  84.9521
 59.5456  7195.96  84.9933
 59.5876  7279.7  85.6962
 59.6296  6885.9  83.42
 59.6716  7011.04  84.237
 59.7136  7068.48  84.5687
 59.7556  6889.26  83.6355
 59.7976  6941.8  83.6773
 59.8396  7087.87  84.4386
 59.8816  7114.12  85.1871
 59.9236  7068.44  84.5273
 59.9656  7103.98  85.0222
 60.0076  7196  84.8697
 60.0496  7011.06  84.315
 60.0916  7131.39  84.4031
 60.1336  6970.28  84.6337
 60.1756  7047.71  86.3818
 60.1996  0.0000000E+00  0.0000000E+00