File: docs/examples/XRD/IS17_D/Data/IS17_D_fresh/17_D_fresh_f00003.xye
# /beamlines/bl04/projects/cycle2025-II/20250340211-lsimonelli/DATA/IS17_D_fresh/17_D_fresh_f00003.xye : mythproc.py merge -s 0.006 -l 0.5 -f /beamlines/bl04/inhouse/ff/FlatField/ff_20Nov2024rod8mm60s_17keV.raw -b True -c true -o xye /beamlines/bl04/projects/cycle2025-II/20250340211-lsimonelli/DATA/IS17_D_fresh/17_D_fresh_00003.dat
# IsMon = [6747461, 6744475, 6748218]  IsPos = [-1.4999, -2.4885, -3.4986]
# Wave = 0.4962  CalPath /beamlines/bl04/projects/cycle2025-II/20250340211-lsimonelli/DATA/Align/Si_Pos1_25keV_f00001.cal
# Date = 2025-09-24_02:15:50 Dt = 4.8000  Bin = 0.0060  <imon> = 6746718 +/- 1616 (Min/Max) 6744475 / 6748218
# icurr 248.8259  mocoIn 1.6979E-05  mocoOut 0.7969  i15 7.06206e+06  imon 6.74672e+06  i7 5.6667  iEMpd_timer 4.8000  iEMpd_1 3.5914E-08  iEMpd_2 7.8463E-08  iEMpd_3 1.6523E-08  iEMpd_4 4.8005E-08  iEMhp_timer 4.8000  iEMhp_1 4.8632E-06  iEMhp_2 -2.5211E-08  iEMhp_3 -2.3906E-08  iEMhp_4 -2.2572E-08
#      9776
 1.5856  37844.7  199.748
 1.6276  45297.7  214.783
 1.6696  51900.8  229.095
 1.7116  60804.9  248.454
 1.7536  69418.4  264.338
 1.7956  74633.6  274.772
 1.8376  69954.8  266.442
 1.8796  58569.2  242.008
 1.9216  47393.7  218.562
 1.9636  39790  199.442
 2.0056  35334.8  187.217
 2.0476  32895.2  182.619
 2.0896  31785.6  178.46
 2.1316  31012.5  175.429
 2.1736  29402.6  172.17
 2.2156  30008.3  172.538
 2.2576  28735.3  169.444
 2.2996  27647.8  166.817
 2.3416  28261.8  167.312
 2.3836  27585  165.399
 2.4256  26691  163.227
 2.4676  26615.2  162.764
 2.5096  26376.9  162.087
 2.5516  25887.5  164.333
 2.5936  25933.5  161.141
 2.6356  25402  160.153
 2.6776  25412.1  159.072
 2.7196  24941.6  158.125
 2.7616  24980  158.011
 2.8036  24797.1  157.617
 2.8456  24777.5  158.155
 2.8876  24234.5  156.27
 2.9296  23992.8  155.632
 2.9716  23807.7  154.533
 3.0136  23462.4  153.473
 3.0556  23559  154.185
 3.0976  23450.8  152.778
 3.1396  23496.6  153.648
 3.1816  23028.7  152.041
 3.2236  23070.5  152.177
 3.2656  23244.9  151.798
 3.3076  23192  153.062
 3.3496  23023.5  151.706
 3.3916  23684.8  153.448
 3.4336  23932.3  154.815
 3.4756  24389  156.201
 3.5176  25281.4  158.85
 3.5596  24932.5  160.13
 3.6016  25114.8  158.366
 3.6436  24386.1  157.149
 3.6856  23872.2  153.79
 3.7276  23262.2  152.904
 3.7696  23048.4  152.386
 3.8116  22747.7  151.27
 3.8536  22690.5  151.013
 3.8956  22867.6  151.431
 3.9376  22632.7  150.935
 3.9796  22491.5  149.949
 4.0216  22866.4  150.229
 4.0636  22765.7  151.378
 4.1056  22835.4  151.25
 4.1476  23004.3  152.111
 4.1896  23158.6  152.485
 4.2316  23324.3  152.849
 4.2736  23949.2  154.665
 4.3156  24047.7  155.219
 4.3576  24970.7  158.11
 4.3996  25130.9  158.673
 4.4416  25615.2  159.97
 4.4836  26078.5  161.564
 4.5256  26374.2  163.084
 4.5676  26371.3  163.337
 4.6096  26810.1  163.344
 4.6516  27573.1  165.368
 4.6936  27649.2  166.397
 4.7356  27768.5  166.594
 4.7776  28016.3  167.172
 4.8196  27319  165.719
 4.8616  27241.7  165.091
 4.9036  26839.9  163.493
 4.9456  26872.3  164.247
 4.9876  26203.6  162.09
 5.0296  26626.6  163.197
 5.0716  26700  164.073
 5.1136  26741.4  164.04
 5.1556  27066  164.505
 5.1976  27345  165.338
 5.2396  27698  166.102
 5.2816  27421.2  165.724
 5.3236  27723.6  166.347
 5.3656  27162.1  165.571
 5.4076  26894.4  164.915
 5.4496  27376.1  165.866
 5.4916  27374.9  165.609
 5.5336  27379.2  165.635
 5.5756  27131.3  164.911
 5.6176  27302.5  164.861
 5.6596  27450.8  166.286
 5.7016  27651.7  166.155
 5.7436  27836.4  166.974
 5.7856  27869  167.131
 5.8276  28298.8  168.145
 5.8696  28358.6  168.493
 5.9116  28367.7  169.1
 5.9536  28435.1  169.08
 5.9956  28813.2  169.558
 6.0376  28934.3  170.562
 6.0796  29242.3  171.302
 6.1216  29207.1  171.406
 6.1636  29491.6  171.285
 6.2056  29588.6  172.244
 6.2476  29517.9  171.903
 6.2896  29739.7  172.23
 6.3316  29647.4  172.131
 6.3736  30014  173.091
 6.4156  30098.1  173.224
 6.4576  30209.1  173.142
 6.4996  30458.2  174.352
 6.5416  30315.8  174.077
 6.5836  30493.5  174.825
 6.6256  30481.9  174.338
 6.6676  31297.9  176.221
 6.7096  30887.4  175.917
 6.7516  31287.2  176.707
 6.7936  31262.6  175.805
 6.8356  31715.2  177.407
 6.8776  32009.5  179.055
 6.9196  31980.3  179.374
 6.9616  32453.1  180.104
 7.0036  32984.9  181.241
 7.0456  32791.2  179.993
 7.0876  32785.4  181.693
 7.1296  32779.2  180.796
 7.1716  32843.4  180.496
 7.2136  32447.5  179.197
 7.2556  32788.3  180.299
 7.2976  33029.2  181.472
 7.3396  32999.2  181.608
 7.3816  32789.7  181.238
 7.4236  33280.4  181.873
 7.4656  33258.3  181.294
 7.5076  33402.8  181.813
 7.5496  33392.9  182.334
 7.5916  33463.3  182.546
 7.6336  33923.4  183.707
 7.6756  33728.5  183.027
 7.7176  34460.9  185.3
 7.7596  34385.6  186.398
 7.8016  34409.4  188.631
 7.8436  35270.9  187.625
 7.8856  35602.9  188.106
 7.9276  36302.1  190.344
 7.9696  36394.1  190.912
 8.0116  37617.1  192.962
 8.0536  37519.6  192.597
 8.0956  37709.6  194.301
 8.1376  38294.5  195.255
 8.1796  38260.5  195.729
 8.2216  39180.7  196.76
 8.2636  39191.7  197.047
 8.3056  39231.4  197.93
 8.3476  39802.9  198.683
 8.3896  39435.8  198.293
 8.4316  39462  198.084
 8.4736  40311.2  199.655
 8.5156  39639.7  198.27
 8.5576  39395.8  198.667
 8.5996  39357.7  197.404
 8.6416  39580.5  199.272
 8.6836  39187.2  198.09
 8.7256  39979.6  199.529
 8.7676  39033.9  200.086
 8.8096  38342.8  195.545
 8.8516  38345.5  195.179
 8.8936  38048.9  194.298
 8.9356  37731.2  193.843
 8.9776  38033  194.718
 9.0196  37736.1  193.622
 9.0616  38146.5  194.13
 9.1036  37465.1  193.602
 9.1456  38071.3  194.505
 9.1876  37484.7  192.953
 9.2296  38061.4  193.797
 9.2716  37346.1  192.053
 9.3136  37134.7  191.488
 9.3556  37326.6  191.966
 9.3976  35969.5  188.986
 9.4396  36520.7  190.309
 9.4816  36127.7  189.141
 9.5236  35981.7  188.67
 9.5656  35775.7  188.423
 9.6076  35797.5  189.055
 9.6496  35566.6  188.376
 9.6916  35637.2  188.541
 9.7336  35398.4  187.68
 9.7756  36252.1  191.341
 9.8176  35112.7  187.704
 9.8596  35056.4  185.955
 9.9016  34439.3  184.309
 9.9436  34210  183.599
 9.9856  33915.1  183.005
 10.0276  33428  182.838
 10.0696  33701.5  182.599
 10.1116  32908.6  180.702
 10.1536  32783  180.547
 10.1956  32359.9  178.951
 10.2376  31759.3  176.779
 10.2796  32092.8  177.848
 10.3216  31891.3  177.547
 10.3636  31684.8  176.999
 10.4056  31557.8  177.08
 10.4476  31233.6  175.777
 10.4896  31688  176.488
 10.5316  30647.6  174.284
 10.5736  30806.1  175.154
 10.6156  30404.2  173.762
 10.6576  30327.1  172.087
 10.6996  30158.8  172.28
 10.7416  30019.9  172.121
 10.7836  29907.5  172.531
 10.8256  29370.2  171.408
 10.8676  29741.5  172.015
 10.9096  28962.3  169.773
 10.9516  28739.5  168.009
 10.9936  28688.9  168.072
 11.0356  28877.1  169.287
 11.0776  28413.5  167.216
 11.1196  28192.3  167.327
 11.1616  27861.9  166.029
 11.2036  27790.5  165.671
 11.2456  28049.3  167.17
 11.2876  27686.7  165.795
 11.3296  27256.2  164.389
 11.3716  27733.7  165.518
 11.4136  27704  166.352
 11.4556  27746.9  166.144
 11.4976  27939.8  165.659
 11.5396  28556.4  167.663
 11.5816  28568.1  168.169
 11.6236  27941.6  166.78
 11.6656  27497.8  164.344
 11.7076  26867.2  163.307
 11.7496  26824.3  167.198
 11.7916  26496.7  161.434
 11.8336  26497.2  162.372
 11.8756  26114.7  160.685
 11.9176  26487.7  161.733
 11.9596  26002  160.172
 12.0016  26051.4  161.15
 12.0436  25762.9  159.645
 12.0856  25814.8  160.37
 12.1276  25939  160.651
 12.1696  25766.8  159.236
 12.2116  26190  160.543
 12.2536  25606.3  159.597
 12.2956  25851.5  159.675
 12.3376  25306.5  158.183
 12.3796  25584.1  159.525
 12.4216  25632.5  158.872
 12.4636  25213.4  158.494
 12.5056  25521.9  158.715
 12.5476  25833.9  159.205
 12.5896  25628.2  159.22
 12.6316  25014.4  157.446
 12.6736  25520.8  159.394
 12.7156  25092.4  158.058
 12.7576  25425.2  159.366
 12.7996  25656.6  158.687
 12.8416  25131.1  158.128
 12.8836  25996.8  160.632
 12.9256  26081.6  159.893
 12.9676  26311.6  161.042
 13.0096  25671.5  160.166
 13.0516  25875.2  159.838
 13.0936  25804  160.011
 13.1356  26272  160.43
 13.1776  26147  161.047
 13.2196  26305.4  161.198
 13.2616  26219.5  161.258
 13.3036  26087.6  160.816
 13.3456  26221.1  161.385
 13.3876  25981.4  160.127
 13.4296  26160.6  160.831
 13.4716  26160  160.427
 13.5136  26211.2  160.76
 13.5556  26288.5  161.62
 13.5976  26094.2  161.135
 13.6396  26334.3  161.251
 13.6816  25938.5  160.543
 13.7236  26991.5  163.392
 13.7656  25538  159.48
 13.8076  25902.7  159.373
 13.8496  25413.5  158.464
 13.8916  25640.9  160.222
 13.9336  25785.6  159.869
 13.9756  25638.1  158.736
 14.0176  25488  158.978
 14.0596  25280.1  158.299
 14.1016  25046.8  157.949
 14.1436  24926.9  156.687
 14.1856  24832.8  156.703
 14.2276  24451.9  155.979
 14.2696  24607.9  156.316
 14.3116  24425.7  155.647
 14.3536  24065.6  154.678
 14.3956  24216.7  154.882
 14.4376  24272.8  154.819
 14.4796  24030.4  154.036
 14.5216  23728.3  153.894
 14.5636  23438.1  152.498
 14.6056  23635.3  152.705
 14.6476  23544.9  151.622
 14.6896  23316.8  151.436
 14.7316  22650.7  150.296
 14.7736  22756.6  149.794
 14.8156  22686.8  149.606
 14.8576  22406  148.517
 14.8996  22032.8  148.513
 14.9416  21613.5  147.089
 14.9836  21852  147.849
 15.0256  21808.5  146.623
 15.0676  21926.1  147.343
 15.1096  21682.2  146.25
 15.1516  21520.5  146.289
 15.1936  21376.3  145.197
 15.2356  21225  144.974
 15.2776  21006.6  143.796
 15.3196  20473.9  142.994
 15.3616  20575.2  143.089
 15.4036  20354.2  142.175
 15.4456  20723.1  142.851
 15.4876  20361.6  141.507
 15.5296  20169.8  141.146
 15.5716  19931.2  139.89
 15.6136  19727.6  139.52
 15.6556  19800.5  138.981
 15.6976  19866.8  139.294
 15.7396  19538.4  138.762
 15.7816  19493  138.1
 15.8236  19135.6  137.541
 15.8656  19249.9  137.741
 15.9076  18914.7  136.354
 15.9496  18474.3  137.585
 15.9916  18639.7  138.685
 16.0336  18200.7  133.839
 16.0756  18368.7  134.774
 16.1176  18123.8  133.938
 16.1596  17811.2  133.981
 16.2016  17931  133.143
 16.2436  17954.7  133.628
 16.2856  17716.7  132.285
 16.3276  17452  131.718
 16.3696  17537.4  131.844
 16.4116  17511.6  132.231
 16.4536  17533.2  132.084
 16.4956  17352  131.131
 16.5376  17449  131.682
 16.5796  17243.3  130.258
 16.6216  17417.1  131.233
 16.6636  17310.7  130.981
 16.7056  17334.9  130.938
 16.7476  17304.7  130.495
 16.7896  16969.6  129.832
 16.8316  17082.5  130.228
 16.8736  16964.8  130.048
 16.9156  16995.7  130.507
 16.9576  17019.6  131.431
 16.9996  17343.4  133.18
 17.0416  17346.1  131.487
 17.0836  17210.2  130.729
 17.1256  16789.7  129.13
 17.1676  16904.3  129.577
 17.2096  16654.6  128.481
 17.2516  16637.4  128.185
 17.2936  16609.6  128.401
 17.3356  16298.3  127.2
 17.3776  16365  127.659
 17.4196  16662.6  128.487
 17.4616  16408.4  127.438
 17.5036  16246.2  127.189
 17.5456  15962.5  126.727
 17.5876  15847.6  125.288
 17.6296  16020.1  125.781
 17.6716  15684.3  125.035
 17.7136  15561.9  124.694
 17.7556  15644.1  125.322
 17.7976  15642.6  124.928
 17.8396  15606.2  124.4
 17.8816  15570.5  124.799
 17.9236  15477  124.248
 17.9656  15631.9  125.583
 18.0076  15581.1  124.77
 18.0496  15651.8  124.167
 18.0916  15498  124.103
 18.1336  15404.7  123.83
 18.1756  15945.1  125.485
 18.2176  15440.6  123.732
 18.2596  15497.6  123.691
 18.3016  15701.5  124.764
 18.3436  15684.1  124.937
 18.3856  15239.7  123.049
 18.4276  15427.3  123.466
 18.4696  15325.9  123.162
 18.5116  15426.7  123.876
 18.5536  15537  124.677
 18.5956  15102.2  122.464
 18.6376  15306.7  123.715
 18.6796  15172.6  122.475
 18.7216  15128.8  122.874
 18.7636  14922.4  121.924
 18.8056  14946.3  121.983
 18.8476  14934  122.26
 18.8896  15060.7  122.405
 18.9316  15116.4  122.453
 18.9736  14841.5  121.183
 19.0156  15016.9  122.297
 19.0576  14672.8  119.754
 19.0996  15007.2  121.843
 19.1416  14676.1  120.886
 19.1836  14905.1  121.414
 19.2256  14691.9  120.766
 19.2676  14844.2  121.487
 19.3096  14903.4  121.987
 19.3516  14646.1  120.871
 19.3936  14876  121.788
 19.4356  14742.9  121.036
 19.4776  14849.8  121.582
 19.5196  14702.4  120.816
 19.5616  14647.9  120.852
 19.6036  14701.6  120.408
 19.6456  14796.5  121.083
 19.6876  14970.8  121.434
 19.7296  14841.1  121.365
 19.7716  14766.9  121.066
 19.8136  14930.5  122.111
 19.8556  15044.6  122.044
 19.8976  14820.7  121.201
 19.9396  15015.3  121.553
 19.9816  15247.9  122.747
 20.0236  15321.4  123.272
 20.0656  15469.6  123.858
 20.1076  15310.5  123.688
 20.1496  15200.6  123.264
 20.1916  15048.4  122.131
 20.2336  14820.8  121.155
 20.2756  14704.8  121.109
 20.3176  14469.9  119.874
 20.3596  14669.8  120.683
 20.4016  14563.4  120.043
 20.4436  14539.3  120.521
 20.4856  14200  118.882
 20.5276  14236.3  119.499
 20.5696  14259.5  119.053
 20.6116  14232.4  119.227
 20.6536  14234.4  118.783
 20.6956  14094.3  118.26
 20.7376  14191.4  118.919
 20.7796  14055.2  118.02
 20.8216  14270.8  118.617
 20.8636  13884.6  117.364
 20.9056  14088.6  118.178
 20.9476  13795.6  116.779
 20.9896  14163.7  118.201
 21.0316  14165.9  118.104
 21.0736  14024.3  118.032
 21.1156  14002.3  118.115
 21.1576  14107  118.598
 21.1996  13927.1  117.821
 21.2416  13844.3  117.305
 21.2836  13956.6  117.738
 21.3256  13736.8  116.888
 21.3676  13872.9  117.015
 21.4096  13681  116.514
 21.4516  13694.6  116.454
 21.4936  13740.1  116.897
 21.5356  13885.2  117.457
 21.5776  13810.4  116.968
 21.6196  13642.1  116.286
 21.6616  13574.2  116.091
 21.7036  13676.2  116.302
 21.7456  13722.5  116.573
 21.7876  13542.7  115.549
 21.8296  13562.2  115.486
 21.8716  13503.5  115.478
 21.9136  13736.9  116.678
 21.9556  13561.2  115.589
 21.9976  13521.1  115.428
 22.0396  13503.6  115.613
 22.0816  13578.7  116.507
 22.1236  13764.4  116.731
 22.1656  13501.9  115.8
 22.2076  13755.4  116.278
 22.2496  13540.5  115.406
 22.2916  13651.8  115.755
 22.3336  13691.6  116.656
 22.3756  13603.4  116.011
 22.4176  13396.8  114.973
 22.4596  13332.7  115.302
 22.5016  13413.3  115.141
 22.5436  13536  115.531
 22.5856  13722.1  116.587
 22.6276  13595  116.191
 22.6696  13459.6  115.974
 22.7116  13710.6  116.543
 22.7536  13656.8  116.281
 22.7956  13516  114.993
 22.8376  13318.7  114.681
 22.8796  13538.5  115.421
 22.9216  13685.9  116.613
 22.9636  13514.5  115.006
 23.0056  13514.1  115.142
 23.0476  13496.7  115.662
 23.0896  13787.1  116.246
 23.1316  13657.6  116.156
 23.1736  13430.5  118.233
 23.2156  13517.4  115.772
 23.2576  13339.4  115.242
 23.2996  13455  115.517
 23.3416  13165.4  114.794
 23.3836  13469.8  115.298
 23.4256  13168.4  114.142
 23.4676  13160.1  113.795
 23.5096  13172.5  114.553
 23.5516  13096.5  113.483
 23.5936  13274.2  115.178
 23.6356  13504.4  115.83
 23.6776  13107  114.676
 23.7196  13163.2  114.145
 23.7616  13333.3  114.796
 23.8036  13244  114.444
 23.8456  13257.4  114.068
 23.8876  12840.6  112.617
 23.9296  12958.9  113.638
 23.9716  12856.2  112.364
 24.0136  13016.6  113.982
 24.0556  12816.3  112.825
 24.0976  12576.2  111.575
 24.1396  12783.4  115.251
 24.1816  12802.2  114.026
 24.2236  12886.7  113.658
 24.2656  12677.2  112.189
 24.3076  12611.4  112.145
 24.3496  12856.2  113.129
 24.3916  12621.8  112.138
 24.4336  12560.9  112.085
 24.4756  12534.3  111.808
 24.5176  12506.5  111.345
 24.5596  12425.7  111.119
 24.6016  12384.4  111.217
 24.6436  12202.8  109.881
 24.6856  12214.9  109.701
 24.7276  12452.3  111.082
 24.7696  12143  109.805
 24.8116  12243.5  110.457
 24.8536  11951.6  109.111
 24.8956  12187.1  109.911
 24.9376  12106.3  109.501
 24.9796  11977.1  109.272
 25.0216  11794.3  108.542
 25.0636  11870.3  108.54
 25.1056  11913.6  109.188
 25.1476  11880.9  110.995
 25.1896  12002.8  110.019
 25.2316  11883.5  108.6
 25.2736  11884.5  108.37
 25.3156  11736.8  107.768
 25.3576  11817.9  108.572
 25.3996  11741.3  108.196
 25.4416  11852.8  108.699
 25.4836  11501.9  107.612
 25.5256  11730.5  108.025
 25.5676  11758.9  107.883
 25.6096  11454.2  107.05
 25.6516  11794  108.114
 25.6936  11600.6  107.533
 25.7356  11830.2  108.742
 25.7776  11590.5  107.225
 25.8196  11407.1  106.613
 25.8616  11478.5  106.865
 25.9036  11690.4  107.309
 25.9456  11546  107.258
 25.9876  11462.4  106.926
 26.0296  11517.8  106.78
 26.0716  11353.2  106.344
 26.1136  11472.4  106.856
 26.1556  11602  106.722
 26.1976  11336.3  106.53
 26.2396  11464.3  106.524
 26.2816  11472.1  106.922
 26.3236  11514.4  107.208
 26.3656  11414.6  106.538
 26.4076  11616.1  107.693
 26.4496  12896.5  112.875
 26.4916  11543.4  106.844
 26.5336  11427  106.624
 26.5756  11434  106.539
 26.6176  11394.1  106.386
 26.6596  11230.5  105.931
 26.7016  11422.5  106.632
 26.7436  11109.3  105.242
 26.7856  11164.6  105.49
 26.8276  11257.7  105.883
 26.8696  11279.5  105.86
 26.9116  11211.6  105.482
 26.9536  11105.7  105.018
 26.9956  11115  105.104
 27.0376  11006.2  104.801
 27.0796  11097.6  105.012
 27.1216  11046.4  104.801
 27.1636  11007.3  104.784
 27.2056  11003.3  104.647
 27.2476  10909.5  104.204
 27.2896  11002  104.689
 27.3316  10900.2  103.966
 27.3736  10971.7  104.596
 27.4156  10679.7  103.024
 27.4576  10876.2  104.212
 27.4996  10812.2  103.479
 27.5416  10800  103.753
 27.5836  10882.6  103.961
 27.6256  11293.5  106.097
 27.6676  10929.8  104.384
 27.7096  10894.9  104.073
 27.7516  10806.3  103.804
 27.7936  10733.9  103.628
 27.8356  10724.8  103.199
 27.8776  10711.4  103.178
 27.9196  10765.8  103.279
 27.9616  10811.9  103.697
 28.0036  10668.3  102.993
 28.0456  10739.7  103.458
 28.0876  10670.5  103.217
 28.1296  10576.3  102.603
 28.1716  10559.7  102.527
 28.2136  10549.9  102.451
 28.2556  10456.1  102.107
 28.2976  10533.2  102.475
 28.3396  10629.5  102.741
 28.3816  10608.2  102.613
 28.4236  10540.4  102.444
 28.4656  10460  102.091
 28.5076  10454.8  101.686
 28.5496  10441.9  101.899
 28.5916  10501.5  101.984
 28.6336  10256.9  101.136
 28.6756  10511.3  101.567
 28.7176  10399.1  101.585
 28.7596  10267.8  100.842
 28.8016  10416.7  101.691
 28.8436  10333.3  101.44
 28.8856  10326.3  101.245
 28.9276  10387.8  101.8
 28.9696  10349.3  101.275
 29.0116  10247.3  100.944
 29.0536  10147  100.652
 29.0956  10321.5  101.241
 29.1376  10233.8  100.767
 29.1796  10189.5  100.598
 29.2216  10297.7  100.966
 29.2636  10243.7  100.692
 29.3056  10210.9  100.406
 29.3476  10269.4  101.228
 29.3896  10206.9  101.016
 29.4316  10460.9  101.593
 29.4736  10238.7  100.568
 29.5156  10410.4  101.332
 29.5576  10273.9  101.426
 29.5996  10239  100.491
 29.6416  10245.5  100.645
 29.6836  10312.3  100.899
 29.7256  10232.8  101.093
 29.7676  10165.9  100.406
 29.8096  10257.8  100.807
 29.8516  9938.27  99.56
 29.8936  10213.5  101.029
 29.9356  10181.4  100.615
 29.9776  10139.6  100.568
 30.0196  10183.1  100.158
 30.0616  10197.7  100.61
 30.1036  10152.3  100.21
 30.1456  10065.4  100.036
 30.1876  10201  100.67
 30.2296  9989.89  99.5613
 30.2716  10147.4  99.971
 30.3136  10043.3  100.066
 30.3556  10053.2  100.396
 30.3976  9819.51  100.797
 30.4396  10069.6  99.3024
 30.4816  9928.97  98.1968
 30.5236  9949.61  98.3103
 30.5656  9914.46  98.8072
 30.6076  9896.27  98.1388
 30.6496  9824.05  98.1662
 30.6916  9696.13  97.6228
 30.7336  9821.89  98.4084
 30.7756  9770.44  98.4673
 30.8176  9820.24  98.4077
 30.8596  9819.84  98.1724
 30.9016  9696.74  97.8991
 30.9436  9820.68  98.2722
 30.9856  9903.67  98.7959
 31.0276  9762.05  97.6792
 31.0696  9660.25  97.6275
 31.1116  9822.1  98.5531
 31.1536  9721.86  97.9321
 31.1956  9561.77  97.2094
 31.2376  9557.18  97.1974
 31.2796  9676.91  97.332
 31.3216  9750.84  97.646
 31.3636  9832.57  98.7701
 31.4056  9880.26  100.335
 31.4476  9783.93  97.6992
 31.4896  9611.63  97.353
 31.5316  9631.97  96.8947
 31.5736  9799.84  97.4891
 31.6156  9635.23  96.7059
 31.6576  9930.5  98.2809
 31.6996  9822.43  97.411
 31.7416  9689.09  97.8051
 31.7836  9809.77  97.4219
 31.8256  9809.57  97.7817
 31.8676  9880.34  98.0512
 31.9096  9585.2  96.9359
 31.9516  9542.81  96.8821
 31.9936  9618.12  97.0876
 32.0356  9647.78  97.3098
 32.0776  9810.09  98.0028
 32.1196  9832.86  98.2001
 32.1616  9755.46  97.264
 32.2036  9413.86  96.0552
 32.2456  9660.45  97.7062
 32.2876  9724.95  97.3419
 32.3296  9403.37  95.8443
 32.3716  9505.26  96.4681
 32.4136  9461.13  96.4659
 32.4556  9556.15  96.3743
 32.4976  9484.48  95.8506
 32.5396  9449.51  95.7516
 32.5816  9410.88  95.5671
 32.6236  9549.07  96.4565
 32.6656  9617.12  97.3412
 32.7076  9444.33  96.1188
 32.7496  9539.56  96.2531
 32.7916  9381.83  95.4114
 32.8336  9450.91  95.8702
 32.8756  9393.35  95.3758
 32.9176  9206.77  94.8219
 32.9596  9243.58  95.0847
 33.0016  9401.19  95.6897
 33.0436  9284.03  95.2633
 33.0856  9260.51  95.2107
 33.1276  9275.09  95.0187
 33.1696  9416.26  95.5909
 33.2116  9424.77  95.8661
 33.2536  9303.32  95.2336
 33.2956  9340.94  95.5169
 33.3376  9214.33  94.5651
 33.3796  9294.33  95.224
 33.4216  9291.89  94.7872
 33.4636  9314.07  95.0538
 33.5056  9214.76  94.638
 33.5476  9186.92  94.6455
 33.5896  9304.5  94.9962
 33.6316  9158.89  94.5915
 33.6736  9085.9  94.4646
 33.7156  9095.86  94.5643
 33.7576  9256.48  95.0155
 33.7996  9227.77  94.633
 33.8416  9005.54  93.6642
 33.8836  9156.7  94.2256
 33.9256  9116.65  94.0746
 33.9676  9179.06  94.2984
 34.0096  8945.46  93.4016
 34.0516  8956.21  93.0857
 34.0936  8993.65  93.5571
 34.1356  9154.38  94.1288
 34.1776  9066.35  93.6847
 34.2196  8943.5  93.2243
 34.2616  8942.25  93.4188
 34.3036  8920.81  93.5
 34.3456  8980.77  93.568
 34.3876  8817.19  92.6723
 34.4296  8935.63  92.9696
 34.4716  8993.22  93.4343
 34.5136  8908.12  93.1948
 34.5556  8861.16  93.211
 34.5976  9020.06  93.8395
 34.6396  8904.59  92.94
 34.6816  8895.79  93.0088
 34.7236  8913.03  92.876
 34.7656  8898.93  92.9981
 34.8076  8761.8  92.6088
 34.8496  8863.41  92.9965
 34.8916  8835.18  92.7235
 34.9336  8905.73  93.0641
 34.9756  9035.98  93.661
 35.0176  8977.21  93.8885
 35.0596  8804.59  92.8122
 35.1016  8746.53  92.2646
 35.1436  8807.97  92.2643
 35.1856  8810.71  92.4125
 35.2276  8861.17  92.8616
 35.2696  8744.2  92.437
 35.3116  8804.5  92.8508
 35.3536  8678.35  91.8823
 35.3956  8705.08  91.7319
 35.4376  8743.54  92.5105
 35.4796  8812.1  92.9239
 35.5216  8638.34  91.8781
 35.5636  8405.01  91.4527
 35.6056  8750.99  92.317
 35.6476  8749.15  92.208
 35.6896  8736.29  92.3127
 35.7316  8587.34  91.4124
 35.7736  8579.37  91.5629
 35.8156  8594.86  91.6503
 35.8576  8692.09  92.4267
 35.8996  8731.61  92.5876
 35.9416  8816.69  92.531
 35.9836  8615.74  91.8297
 36.0256  8634.28  91.9519
 36.0676  8746.9  92.0744
 36.1096  8447.38  90.8462
 36.1516  8516.73  91.1082
 36.1936  8602.83  91.4144
 36.2356  8499.61  91.5113
 36.2776  8401.73  90.4565
 36.3196  8544.18  90.8848
 36.3616  8556.8  91.0897
 36.4036  8576.64  91.2557
 36.4456  8605.04  91.6201
 36.4876  8375.68  90.3225
 36.5296  8564.35  91.3665
 36.5716  8596.69  92.3433
 36.6136  8572.86  90.9814
 36.6556  8508.48  90.8278
 36.6976  8455.07  91.049
 36.7396  8478.8  90.9998
 36.7816  8508.72  91.4456
 36.8236  8414.19  90.86
 36.8656  8352.92  90.5993
 36.9076  8282.4  90.2269
 36.9496  8296.67  90.3054
 36.9916  8301.19  89.8132
 37.0336  8363.04  90.4605
 37.0756  8476.17  90.8678
 37.1176  8152.96  89.468
 37.1596  8252.13  89.9381
 37.2016  8342.51  90.607
 37.2436  8410.63  90.3283
 37.2856  8355.85  90.2826
 37.3276  8431.9  90.0442
 37.3696  8289.55  90.1786
 37.4116  8236.75  89.7908
 37.4536  8180.87  89.3486
 37.4956  8094.4  88.9247
 37.5376  8352.83  91.9375
 37.5796  8253.33  91.3216
 37.6216  8151.05  89.0043
 37.6636  8132.6  88.7916
 37.7056  8137.82  89.0189
 37.7476  8278.54  89.3155
 37.7896  8110.39  88.9124
 37.8316  8099.76  89.0153
 37.8736  8125.18  88.6824
 37.9156  8298.9  89.6233
 37.9576  8118.39  88.6966
 37.9996  8032.63  87.7903
 38.0416  8128.36  89.1255
 38.0836  8236.33  89.6174
 38.1256  8073.11  88.6953
 38.1676  7984.39  88.3311
 38.2096  8050.46  88.3126
 38.2516  8251.62  89.5283
 38.2936  8180.7  89.0331
 38.3356  8047.87  88.2361
 38.3776  7942.75  87.9109
 38.4196  8081.07  88.5239
 38.4616  8087.26  88.8078
 38.5036  8179.57  89.156
 38.5456  7869.82  88.2884
 38.5876  8073.64  89.449
 38.6296  8043.31  88.2566
 38.6716  8080.7  88.2553
 38.7136  7970.91  87.5964
 38.7556  7923.34  87.8388
 38.7976  8111.34  88.8077
 38.8396  8066.18  89.021
 38.8816  8008.37  88.4731
 38.9236  8061.42  88.5817
 38.9656  8128.82  88.8613
 39.0076  8159.17  88.4287
 39.0496  8126.85  88.7984
 39.0916  8112.73  88.3655
 39.1336  8037.77  88.3715
 39.1756  7960.35  88.0118
 39.2176  8061.51  89.1121
 39.2596  8067.94  89.0633
 39.3016  8031.44  88.436
 39.3436  7816.34  87.6623
 39.3856  8016.95  88.2174
 39.4276  8161.37  89.5171
 39.4696  8140.67  89.0212
 39.5116  8078.52  89.2016
 39.5536  7921.32  88.7398
 39.5956  8022.75  88.4193
 39.6376  7872.45  87.4161
 39.6796  7960.72  87.8219
 39.7216  7816.4  87.1172
 39.7636  7956.73  88.463
 39.8056  7954.09  88.2296
 39.8476  7829.74  87.7924
 39.8896  7791.61  87.2107
 39.9316  7791.15  87.459
 39.9736  7927.3  87.794
 40.0156  7855.59  87.2214
 40.0576  7928.9  87.9847
 40.0996  7944.63  87.2567
 40.1416  7872.26  87.6453
 40.1836  7957.13  87.9975
 40.2256  7931.04  87.8975
 40.2676  7833.65  87.4617
 40.3096  7862.85  87.5556
 40.3516  7970.64  88.3471
 40.3936  7974.54  87.8454
 40.4356  7894.1  87.5985
 40.4776  7958.36  88.3608
 40.5196  7921.09  88.2834
 40.5616  8020.3  88.4722
 40.6036  7937.54  88.2733
 40.6456  7922.6  87.7951
 40.6876  8011.36  88.2724
 40.7296  7954.32  88.1006
 40.7716  7916.67  88.0059
 40.8136  7952.69  88.1643
 40.8556  7960.62  88.3352
 40.8976  7967.81  88.2978
 40.9396  7858.53  88.0314
 40.9816  7862.21  87.3451
 41.0236  7926.36  87.4847
 41.0656  8064.68  88.7897
 41.1076  7954.99  87.9555
 41.1496  8025.59  88.2514
 41.1916  7804.2  87.3445
 41.2336  7823.96  87.4468
 41.2756  7924.35  87.6101
 41.3176  7786.22  87.4486
 41.3596  7780.4  87.1489
 41.4016  7901.22  88.0849
 41.4436  7830.03  87.4752
 41.4856  7902.99  88.0369
 41.5276  7846.66  87.7511
 41.5696  7845.93  87.3611
 41.6116  7843.89  87.7568
 41.6536  7787.85  87.3055
 41.6956  7851.92  87.7171
 41.7376  7770.28  87.2882
 41.7796  7802.84  87.4019
 41.8216  7930.66  88.3044
 41.8636  7819.14  87.6219
 41.9056  7785.64  87.2199
 41.9476  7911.98  88.1658
 41.9896  7880.17  87.6527
 42.0316  7853.2  87.5858
 42.0736  7797.01  87.3789
 42.1156  7745.64  86.9317
 42.1576  7862  87.681
 42.1996  7793.02  87.4389
 42.2416  7875.84  87.481
 42.2836  7804.62  87.1957
 42.3256  7706.26  86.7609
 42.3676  7761.87  86.8778
 42.4096  7911.35  87.6706
 42.4516  7724.73  86.7174
 42.4936  7579.26  85.9692
 42.5356  7756.19  87.101
 42.5776  7900.66  87.8389
 42.6196  7808.14  87.3037
 42.6616  7562.37  86.1649
 42.7036  7811.42  86.955
 42.7456  7713.34  86.7605
 42.7876  7699.18  86.7867
 42.8296  7658.46  86.4507
 42.8716  7584.97  86.1272
 42.9136  7730.8  86.7403
 42.9556  7675.04  86.5639
 42.9976  7778.91  87.1073
 43.0396  7684.02  86.3044
 43.0816  7698.46  86.7557
 43.1236  7667.72  86.6531
 43.1656  7652.92  86.4015
 43.2076  7610.12  86.2579
 43.2496  7650.47  86.2926
 43.2916  7579.49  86.2574
 43.3336  7646.05  86.4815
 43.3756  7676.96  86.4063
 43.4176  7538.59  85.709
 43.4596  7515.95  85.4359
 43.5016  7631.71  86.4924
 43.5436  7656.6  86.5292
 43.5856  7566  86.0436
 43.6276  7570.08  85.9647
 43.6696  7608.94  86.3335
 43.7116  7660.14  86.2366
 43.7536  7615.43  86.4692
 43.7956  7509.77  87.0216
 43.8376  7678.83  86.5733
 43.8796  7626.95  86.3558
 43.9216  7760.77  87.0277
 43.9636  7687.67  86.7217
 44.0056  7648.38  86.7365
 44.0476  7674.51  86.5076
 44.0896  7633.95  86.6259
 44.1316  7641.62  86.3364
 44.1736  7649.01  86.352
 44.2156  7664.54  86.3056
 44.2576  7531.6  85.8735
 44.2996  7753.98  87.1094
 44.3416  7538.67  85.6404
 44.3836  7295.85  84.5788
 44.4256  7578.81  85.8416
 44.4676  7573.64  85.9694
 44.5096  7567.74  86.0809
 44.5516  7591.38  86.1791
 44.5936  7526.78  85.7565
 44.6356  7556.01  85.6721
 44.6776  7620.06  86.3589
 44.7196  7544.87  86.1987
 44.7616  7449.17  86.9802
 44.8036  7406.31  85.1599
 44.8456  7368.54  85.1354
 44.8876  7377.43  85.0546
 44.9296  7422.31  84.7835
 44.9716  7284.19  84.4231
 45.0136  7338.37  84.6611
 45.0556  7374.69  84.8312
 45.0976  7322.44  84.7157
 45.1396  7311.36  84.4161
 45.1816  7258.28  83.8603
 45.2236  7498.37  85.2836
 45.2656  7276  84.5354
 45.3076  7380.93  84.9383
 45.3496  7319.24  84.8608
 45.3916  7252.07  84.7341
 45.4336  7248.39  84.54
 45.4756  7288.86  84.6659
 45.5176  7273.44  84.1828
 45.5596  7448.42  85.3218
 45.6016  7239.9  84.5126
 45.6436  7327.31  84.2294
 45.6856  7276.25  84.5862
 45.7276  7263.81  86.3454
 45.7696  7445.25  86.5353
 45.8116  7253.56  84.8863
 45.8536  7140.32  84.1148
 45.8956  7278.59  84.2793
 45.9376  7311.95  83.9417
 45.9796  7185.84  83.8848
 46.0216  7244.09  84.5732
 46.0636  7444.83  84.8821
 46.1056  7193  83.4084
 46.1476  7263.01  84.3941
 46.1896  7232.62  84.3794
 46.2316  7104.65  83.5001
 46.2736  7045.32  83.4953
 46.3156  7164.05  83.7946
 46.3576  7166.74  84.0079
 46.3996  7254.28  84.686
 46.4416  7240.08  84.1813
 46.4836  7199.5  84.3016
 46.5256  7296.84  84.8007
 46.5676  7201.98  84.3626
 46.6096  7203.35  84.3222
 46.6516  7254.55  83.6613
 46.6936  7381.45  84.8549
 46.7356  7224.67  84.0851
 46.7776  7276.58  85.2104
 46.8196  7234.18  84.5705
 46.8616  7233.43  84.5068
 46.9036  7239.22  84.2103
 46.9456  7304.01  84.2213
 46.9876  7311.26  84.3407
 47.0296  7182.75  84.2737
 47.0716  7165.49  83.9821
 47.1136  7126.52  83.461
 47.1556  7281.93  84.2375
 47.1976  7223.33  83.9729
 47.2396  7202.19  84.2274
 47.2816  7214.81  84.0204
 47.3236  7175.88  84.1633
 47.3656  7397.16  85.381
 47.4076  7310.05  84.6686
 47.4496  7288.74  84.6485
 47.4916  7094.34  83.6984
 47.5336  7245.1  84.4034
 47.5756  7305.75  84.839
 47.6176  7273.32  84.5799
 47.6596  7202.66  83.8828
 47.7016  7334.46  84.4643
 47.7436  7391  85.1322
 47.7856  7240.45  84.2906
 47.8276  7173.63  83.9413
 47.8696  7219.93  84.3005
 47.9116  7319.37  84.5718
 47.9536  7245.71  84.0977
 47.9956  7119.13  84.0478
 48.0376  7201.21  84.323
 48.0796  7258.57  84.7937
 48.1216  7358.93  85.1918
 48.1636  7496.4  85.5478
 48.2056  7282.43  84.5824
 48.2476  7237.27  84.63
 48.2896  7155.07  84.0659
 48.3316  7163.89  84.0507
 48.3736  7128.44  83.8619
 48.4156  7202.22  84.1475
 48.4576  7149.99  84.1229
 48.4996  7325.4  84.6198
 48.5416  7112.13  83.6777
 48.5836  7157.56  83.6429
 48.6256  7033.07  83.1318
 48.6676  7152.5  84.3325
 48.7096  7305.51  84.499
 48.7516  7282.02  84.4936
 48.7936  7142.63  83.7481
 48.8356  7165.49  83.9245
 48.8776  7175.9  84.5046
 48.9196  7140.08  83.7391
 48.9616  7116.55  83.9852
 49.0036  7096.26  84.2
 49.0456  7134.11  84.4153
 49.0876  7227.63  84.6098
 49.1296  7087.45  83.8386
 49.1716  7142.46  84.0255
 49.2136  7137.61  83.9553
 49.2556  7197.63  84.3078
 49.2976  7057.49  83.542
 49.3396  7063.13  83.6408
 49.3816  7107.31  83.3393
 49.4236  7049.96  83.4328
 49.4656  7182.2  84.2194
 49.5076  7098.24  83.4657
 49.5496  7233.29  84.1963
 49.5916  7113.55  83.5479
 49.6336  7169.54  84.0861
 49.6756  7098.85  83.8867
 49.7176  7134.08  84.0318
 49.7596  7086.32  83.694
 49.8016  7299.7  84.7106
 49.8436  7226.89  84.5758
 49.8856  7105.4  83.8527
 49.9276  7102.31  83.9306
 49.9696  7159.33  84.265
 50.0116  7088.36  83.9993
 50.0536  7195.23  84.5485
 50.0956  7069.49  83.8735
 50.1376  6996.19  83.1545
 50.1796  7058.64  83.784
 50.2216  7076.74  83.9006
 50.2636  7072.81  83.473
 50.3056  7026.97  83.3906
 50.3476  7073.56  83.69
 50.3896  7032.74  83.403
 50.4316  6989.83  82.99
 50.4736  7039.32  83.4991
 50.5156  7037.23  83.4925
 50.5576  7185.73  84.1257
 50.5996  7018.01  83.3987
 50.6416  6986.94  83.1524
 50.6836  7026.36  83.4585
 50.7256  7062.65  83.6071
 50.7676  7006.58  83.5455
 50.8096  7022.27  83.2123
 50.8516  7123.85  84.225
 50.8936  7058.29  83.6149
 50.9356  7051.33  83.6833
 50.9776  7095.62  84.0738
 51.0196  7191.48  84.8073
 51.0616  7098.86  83.5727
 51.1036  7094.01  83.9049
 51.1456  7193.44  84.4024
 51.1876  7255.92  84.0793
 51.2296  7111.04  83.8916
 51.2716  7077.93  83.3948
 51.3136  7073.8  83.8401
 51.3556  7157.86  83.9438
 51.3976  7107.56  83.8064
 51.4396  7015.07  83.5749
 51.4816  7069.09  83.7507
 51.5236  7084.07  83.9247
 51.5656  7092.62  83.5644
 51.6076  7117.53  83.8012
 51.6496  7117.49  83.9886
 51.6916  7051.17  83.968
 51.7336  7054.44  84.073
 51.7756  7290.94  85.1596
 51.8176  6998.98  83.5346
 51.8596  7072.45  84.0016
 51.9016  7227.08  84.509
 51.9436  6899.35  83.9788
 51.9856  6819.28  83.9945
 52.0276  6922.11  83.0892
 52.0696  6814.1  82.5046
 52.1116  6848.16  82.8173
 52.1536  6690.37  81.7594
 52.1956  6977.11  82.9409
 52.2376  6957.63  82.9976
 52.2796  6879.93  82.3178
 52.3216  6681.86  81.8428
 52.3636  6765.1  81.9251
 52.4056  6896.58  82.5624
 52.4476  6725.29  81.9176
 52.4896  6818.81  82.5289
 52.5316  6691.26  81.79
 52.5736  6865.13  82.5861
 52.6156  6762.7  82.3346
 52.6576  6820.72  82.1375
 52.6996  6612.03  81.8401
 52.7416  6810.12  82.9151
 52.7836  6713.76  82.1929
 52.8256  6817.01  82.0493
 52.8676  6611.69  81.3723
 52.9096  6820.65  82.7343
 52.9516  6938.01  83.8475
 52.9936  6842.81  83.6652
 53.0356  6693.81  81.742
 53.0776  6747.55  82.3364
 53.1196  6788.63  82.7056
 53.1616  6647.85  81.9022
 53.2036  6698.57  82.1527
 53.2456  6720.59  82.3965
 53.2876  6759.11  82.3359
 53.3296  6714.06  82.3982
 53.3716  6718.42  82.1584
 53.4136  6726.98  82.3579
 53.4556  6612.65  81.6866
 53.4976  6600.25  81.4659
 53.5396  6768.55  82.9055
 53.5816  6783.6  82.6107
 53.6236  6573.97  81.6706
 53.6656  6572.63  81.2981
 53.7076  6751.33  82.3556
 53.7496  6606.17  81.5804
 53.7916  6773.64  82.7354
 53.8336  6571.96  81.3807
 53.8756  6646.38  82.4194
 53.9176  6690.06  82.0247
 53.9596  6809.62  83.5248
 54.0016  6709.58  82.2373
 54.0436  6682.46  82.287
 54.0856  6717.92  81.9135
 54.1276  6758.89  82.3679
 54.1696  6690.05  82.1291
 54.2116  6711.11  82.0072
 54.2536  6713.96  81.842
 54.2956  6806.56  82.4549
 54.3376  6691.84  82.2448
 54.3796  6655.81  81.9306
 54.4216  6759.91  82.6158
 54.4636  6757.34  82.5517
 54.5056  6750.81  82.3264
 54.5476  6655.69  82.0878
 54.5896  6659.16  81.9253
 54.6316  6725.96  82.1966
 54.6736  6771.45  82.5026
 54.7156  6694.58  82.1008
 54.7576  6631.52  81.7189
 54.7996  6718.11  82.3864
 54.8416  6719.42  82.4436
 54.8836  6585.33  81.7283
 54.9256  6648  81.8483
 54.9676  6708.31  82.0882
 55.0096  6657.41  81.8532
 55.0516  6710.04  82.3458
 55.0936  6669.09  81.7703
 55.1356  6660.69  81.7743
 55.1776  6653.09  81.997
 55.2196  6725.61  82.2208
 55.2616  6586.56  81.5755
 55.3036  6609.12  81.8711
 55.3456  6753.09  82.9228
 55.3876  6658.47  82.0883
 55.4296  6747.92  82.6027
 55.4716  6648.57  82.03
 55.5136  6755.17  82.4292
 55.5556  6639.46  81.7981
 55.5976  6627.29  81.7767
 55.6396  6466.3  80.7295
 55.6816  6690.86  81.9892
 55.7236  6643.81  81.8537
 55.7656  6647.63  81.5264
 55.8076  6717.12  81.9284
 55.8496  6684.51  82.0662
 55.8916  6686.07  82.2331
 55.9336  6630.69  81.7416
 55.9756  6644.63  81.7207
 56.0176  6567.37  81.4008
 56.0596  6554.47  81.3101
 56.1016  6715  82.3371
 56.1436  6709.63  82.5417
 56.1856  6670.85  82.0424
 56.2276  6619.79  81.784
 56.2696  6669.74  82.0521
 56.3116  6557.29  81.7814
 56.3536  6635.16  81.9141
 56.3956  6677.95  82.1739
 56.4376  6490.61  81.0363
 56.4796  6590.03  81.4553
 56.5216  6542.07  81.546
 56.5636  6699.12  82.0942
 56.6056  6528.26  81.2647
 56.6476  6633.01  81.5396
 56.6896  6530.62  81.3646
 56.7316  6648.58  82.0172
 56.7736  6639.46  81.9476
 56.8156  6584.64  81.5935
 56.8576  6542.36  81.2817
 56.8996  6654.18  81.9168
 56.9416  6558.65  81.4901
 56.9836  6456.42  80.4917
 57.0256  6592.66  81.6734
 57.0676  6574.25  81.6845
 57.1096  6643.19  81.8946
 57.1516  6691.91  82.2231
 57.1936  6661.1  81.8082
 57.2356  6701.9  82.3905
 57.2776  6602.78  81.7348
 57.3196  6615.09  82.1944
 57.3616  6610.56  81.6337
 57.4036  6588.57  81.5601
 57.4456  6610  81.6486
 57.4876  6632.92  81.6593
 57.5296  6518.46  81.189
 57.5716  6631.34  81.9881
 57.6136  6608.56  81.658
 57.6556  6591.59  81.6982
 57.6976  6641.53  81.8066
 57.7396  6539.99  81.5829
 57.7816  6459.84  81.4377
 57.8236  6563.7  81.887
 57.8656  6698.38  82.3583
 57.9076  6539.65  81.4177
 57.9496  6574.74  81.986
 57.9916  6584.56  81.5008
 58.0336  6583.58  81.8213
 58.0756  6523.83  81.0699
 58.1176  6578.59  81.4215
 58.1596  6537.84  81.7534
 58.2016  6696  81.9527
 58.2436  6781.88  82.8939
 58.2856  6742.52  82.5639
 58.3276  6666.45  82.4878
 58.3696  6606.19  81.8554
 58.4116  6576.12  81.5302
 58.4536  6713.43  82.2586
 58.4956  6473.96  80.9626
 58.5376  6715.01  82.0045
 58.5796  6711.11  82.4232
 58.6216  6616.12  81.6528
 58.6636  6674.89  82.2316
 58.7056  6632.52  81.8243
 58.7476  6648.95  82.3907
 58.7896  6570.93  81.5366
 58.8316  6763.37  82.7183
 58.8736  6783.46  82.8503
 58.9156  6721.44  82.5205
 58.9576  6729.62  82.7902
 58.9996  6729.69  82.1175
 59.0416  6671.6  82.1382
 59.0836  6618.96  81.716
 59.1256  6769.47  83.0644
 59.1676  6649.41  82.9808
 59.2096  6622.3  82.0732
 59.2516  6840.66  82.9695
 59.2936  6726.32  82.6194
 59.3356  6657.47  82.0671
 59.3776  6684.85  82.4135
 59.4196  6602.98  81.8408
 59.4616  6573.45  81.511
 59.5036  6593.12  81.67
 59.5456  6829.45  82.7946
 59.5876  6671.19  82.0305
 59.6296  6582.22  81.5539
 59.6716  6578.39  81.5907
 59.7136  6675.22  82.1766
 59.7556  6494.44  81.1977
 59.7976  6687.08  82.1219
 59.8396  6712.19  82.1645
 59.8816  6692.26  82.6162
 59.9236  6700.51  82.2921
 59.9656  6588.67  81.8748
 60.0076  6696.6  81.8659
 60.0496  6701.47  82.4239
 60.0916  6719.06  81.9208
 60.1336  6583.07  82.2435
 60.1756  6626.52  83.7549
 60.1996  0.0000000E+00  0.0000000E+00