File: docs/examples/XRD/IS17_D/Data/IS17_D_fresh/17_D_fresh_f00005.xye
# /beamlines/bl04/projects/cycle2025-II/20250340211-lsimonelli/DATA/IS17_D_fresh/17_D_fresh_f00005.xye : mythproc.py merge -s 0.006 -l 0.5 -f /beamlines/bl04/inhouse/ff/FlatField/ff_20Nov2024rod8mm60s_17keV.raw -b True -c true -o xye /beamlines/bl04/projects/cycle2025-II/20250340211-lsimonelli/DATA/IS17_D_fresh/17_D_fresh_00005.dat
# IsMon = [6757458, 6773189, 6787717]  IsPos = [-1.4999, -2.4885, -3.4988]
# Wave = 0.4962  CalPath /beamlines/bl04/projects/cycle2025-II/20250340211-lsimonelli/DATA/Align/Si_Pos1_25keV_f00001.cal
# Date = 2025-09-24_10:36:56 Dt = 4.8000  Bin = 0.0060  <imon> = 6772788 +/- 12356 (Min/Max) 6757458 / 6787717
# icurr 250.0196  mocoIn 1.7071E-05  mocoOut 0.8004  i15 7.08926e+06  imon 6.77279e+06  i7 8.6667  iEMpd_timer 4.8000  iEMpd_1 3.4260E-08  iEMpd_2 7.8418E-08  iEMpd_3 1.5954E-08  iEMpd_4 4.7509E-08  iEMhp_timer 4.8000  iEMhp_1 4.8982E-06  iEMhp_2 -2.6445E-08  iEMhp_3 -2.5068E-08  iEMhp_4 -2.2369E-08
#      9776
 1.5856  38489.9  201.683
 1.6276  46187.8  217.141
 1.6696  52273  230.188
 1.7116  61437.2  250.039
 1.7536  70147  266.038
 1.7956  75141.9  276.034
 1.8376  71061.3  268.86
 1.8796  59658.6  244.535
 1.9216  48464.9  221.281
 1.9636  40593.4  201.686
 2.0056  36484.7  190.465
 2.0476  33744.4  185.181
 2.0896  32704.4  181.236
 2.1316  31866.9  178.04
 2.1736  30275.7  174.915
 2.2156  30755.5  174.881
 2.2576  29807.6  172.783
 2.2996  28236.3  168.783
 2.3416  28793.9  169.081
 2.3836  28508.6  168.345
 2.4256  27065.7  164.564
 2.4676  26864.8  163.72
 2.5096  26818  163.631
 2.5516  26801.8  167.291
 2.5936  29154.4  170.937
 2.6356  26398.7  163.343
 2.6776  26085  161.249
 2.7196  25598  160.269
 2.7616  25583.9  159.998
 2.8036  25254.8  159.142
 2.8456  25446.5  160.353
 2.8876  24951.7  158.642
 2.9296  24551.7  157.513
 2.9716  24231.3  155.975
 3.0136  24228.8  156.037
 3.0556  24202.4  156.352
 3.0976  24171.2  155.224
 3.1396  23974.6  155.28
 3.1816  23696  154.302
 3.2236  23849.1  154.801
 3.2656  23552.1  152.839
 3.3076  23492.2  154.126
 3.3496  23844.9  154.465
 3.3916  24372.9  155.739
 3.4336  24692.8  157.336
 3.4756  24751.1  157.471
 3.5176  25723.3  160.314
 3.5596  25599.8  162.316
 3.6016  25917  160.875
 3.6436  25124.5  159.499
 3.6856  24765.2  156.643
 3.7276  23873.8  154.892
 3.7696  23683.4  154.435
 3.8116  23275.3  153.018
 3.8536  23505.2  153.704
 3.8956  23630.3  153.939
 3.9376  23311.8  153.15
 3.9796  23258  152.484
 4.0216  23562.4  152.491
 4.0636  23440.6  153.605
 4.1056  23400.7  153.098
 4.1476  23506.2  153.806
 4.1896  23795.1  154.567
 4.2316  23891.1  154.702
 4.2736  24440.5  156.25
 4.3156  24833.7  157.695
 4.3576  25678.3  160.333
 4.3996  26001.4  161.593
 4.4416  26428.8  162.491
 4.4836  26662.4  163.354
 4.5256  26966.2  164.953
 4.5676  27149.4  165.729
 4.6096  27666.7  165.983
 4.6516  28109.5  166.969
 4.6936  28336.4  168.408
 4.7356  28521.4  168.837
 4.7776  28422.6  168.339
 4.8196  28061.9  168.002
 4.8616  27778.1  166.714
 4.9036  27269.9  164.845
 4.9456  27553.5  166.311
 4.9876  26732.3  163.716
 5.0296  27312.4  165.286
 5.0716  27272  165.782
 5.1136  27261.6  165.634
 5.1556  27768.2  166.587
 5.1976  27957.9  167.227
 5.2396  28179.2  167.537
 5.2816  28016.1  167.56
 5.3236  28417.5  168.415
 5.3656  27787.3  167.464
 5.4076  27684.2  167.318
 5.4496  27821.2  167.16
 5.4916  27845.8  167.028
 5.5336  27967.5  167.363
 5.5756  27629.3  166.462
 5.6176  28142.2  167.377
 5.6596  28161.9  168.464
 5.7016  28437.6  168.494
 5.7436  28530.4  169.045
 5.7856  28520  169.073
 5.8276  29070.5  170.385
 5.8696  29151  170.824
 5.9116  29012.1  171.048
 5.9536  29164.3  171.284
 5.9956  29558.4  171.726
 6.0376  29458.2  172.103
 6.0796  29790.3  172.891
 6.1216  29949.1  173.529
 6.1636  30071.2  172.959
 6.2056  30162  173.865
 6.2476  30306.9  174.187
 6.2896  30787.1  175.228
 6.3316  30447.6  174.49
 6.3736  30727.7  175.136
 6.4156  30711.2  175.03
 6.4576  31082.7  175.627
 6.4996  31125.5  176.209
 6.5416  31220.9  176.656
 6.5836  31382.3  177.313
 6.6256  31495.1  177.216
 6.6676  31854  177.78
 6.7096  31740.4  178.384
 6.7516  32368.1  179.738
 6.7936  32489  179.488
 6.8356  32627.9  179.947
 6.8776  33227.1  182.383
 6.9196  32839.6  181.764
 6.9616  33557.9  183.14
 7.0036  33943.1  183.856
 7.0456  34075.6  183.486
 7.0876  33788.5  184.456
 7.1296  34058.1  184.294
 7.1716  33743.2  182.959
 7.2136  33853.8  183.04
 7.2556  34026.4  183.67
 7.2976  34179.7  184.604
 7.3396  34101.7  184.61
 7.3816  34035.4  184.651
 7.4236  34251.8  184.505
 7.4656  34476.5  184.584
 7.5076  34973  186.042
 7.5496  34726  185.892
 7.5916  34920.8  186.49
 7.6336  35166.9  187.04
 7.6756  35373.4  187.436
 7.7176  35722.3  188.704
 7.7596  35508.6  189.416
 7.8016  36072.8  193.202
 7.8436  36976.2  191.995
 7.8856  37103.3  191.917
 7.9276  37915.5  194.388
 7.9696  37979.7  194.912
 8.0116  39028.4  196.055
 8.0536  39285  196.96
 8.0956  39326.4  198.338
 8.1376  39885.6  199.152
 8.1796  40150.2  200.415
 8.2216  40956.7  201.058
 8.2636  40776.8  200.873
 8.3056  40903.3  201.961
 8.3476  41517.9  202.795
 8.3896  41522.6  202.897
 8.4316  41748.2  203.622
 8.4736  42049.3  203.792
 8.5156  41695.4  203.225
 8.5576  41289.7  203.294
 8.5996  41513.8  202.62
 8.6416  41243.7  203.322
 8.6836  41126.3  202.784
 8.7256  41788.7  203.892
 8.7676  40981.2  204.96
 8.8096  40373.5  200.685
 8.8516  40569.9  200.772
 8.8936  40147.5  199.614
 8.9356  39820.2  199.213
 8.9776  40024.9  199.769
 9.0196  40002.9  199.438
 9.0616  40505.8  200.044
 9.1036  39710.5  199.343
 9.1456  40331.2  200.134
 9.1876  40167.7  199.759
 9.2296  40219.2  199.175
 9.2716  39243  196.884
 9.3136  39287.7  196.969
 9.3556  39734.7  198.068
 9.3976  37743.2  193.669
 9.4396  38600  195.662
 9.4816  37982.5  194.022
 9.5236  38371.6  194.851
 9.5656  37886.1  193.955
 9.6076  37979.5  194.686
 9.6496  37612.8  193.74
 9.6916  37909.6  194.406
 9.7336  37562.4  193.348
 9.7756  38254.8  196.504
 9.8176  36826.6  192.321
 9.8596  36923  190.935
 9.9016  36511.7  189.869
 9.9436  36146.7  188.816
 9.9856  35986.7  188.621
 10.0276  36376.1  190.849
 10.0696  36010  188.857
 10.1116  34626.2  185.467
 10.1536  34734.8  185.937
 10.1956  34053.9  183.672
 10.2376  33057.4  180.49
 10.2796  33959.5  183.041
 10.3216  33568.6  182.26
 10.3636  33290  181.529
 10.4056  33241.4  181.794
 10.4476  33028.5  180.849
 10.4896  33083.4  180.421
 10.5316  32450.4  179.432
 10.5736  32133.9  178.967
 10.6156  31607.4  177.304
 10.6576  32238.3  177.5
 10.6996  31413.1  175.911
 10.7416  31188.9  175.539
 10.7836  31525.7  177.129
 10.8256  30806  175.548
 10.8676  31296.1  176.444
 10.9096  30544.1  174.355
 10.9516  30385.9  172.774
 10.9936  30285.9  172.694
 11.0356  30252.7  173.267
 11.0776  30245.5  172.521
 11.1196  29632  171.547
 11.1616  29419.2  170.605
 11.2036  29558.5  170.862
 11.2456  29589.6  171.696
 11.2876  29251.1  170.462
 11.3296  29029.5  169.672
 11.3716  29305  170.151
 11.4136  29562.4  171.845
 11.4556  30128.3  173.085
 11.4976  30300.7  172.518
 11.5396  29996  171.825
 11.5816  29464.2  170.795
 11.6236  29004.2  169.916
 11.6656  28558.9  167.528
 11.7076  28187  167.276
 11.7496  28046  170.965
 11.7916  28160.6  166.427
 11.8336  27822.8  166.348
 11.8756  27598.2  165.181
 11.9176  27775.6  165.346
 11.9596  27209.6  163.898
 12.0016  27282.1  164.913
 12.0436  27306.4  164.411
 12.0856  27029  164.095
 12.1276  27242.9  164.643
 12.1696  27146.9  163.445
 12.2116  27333.5  163.976
 12.2536  26848  163.417
 12.2956  26938.5  162.956
 12.3376  26653.9  162.398
 12.3796  26908.5  163.588
 12.4216  26871.3  162.67
 12.4636  26515.2  162.539
 12.5056  26684.3  162.291
 12.5476  26945.5  162.592
 12.5896  27081.3  163.634
 12.6316  26440.5  161.929
 12.6736  26546.8  162.727
 12.7156  26381.9  162.123
 12.7576  26786.2  163.578
 12.7996  26860  162.371
 12.8416  26792.7  163.272
 12.8836  27337.9  164.71
 12.9256  27502.8  164.181
 12.9676  27461.4  164.486
 13.0096  27146.4  164.763
 13.0516  27344.4  164.31
 13.0936  27068.4  163.948
 13.1356  27467.6  164.037
 13.1776  27185.1  164.222
 13.2196  27387.5  164.481
 13.2616  27358.1  164.676
 13.3036  27408.3  164.833
 13.3456  27339.7  164.755
 13.3876  27268.7  164.093
 13.4296  27385.6  164.554
 13.4716  27525.5  164.554
 13.5136  27306.4  164.081
 13.5556  27560.2  165.481
 13.5976  27367  165.027
 13.6396  27492.8  164.719
 13.6816  27020.8  163.858
 13.7236  27358.5  164.522
 13.7656  26760  163.305
 13.8076  27183.3  163.264
 13.8496  26539  161.989
 13.8916  26955.3  164.271
 13.9336  26983  163.504
 13.9756  26855.7  162.459
 14.0176  26894.2  163.259
 14.0596  26604.5  162.391
 14.1016  26370.7  162.069
 14.1436  25958.6  159.945
 14.1856  25914.9  160.08
 14.2276  25359  158.897
 14.2696  25787  160.017
 14.3116  25701.7  159.617
 14.3536  25359.4  158.763
 14.3956  25154.4  157.849
 14.4376  25295.6  158.053
 14.4796  25193.8  157.712
 14.5216  24832.4  157.418
 14.5636  24666.3  156.432
 14.6056  24727.8  156.2
 14.6476  24610.4  155.014
 14.6896  24116.5  154.017
 14.7316  23772.7  153.996
 14.7736  23843  153.324
 14.8156  23593.4  152.563
 14.8576  23690.3  152.72
 14.8996  22922.4  151.484
 14.9416  22635.6  150.522
 14.9836  22975.7  151.565
 15.0256  22954.7  150.337
 15.0676  22910.7  150.527
 15.1096  22702.1  149.561
 15.1516  22280.2  148.78
 15.1936  22029.7  147.313
 15.2356  21790.6  146.806
 15.2776  21966.6  146.957
 15.3196  21380.2  146.04
 15.3616  21535.2  146.283
 15.4036  21449.3  145.867
 15.4456  21542  145.809
 15.4876  21058.5  143.828
 15.5296  20887.1  143.565
 15.5716  20731.5  142.585
 15.6136  20873.8  143.45
 15.6556  20716.6  142.075
 15.6976  20532  141.523
 15.7396  20404.1  141.7
 15.7816  20342.8  140.991
 15.8236  19877.6  140.078
 15.8656  20139.7  140.806
 15.9076  19780.9  139.36
 15.9496  19426.1  141.12
 15.9916  19397  141.471
 16.0336  18953.9  136.644
 16.0756  19126.3  137.534
 16.1176  19200.1  137.868
 16.1596  18441.9  136.344
 16.2016  18916.1  136.722
 16.2436  18523.1  135.748
 16.2856  18703.1  135.931
 16.3276  18185.9  134.462
 16.3696  18440.7  135.211
 16.4116  18312.6  135.236
 16.4536  18524.9  135.782
 16.4956  18170.9  134.255
 16.5376  18279.1  134.793
 16.5796  18190.4  133.802
 16.6216  18183.2  134.101
 16.6636  18325.7  134.736
 16.7056  18192.9  134.15
 16.7476  18220.1  133.754
 16.7896  18130.7  134.225
 16.8316  18259.9  134.651
 16.8736  17988.2  133.978
 16.9156  18094.7  134.675
 16.9576  17950.3  135.004
 16.9996  18015.4  135.74
 17.0416  18207  134.753
 17.0836  17933.3  133.504
 17.1256  17650.9  132.467
 17.1676  17717.1  132.721
 17.2096  17515.7  131.829
 17.2516  17454.1  131.357
 17.2936  17292.5  131.076
 17.3356  17049.8  130.198
 17.3776  17147  130.733
 17.4196  17392.6  131.327
 17.4616  16993.6  129.757
 17.5036  17136.7  130.653
 17.5456  16674.6  129.589
 17.5876  16550.7  128.107
 17.6296  16730.1  128.59
 17.6716  16629.5  128.796
 17.7136  16417.9  128.171
 17.7556  16626.6  129.266
 17.7976  16401.3  127.955
 17.8396  16273.6  127.095
 17.8816  16525.6  128.612
 17.9236  16326.1  127.669
 17.9656  16602.2  129.423
 18.0076  16369.9  127.893
 18.0496  16360  126.945
 18.0916  16481.3  127.983
 18.1336  16421.1  127.854
 18.1756  16652  128.247
 18.2176  16275.8  127.031
 18.2596  16324.7  126.937
 18.3016  16400.2  127.508
 18.3436  16359.7  127.597
 18.3856  15880.9  125.646
 18.4276  16224.4  126.611
 18.4696  16226.3  126.738
 18.5116  16111.1  126.588
 18.5536  16240.5  127.435
 18.5956  15977  125.96
 18.6376  15961.6  126.332
 18.6796  15994.3  125.744
 18.7216  16030.5  126.481
 18.7636  15677.7  125.023
 18.8056  15816.4  125.482
 18.8476  15778  125.958
 18.8896  15728.7  125.091
 18.9316  15936  125.693
 18.9736  15781.8  124.964
 19.0156  15744.2  125.24
 19.0576  15545.2  123.296
 19.0996  15772.4  124.91
 19.1416  15426.6  123.969
 19.1836  15618.2  124.287
 19.2256  15444.9  123.804
 19.2676  15688  124.892
 19.3096  15832.7  125.701
 19.3516  15509.1  124.387
 19.3936  15567.6  124.521
 19.4356  15431.6  123.875
 19.4776  15503.9  124.223
 19.5196  15461.7  123.897
 19.5616  15515.3  124.377
 19.6036  15645.1  124.336
 19.6456  15575.4  124.231
 19.6876  15728  124.438
 19.7296  15475.8  123.966
 19.7716  15668.1  124.715
 19.8136  15709.8  125.295
 19.8556  16028  125.968
 19.8976  16172.4  126.61
 19.9396  16158  126.094
 19.9816  16392.6  127.239
 20.0236  16134.8  126.501
 20.0656  15975.6  125.842
 20.1076  15536.2  124.641
 20.1496  15467.1  124.338
 20.1916  15236.5  122.926
 20.2336  15321.1  123.178
 20.2756  15151.9  122.941
 20.3176  15125.2  122.56
 20.3596  15312.2  123.265
 20.4016  15112.6  122.285
 20.4436  15257.2  123.434
 20.4856  14848.2  121.603
 20.5276  15025.8  122.771
 20.5696  14814.5  121.377
 20.6116  14857.3  121.818
 20.6536  14926.2  121.632
 20.6956  14828.8  121.307
 20.7376  14827.5  121.521
 20.7796  14723  120.791
 20.8216  14905.2  121.23
 20.8636  14653.7  120.606
 20.9056  14736.7  120.874
 20.9476  14501  119.769
 20.9896  14806  120.851
 21.0316  14903.7  121.111
 21.0736  14712.7  120.898
 21.1156  14711.9  121.038
 21.1576  14709.1  121.104
 21.1996  14468.4  120.091
 21.2416  14529.9  120.202
 21.2836  14601.3  120.424
 21.3256  14283.6  119.229
 21.3676  14635.8  120.187
 21.4096  14354.7  119.35
 21.4516  14397.8  119.401
 21.4936  14297.6  119.248
 21.5356  14427.8  119.723
 21.5776  14452.2  119.663
 21.6196  14253.6  118.859
 21.6616  14212.1  118.782
 21.7036  14290.1  118.887
 21.7456  14289.4  118.959
 21.7876  14279.4  118.64
 21.8296  14170.3  118.047
 21.8716  14185  118.377
 21.9136  14405.7  119.478
 21.9556  14266.3  118.56
 21.9976  14256.1  118.529
 22.0396  14262.5  118.822
 22.0816  14277.7  119.437
 22.1236  14171  118.44
 22.1656  14171.8  118.61
 22.2076  14299.2  118.491
 22.2496  14415.6  119.022
 22.2916  14286  118.341
 22.3336  14301.2  119.154
 22.3756  14298.5  118.866
 22.4176  14197.1  118.284
 22.4596  13967.1  117.929
 22.5016  14099.3  117.979
 22.5436  14148  118.03
 22.5856  14267.9  118.812
 22.6276  14105.8  118.299
 22.6696  14099.6  118.626
 22.7116  14030.3  117.839
 22.7536  14088.7  118.038
 22.7956  14224.8  117.923
 22.8376  13972.6  117.377
 22.8796  14084.8  117.657
 22.9216  14241.1  118.868
 22.9636  14158.4  117.644
 23.0056  14280.7  118.292
 23.0476  14128.1  118.266
 23.0896  14551.3  119.356
 23.1316  14416.2  119.268
 23.1736  14048.5  120.916
 23.2156  13980.2  117.804
 23.2576  13822.3  117.347
 23.2996  13865.3  117.241
 23.3416  13700.4  117.158
 23.3836  13718.5  116.401
 23.4256  13755.7  116.717
 23.4676  13673  116.014
 23.5096  13832.8  117.394
 23.5516  13723.1  116.18
 23.5936  13733.5  117.171
 23.6356  14008.9  117.987
 23.6776  13782.4  117.203
 23.7196  13661.6  116.289
 23.7616  14038.3  117.754
 23.8036  13692.8  116.433
 23.8456  13816.4  116.412
 23.8876  13446.4  115.284
 23.9296  13343  115.309
 23.9716  13404.6  114.749
 24.0136  13609.4  116.546
 24.0556  13339.9  115.124
 24.0976  13294.8  114.721
 24.1396  13284.9  117.459
 24.1816  13392.5  116.648
 24.2236  13333.5  115.671
 24.2656  13193.9  114.505
 24.3076  13097.9  114.339
 24.3496  13248.1  114.876
 24.3916  13286.3  115.104
 24.4336  12963.2  113.922
 24.4756  13036.8  114.098
 24.5176  12977.1  113.48
 24.5596  12792.6  112.805
 24.6016  12924.3  113.684
 24.6436  12720.6  112.268
 24.6856  12849.7  112.571
 24.7276  12997.5  113.514
 24.7696  12628.2  112.043
 24.8116  12829.4  113.105
 24.8536  12561.2  111.918
 24.8956  12605.2  111.848
 24.9376  12500  111.321
 24.9796  12408  111.274
 25.0216  12345.6  111.126
 25.0636  12474.9  111.334
 25.1056  12398.3  111.415
 25.1476  12443.7  113.625
 25.1896  12529.8  112.403
 25.2316  12521.5  111.563
 25.2736  12472.7  111.021
 25.3156  12352.5  110.565
 25.3576  12283.4  110.686
 25.3996  12274.3  110.63
 25.4416  12305.5  110.751
 25.4836  12094.7  110.346
 25.5256  12211.6  110.215
 25.5676  12318.5  110.412
 25.6096  12088.4  109.973
 25.6516  12373.3  110.729
 25.6936  12071  109.725
 25.7356  12144.5  110.179
 25.7776  12163.7  109.848
 25.8196  12145.2  110.003
 25.8616  12180.9  110.054
 25.9036  12193.7  109.596
 25.9456  12085.3  109.728
 25.9876  12000.1  109.407
 26.0296  12289.9  110.297
 26.0716  11923.2  109.017
 26.1136  12081.7  109.654
 26.1556  12022  108.704
 26.1976  11939.5  109.331
 26.2396  12152.6  109.651
 26.2816  12030.1  109.499
 26.3236  12094.4  109.959
 26.3656  11894.3  108.78
 26.4076  12089.2  109.86
 26.4496  13485.4  115.459
 26.4916  12168.3  109.698
 26.5336  11902.3  108.818
 26.5756  11905.3  108.708
 26.6176  11946  108.906
 26.6596  11798.1  108.58
 26.7016  11798.3  108.325
 26.7436  11738.4  108.211
 26.7856  11585.7  107.459
 26.8276  11667.2  107.784
 26.8696  11815.4  108.344
 26.9116  11640.1  107.469
 26.9536  11610.2  107.374
 26.9956  11708.4  107.84
 27.0376  11573.1  107.494
 27.0796  11677.8  107.765
 27.1216  11445.4  106.703
 27.1636  11491  107.064
 27.2056  11580.1  107.353
 27.2476  11506.1  107.014
 27.2896  11642.2  107.737
 27.3316  11492.5  106.753
 27.3736  11436.7  106.761
 27.4156  11298.1  105.991
 27.4576  11346.7  106.441
 27.4996  11293.6  105.792
 27.5416  11387.8  106.541
 27.5836  11396.1  106.381
 27.6256  11736.8  108.154
 27.6676  11512.4  107.105
 27.7096  11321.1  106.09
 27.7516  11204.3  105.675
 27.7936  11203  105.9
 27.8356  11390.9  106.354
 27.8776  11139.9  105.244
 27.9196  11183.8  105.271
 27.9616  11261.5  105.827
 28.0036  11112.8  105.112
 28.0456  11179.5  105.541
 28.0876  11110.9  105.328
 28.1296  11248.5  105.813
 28.1716  10962.1  104.501
 28.2136  11127.6  105.219
 28.2556  10914.1  104.344
 28.2976  11009.1  104.761
 28.3396  11010.8  104.536
 28.3816  11056.1  104.762
 28.4236  11075.6  104.989
 28.4656  10892  104.179
 28.5076  11005.9  104.329
 28.5496  10953.1  104.363
 28.5916  10944.3  104.12
 28.6336  10861.1  104.102
 28.6756  10993  103.867
 28.7176  10895.7  103.98
 28.7596  10759.1  103.223
 28.8016  11003.4  104.421
 28.8436  10826.8  103.834
 28.8856  10915.5  104.105
 28.9276  10890.5  104.243
 28.9696  10731.5  103.121
 29.0116  10816.5  103.7
 29.0536  10611.1  102.934
 29.0956  10660.5  102.889
 29.1376  10676.8  102.93
 29.1796  10698  103.098
 29.2216  10691  102.876
 29.2636  10677.9  102.839
 29.3056  10792.8  103.23
 29.3476  10711.1  103.388
 29.3896  10759.2  103.685
 29.4316  10938.6  103.825
 29.4736  10784.4  103.137
 29.5156  10659.6  102.466
 29.5576  10600.3  102.984
 29.5996  10799.5  103.145
 29.6416  10657  102.601
 29.6836  10793.4  103.164
 29.7256  10639.3  103.019
 29.7676  10645.5  102.676
 29.8096  10643.7  102.625
 29.8516  10467.9  102.104
 29.8936  10696.4  103.328
 29.9356  10773.8  103.442
 29.9776  10486.3  102.209
 30.0196  10617.2  102.22
 30.0616  10659.6  102.804
 30.1036  10595.3  102.328
 30.1456  10538.2  102.256
 30.1876  10538.8  102.275
 30.2296  10653.2  102.739
 30.2716  10647.9  102.348
 30.3136  10652.3  103.277
 30.3556  10479.9  102.506
 30.3976  10435.9  103.908
 30.4396  10524.6  101.557
 30.4816  10473  100.857
 30.5236  10364.6  100.388
 30.5656  10326.2  100.849
 30.6076  10404.7  100.636
 30.6496  10298.7  100.517
 30.6916  10383.9  100.994
 30.7336  10143.7  100.017
 30.7756  10400.8  101.371
 30.8176  10256.8  100.58
 30.8596  10346  100.769
 30.9016  10180.6  100.321
 30.9436  10305.4  100.671
 30.9856  10245.1  100.529
 31.0276  10129.5  99.5085
 31.0696  10182.6  100.373
 31.1116  10242  100.645
 31.1536  10249.3  100.526
 31.1956  10191  100.366
 31.2376  10065.2  99.7147
 31.2796  10123.7  99.5626
 31.3216  10208.9  99.9224
 31.3636  10293.7  101.079
 31.4056  10270.2  102.341
 31.4476  10277.2  100.188
 31.4896  10196.9  100.323
 31.5316  10159.5  99.5505
 31.5736  10286.3  99.9381
 31.6156  10163.2  99.3576
 31.6576  10465.2  100.944
 31.6996  10077.4  98.7117
 31.7416  9875.52  98.7922
 31.7836  10162.2  99.2053
 31.8256  10188.7  99.7025
 31.8676  10250.2  99.919
 31.9096  9888.78  98.5045
 31.9516  9944.19  98.9472
 31.9936  10080.5  99.4217
 32.0356  10063.6  99.4328
 32.0776  10115.2  99.5626
 32.1196  10144.7  99.8085
 32.1616  10120  99.1114
 32.2036  9918.52  98.6707
 32.2456  10083.3  99.866
 32.2876  9994.6  98.7036
 32.3296  9937.78  98.5829
 32.3716  9948.6  98.6868
 32.4136  9840.12  98.3548
 32.4556  10108.5  99.121
 32.4976  9914.4  97.9753
 32.5396  9849.3  97.7588
 32.5816  9800.59  97.6615
 32.6236  9941.46  98.4173
 32.6656  9905.62  98.7912
 32.7076  9772.17  97.7682
 32.7496  9936.43  98.2346
 32.7916  9989.31  98.46
 32.8336  9934.99  98.2844
 32.8756  9884.72  97.7477
 32.9176  9668.44  97.1598
 32.9596  9658.55  97.2065
 33.0016  9697.92  97.1924
 33.0436  9840.21  98.0513
 33.0856  9690.53  97.4042
 33.1276  9643.8  96.8851
 33.1696  9821.18  97.6208
 33.2116  9793.41  97.7141
 33.2536  9802.61  97.7867
 33.2956  9757.44  97.6251
 33.3376  9659.32  96.8619
 33.3796  9717.78  97.3683
 33.4216  9710.91  96.8802
 33.4636  9731.55  97.1625
 33.5056  9681.44  97.1598
 33.5476  9626.87  96.9127
 33.5896  9809.79  97.5466
 33.6316  9461.84  96.1652
 33.6736  9405.48  96.1124
 33.7156  9493.37  96.6088
 33.7576  9579.07  96.6581
 33.7996  9658.08  96.7925
 33.8416  9294.7  95.1582
 33.8836  9499.21  95.9431
 33.9256  9521.22  96.1684
 33.9676  9648.61  96.6789
 34.0096  9334.76  95.4379
 34.0516  9448.11  95.6099
 34.0936  9502.2  96.1723
 34.1356  9591.32  96.3479
 34.1776  9365.52  95.1975
 34.2196  9289.5  95.015
 34.2616  9399.87  95.7119
 34.3036  9354.72  95.7747
 34.3456  9464.99  96.0562
 34.3876  9357.68  95.4996
 34.4296  9377.54  95.2382
 34.4716  9395.26  95.4998
 34.5136  9251.49  94.9693
 34.5556  9239.23  95.1568
 34.5976  9385.7  95.7228
 34.6396  9487.4  95.9296
 34.6816  9312.05  95.1871
 34.7236  9385.35  95.3076
 34.7656  9429.75  95.7321
 34.8076  9208.87  94.9487
 34.8496  9260.19  95.0377
 34.8916  9272.63  94.9959
 34.9336  9360.03  95.3784
 34.9756  9331.59  95.1753
 35.0176  9374.69  95.9433
 35.0596  9217.54  94.9919
 35.1016  9261.78  94.9452
 35.1436  9259.15  94.5977
 35.1856  9179.42  94.3247
 35.2276  9194.74  94.5713
 35.2696  9183.17  94.7296
 35.3116  9124.83  94.5049
 35.3536  8987.9  93.5139
 35.3956  9001.89  93.2773
 35.4376  9073.65  94.2669
 35.4796  9045.1  94.1468
 35.5216  9069.96  94.2278
 35.5636  8896.66  94.0829
 35.6056  9023.78  93.721
 35.6476  9197.93  94.5432
 35.6896  9246.56  94.9596
 35.7316  9058.84  93.8856
 35.7736  8934.03  93.44
 35.8156  8989.89  93.7607
 35.8576  9074.95  94.4344
 35.8996  9202.2  95.0567
 35.9416  9883.08  97.7638
 35.9836  8948.23  93.5884
 36.0256  9066.6  94.2256
 36.0676  9051.91  93.6645
 36.1096  8965.21  93.5902
 36.1516  8876.12  93.0038
 36.1936  8951.49  93.2466
 36.2356  8922.98  93.7625
 36.2776  8851.45  92.8256
 36.3196  8958.15  93.0572
 36.3616  8929.05  93.0509
 36.4036  8982.8  93.3897
 36.4456  9053.21  93.9956
 36.4876  8802.55  92.6009
 36.5296  8938.1  93.3451
 36.5716  8997.75  94.4726
 36.6136  8955.53  92.9352
 36.6556  8921.97  92.9491
 36.6976  8828.6  92.9867
 36.7396  8721.96  92.1647
 36.7816  8692.97  92.378
 36.8236  8868.4  93.2363
 36.8656  8666.16  92.2321
 36.9076  8668.8  92.2508
 36.9496  8642.24  91.9534
 36.9916  8614.96  91.4441
 37.0336  8747.18  92.4497
 37.0756  8752.85  92.2848
 37.1176  8575.7  91.6215
 37.1596  8672.88  92.1476
 37.2016  8694.01  92.454
 37.2436  8687.75  91.748
 37.2856  8558.71  91.3428
 37.3276  8757.06  91.7141
 37.3696  8654.97  92.1046
 37.4116  8595.96  91.6615
 37.4536  8605.61  91.5858
 37.4956  8510.37  91.1146
 37.5376  8588.05  93.2136
 37.5796  8618.63  93.3206
 37.6216  8515.63  90.9839
 37.6636  8520.72  90.9352
 37.7056  8453.1  90.7337
 37.7476  8591.69  91.0348
 37.7896  8444.88  90.7045
 37.8316  8483.38  91.1388
 37.8736  8538.08  90.8834
 37.9156  8451.07  90.4467
 37.9576  8547.97  90.8667
 37.9996  8479.89  90.2113
 38.0416  8287.01  90.0004
 38.0836  8569.65  91.4226
 38.1256  8425.15  90.6101
 38.1676  8396.89  90.5889
 38.2096  8414.37  90.3239
 38.2516  8450.16  90.675
 38.2936  8523.84  90.9249
 38.3356  8446.25  90.3716
 38.3776  8226.28  89.4748
 38.4196  8469.61  90.6076
 38.4616  8414.32  90.5962
 38.5036  8526.5  91.0357
 38.5456  8374.16  91.0729
 38.5876  8415.86  91.3243
 38.6296  8486.09  90.6953
 38.6716  8271.57  89.335
 38.7136  8298.55  89.4211
 38.7556  8438.88  90.6965
 38.7976  8446.13  90.6705
 38.8396  8356.94  90.6549
 38.8816  8265.74  89.9407
 38.9236  8276.71  89.8014
 38.9656  8361.7  90.1709
 39.0076  8390  89.7135
 39.0496  8444.83  90.5825
 39.0916  8415.27  90.0447
 39.1336  8371.57  90.2343
 39.1756  8370.24  90.2937
 39.2176  8377.52  90.864
 39.2596  8366.84  90.7423
 39.3016  8328.78  90.1004
 39.3436  8308.76  90.4262
 39.3856  8380.54  90.2473
 39.4276  8422.75  91.0083
 39.4696  8348.43  90.1976
 39.5116  8366.3  90.8407
 39.5536  8393.05  91.3527
 39.5956  8395.83  90.4495
 39.6376  8287.59  89.8411
 39.6796  8289.29  89.6139
 39.7216  8259.55  89.5298
 39.7636  8285.45  90.2751
 39.8056  8319.05  90.2352
 39.8476  8185.12  89.7621
 39.8896  8284.14  89.9519
 39.9316  8213.87  89.7998
 39.9736  8356.52  90.1346
 40.0156  8183.58  89.023
 40.0576  8246.7  89.7259
 40.0996  8292.85  89.1499
 40.1416  8247.26  89.7059
 40.1836  8367.34  90.245
 40.2256  8241.13  89.6025
 40.2676  8283.84  89.9459
 40.3096  8291.31  89.9135
 40.3516  8356.75  90.3804
 40.3936  8397.77  90.1451
 40.4356  8220.33  89.3882
 40.4776  8249.42  89.9612
 40.5196  8236.04  90.0217
 40.5616  8343.95  90.2676
 40.6036  8170.6  89.5561
 40.6456  8256.51  89.6051
 40.6876  8368.45  90.222
 40.7296  8202.28  89.4393
 40.7716  8307.27  90.1566
 40.8136  8148.71  89.2362
 40.8556  8337.71  90.4282
 40.8976  8311.32  90.1814
 40.9396  8058.35  89.1727
 40.9816  8351.91  90.0282
 41.0236  8262.75  89.2984
 41.0656  8294.29  90.043
 41.1076  8211.58  89.3424
 41.1496  8312.24  89.8124
 41.1916  8249.82  89.8057
 41.2336  8162.09  89.3392
 41.2756  8252.66  89.4096
 41.3176  8141.57  89.4507
 41.3596  8201.28  89.4785
 41.4016  8147.88  89.4255
 41.4436  8202.49  89.5342
 41.4856  8209.19  89.7122
 41.5276  8144.27  89.3959
 41.5696  8290.19  89.7973
 41.6116  8230.7  89.9226
 41.6536  8174.79  89.4475
 41.6956  8218.31  89.7647
 41.7376  8126.6  89.2716
 41.7796  8197.42  89.5667
 41.8216  8137.37  89.448
 41.8636  8255.2  90.0107
 41.9056  8096.23  88.9452
 41.9476  8195.44  89.7193
 41.9896  8318.5  90.0863
 42.0316  8289.03  89.9848
 42.0736  8098.36  89.0789
 42.1156  8213.82  89.52
 42.1576  8164.72  89.3283
 42.1996  8222.65  89.8171
 42.2416  8275.66  89.6544
 42.2836  8098.63  88.8243
 42.3256  8089.68  88.894
 42.3676  8149.58  89.0438
 42.4096  8115.82  88.7929
 42.4516  8124.72  88.9616
 42.4936  8057.03  88.6375
 42.5356  8138.85  89.2009
 42.5776  8138.75  89.1521
 42.6196  8169.84  89.3776
 42.6616  8010.21  88.6721
 42.7036  8098.87  88.5443
 42.7456  8084.79  88.8481
 42.7876  8051.23  88.7521
 42.8296  8045.2  88.5426
 42.8716  7978.71  88.3368
 42.9136  8045.98  88.492
 42.9556  8044.72  88.6158
 42.9976  8175.71  89.2994
 43.0396  8109.63  88.6606
 43.0816  7999.9  88.4367
 43.1236  7935.5  88.1434
 43.1656  8077.84  88.7668
 43.2076  7973.48  88.2923
 43.2496  7983.43  88.1442
 43.2916  7905.09  88.0942
 43.3336  8035.44  88.6576
 43.3756  7986.45  88.1477
 43.4176  7878.37  87.6197
 43.4596  7929.68  87.7575
 43.5016  8033.25  88.7425
 43.5436  7917.03  87.9931
 43.5856  7955.06  88.1998
 43.6276  7950.17  88.0996
 43.6696  7994.13  88.4753
 43.7116  8014.48  88.2051
 43.7536  7958.3  88.4021
 43.7956  7838.83  88.9135
 43.8376  8074.68  88.7347
 43.8796  8033.33  88.5747
 43.9216  8024.91  88.4463
 43.9636  8050.8  88.682
 44.0056  7912.51  88.1691
 44.0476  7901.21  87.7126
 44.0896  8013.33  88.701
 44.1316  7967.69  88.1185
 44.1736  7915.38  87.7994
 44.2156  8107.34  88.7216
 44.2576  7974.9  88.3064
 44.2996  8047.17  88.6953
 44.3416  8032.44  88.3408
 44.3836  7957.12  88.2771
 44.4256  7894.87  87.546
 44.4676  8013.44  88.3782
 44.5096  7913.91  87.9764
 44.5516  7897.96  87.8542
 44.5936  7710.45  86.758
 44.6356  8048.78  88.3686
 44.6776  8054.39  88.7434
 44.7196  7883.59  88.0805
 44.7616  7867.41  89.3961
 44.8036  7917.26  88.0084
 44.8456  7805.44  87.638
 44.8876  7721.72  87.0293
 44.9296  7786.81  86.8487
 44.9716  7609.21  86.3246
 45.0136  7756.3  87.0416
 45.0556  7670.7  86.563
 45.0976  7711.84  86.9475
 45.1396  7741.91  86.8786
 45.1816  7757.53  86.8507
 45.2236  7722.65  86.5491
 45.2656  7703.09  86.9562
 45.3076  7712.63  86.8344
 45.3496  7799.45  87.5724
 45.3916  7626.03  86.8823
 45.4336  7536.96  86.2517
 45.4756  7586.89  86.3904
 45.5176  7493.64  85.4933
 45.5596  7765.73  87.1297
 45.6016  7504.38  86.0583
 45.6436  7694.37  86.317
 45.6856  7540.87  86.121
 45.7276  7636.74  87.9747
 45.7696  7735.73  88.2164
 45.8116  7637.13  87.1255
 45.8536  7530.81  86.4145
 45.8956  7554.56  85.9038
 45.9376  7635.5  85.8054
 45.9796  7531  85.9395
 46.0216  7548.32  86.3748
 46.0636  7596.14  85.7838
 46.1056  7616.5  85.8596
 46.1476  7651.71  86.679
 46.1896  7690.22  87.052
 46.2316  7567.94  86.2227
 46.2736  7403.51  85.6334
 46.3156  7613.24  86.4186
 46.3576  7582.52  86.4605
 46.3996  7537.82  86.3735
 46.4416  7573.06  86.1417
 46.4836  7498.19  86.0706
 46.5256  7628.19  86.7487
 46.5676  7542.49  86.3709
 46.6096  7572.23  86.4963
 46.6516  7548.76  85.3809
 46.6936  7506.19  85.604
 46.7356  7521.66  85.86
 46.7776  7637.03  87.3011
 46.8196  7462.07  85.9118
 46.8616  7553.84  86.3329
 46.9036  7504.43  85.7288
 46.9456  7707.96  86.5002
 46.9876  7570.14  85.8244
 47.0296  7765.58  87.6101
 47.0716  7555.48  86.2454
 47.1136  7511.96  85.7175
 47.1556  7531.03  85.6651
 47.1976  7565.25  85.967
 47.2396  7586.02  86.4504
 47.2816  7603.86  86.243
 47.3236  7570.9  86.4427
 47.3656  7687.97  87.0375
 47.4076  7532.16  85.921
 47.4496  7456.81  85.6149
 47.4916  7521.94  86.1893
 47.5336  7498.56  85.8614
 47.5756  7659.35  86.898
 47.6176  7668.38  86.8445
 47.6596  7507.32  85.6349
 47.7016  7790.02  87.0554
 47.7436  7685.3  86.8178
 47.7856  7487.73  85.7436
 47.8276  7511.28  85.8988
 47.8696  7496.98  85.8996
 47.9116  7587.68  86.1179
 47.9536  7585.47  86.0221
 47.9956  7413.28  85.7467
 48.0376  7632.7  86.8104
 48.0796  7560.23  86.5402
 48.1216  7701.01  87.1508
 48.1636  7827.56  87.4455
 48.2056  7670.58  86.8087
 48.2476  7560.67  86.5297
 48.2896  7465.94  85.8719
 48.3316  7530.62  86.1553
 48.3736  7471.49  85.8547
 48.4156  7597.38  86.4058
 48.4576  7517.03  86.255
 48.4996  7610.23  86.2405
 48.5416  7454  85.6891
 48.5836  7509.93  85.6796
 48.6256  7393.84  85.2583
 48.6676  7528.25  86.5201
 48.7096  7634.37  86.3611
 48.7516  7518.29  85.8632
 48.7936  7481.31  85.696
 48.8356  7569.03  86.2632
 48.8776  7545.59  86.6511
 48.9196  7497.78  85.8314
 48.9616  7459.96  85.9883
 49.0036  7387.95  85.9315
 49.0456  7475.13  86.4133
 49.0876  7545.92  86.4356
 49.1296  7244.98  84.7673
 49.1716  7464.22  85.8755
 49.2136  7475.27  85.9134
 49.2556  7557.24  86.3901
 49.2976  7374.75  85.4355
 49.3396  7423.74  85.7569
 49.3816  7466.19  85.445
 49.4236  7560.09  86.3961
 49.4656  7461.22  85.8205
 49.5076  7514.28  85.8716
 49.5496  7528.58  86.0279
 49.5916  7558.4  86.1154
 49.6336  7379.98  85.3107
 49.6756  7416.5  85.7738
 49.7176  7479.02  86.0438
 49.7596  7422.28  85.4838
 49.8016  7466.58  85.6714
 49.8436  7503.75  86.1601
 49.8856  7415.93  85.6674
 49.9276  7495.36  86.2362
 49.9696  7477.49  86.1156
 50.0116  7425.36  85.9694
 50.0536  7412.46  85.8107
 50.0956  7330.23  85.4083
 50.1376  7323.44  85.082
 50.1796  7385.64  85.7021
 50.2216  7374.21  85.6374
 50.2636  7304.5  84.8315
 50.3056  7385.64  85.4881
 50.3476  7440.01  85.8233
 50.3896  7315.37  85.0609
 50.4316  7383.93  85.3004
 50.4736  7322.25  85.1481
 50.5156  7424.62  85.7404
 50.5576  7357.06  85.1218
 50.5996  7406.37  85.6795
 50.6416  7359.53  85.3505
 50.6836  7303.73  85.1064
 50.7256  7404.46  85.6045
 50.7676  7208.57  84.8029
 50.8096  7393.8  85.3832
 50.8516  7299.48  85.2643
 50.8936  7384.14  85.5043
 50.9356  7501.59  86.3142
 50.9776  7376.09  85.6957
 51.0196  7329.89  85.5687
 51.0616  7364.77  85.0861
 51.1036  7478.54  86.095
 51.1456  7482.65  86.045
 51.1876  7516.29  85.5286
 51.2296  7568.52  86.4963
 51.2716  7446.43  85.4726
 51.3136  7522.9  86.4044
 51.3556  7437.4  85.5077
 51.3976  7376.55  85.3312
 51.4396  7306.07  85.2437
 51.4816  7272.73  84.8935
 51.5236  7424.19  85.8736
 51.5656  7408.95  85.3571
 51.6076  7500.12  85.9836
 51.6496  7411.16  85.6421
 51.6916  7398.46  85.9718
 51.7336  7430.32  86.2232
 51.7756  7445.69  86.0041
 51.8176  7417.49  85.9475
 51.8596  7378.58  85.7489
 51.9016  7614.78  86.6947
 51.9436  7274.95  86.2741
 51.9856  7006.1  85.1543
 52.0276  7163.91  84.5303
 52.0696  7221.89  84.9793
 52.1116  7197.31  84.8954
 52.1536  7112.94  84.339
 52.1956  7235.2  84.4394
 52.2376  7290.64  84.9563
 52.2796  7287.47  84.7372
 52.3216  7034.19  83.9835
 52.3636  7265.19  84.9117
 52.4056  7187.44  84.2972
 52.4476  7049.56  83.869
 52.4896  7025.32  83.7768
 52.5316  7110.98  84.3607
 52.5736  7199.66  84.5448
 52.6156  7184.55  84.9158
 52.6576  7279.52  84.8252
 52.6996  6974.82  84.0592
 52.7416  7262.57  85.5784
 52.7836  7091.6  84.5013
 52.8256  7120.18  83.8233
 52.8676  7055.26  84.0643
 52.9096  7247.92  85.3072
 52.9516  7166.34  85.2116
 52.9936  7139.28  85.472
 53.0356  7073.72  84.0677
 53.0776  7019.1  84.0448
 53.1196  7105.38  84.6626
 53.1616  7045.41  84.3562
 53.2036  6947.88  83.7073
 53.2456  6949.22  83.8029
 53.2876  7019.07  83.9381
 53.3296  6905.45  83.6029
 53.3716  7087.5  84.44
 53.4136  7056.39  84.3967
 53.4556  7011.13  84.1584
 53.4976  7054.68  84.2663
 53.5396  7038.68  84.5656
 53.5816  7112.1  84.6224
 53.6236  6957.96  84.0586
 53.6656  7057.26  84.283
 53.7076  7122.8  84.6326
 53.7496  6931.23  83.6224
 53.7916  7069.66  84.572
 53.8336  6964.59  83.845
 53.8756  6983.35  84.5259
 53.9176  6990.15  83.8639
 53.9596  7103.07  85.2838
 54.0016  7065.76  84.3896
 54.0436  6976.86  84.0584
 54.0856  7143.49  84.4692
 54.1276  6980  83.7048
 54.1696  7059.86  84.3718
 54.2116  7061.72  84.1475
 54.2536  7039.14  83.7981
 54.2956  7084.48  84.1154
 54.3376  7058.33  84.4723
 54.3796  7024.43  84.1636
 54.4216  7142.07  84.9192
 54.4636  7056.21  84.3578
 54.5056  7114.61  84.5174
 54.5476  7080.95  84.6638
 54.5896  6995.53  83.9622
 54.6316  7074.72  84.2986
 54.6736  7107.34  84.5198
 54.7156  6967.85  83.7485
 54.7576  6969.97  83.7741
 54.7996  7045.27  84.3653
 54.8416  7088.07  84.6715
 54.8836  6940.91  83.9361
 54.9256  7039.49  84.2352
 54.9676  7028.2  84.0019
 55.0096  6939.36  83.5679
 55.0516  7008.42  84.1377
 55.0936  6883.68  83.0744
 55.1356  7003.02  83.8455
 55.1776  6928.6  83.7029
 55.2196  7061.01  84.2453
 55.2616  6956.29  83.8587
 55.3036  6931.61  83.8544
 55.3456  7039.13  84.6431
 55.3876  7027.12  84.3284
 55.4296  7015.8  84.2143
 55.4716  6957.61  83.9139
 55.5136  7080.33  84.3947
 55.5556  6927.38  83.5783
 55.5976  6916.68  83.558
 55.6396  6847.2  83.0966
 55.6816  6891.78  83.214
 55.7236  6993.6  83.8529
 55.7656  7059.94  84.0146
 55.8076  7073.91  84.0553
 55.8496  6911.8  83.4462
 55.8916  6968.6  83.9678
 55.9336  6872.56  83.2513
 55.9756  6906.16  83.3168
 56.0176  6988.3  83.9734
 56.0596  6943.03  83.6748
 56.1016  7008.15  84.1039
 56.1436  6836.97  83.3263
 56.1856  6968.21  83.83
 56.2276  6954.53  83.8486
 56.2696  6913.34  83.5469
 56.3116  6836.5  83.5298
 56.3536  6925.54  83.6857
 56.3956  6909.85  83.5862
 56.4376  6835.91  83.1665
 56.4796  6979.79  83.8082
 56.5216  6838.2  83.3768
 56.5636  6954.99  83.6304
 56.6056  6830.16  83.1546
 56.6476  6900.64  83.1678
 56.6896  6887.14  83.5803
 56.7316  6888.81  83.473
 56.7736  6939.37  83.7765
 56.8156  7040.85  84.3728
 56.8576  6891.52  83.4035
 56.8996  6910.29  83.4761
 56.9416  6912.77  83.8132
 56.9836  6842.33  82.8892
 57.0256  6886.61  83.4698
 57.0676  6891.71  83.663
 57.1096  6936.43  83.6807
 57.1516  6973.6  83.9144
 57.1936  6957.06  83.6016
 57.2356  6951.16  83.8926
 57.2776  6892.85  83.5087
 57.3196  7004.35  84.5765
 57.3616  6934.22  83.6156
 57.4036  6996.76  84.0572
 57.4456  6859.84  83.2133
 57.4876  7010.67  83.9516
 57.5296  6776.58  82.7863
 57.5716  6902.87  83.6458
 57.6136  6904.07  83.4497
 57.6556  6917.75  83.6971
 57.6976  6806.3  82.8269
 57.7396  6834.33  83.3951
 57.7816  6820.96  83.6946
 57.8236  6805.05  83.3853
 57.8656  6947.48  83.8758
 57.9076  6822.59  83.1627
 57.9496  6831.97  83.5829
 57.9916  6821.24  83.0129
 58.0336  6911.61  83.8433
 58.0756  6867.48  83.1926
 58.1176  6908.16  83.4362
 58.1596  6800.5  83.3626
 58.2016  6976.55  83.5693
 58.2436  7111.34  84.8306
 58.2856  6901.24  83.4703
 58.3276  6882.3  83.7653
 58.3696  6920.32  83.7442
 58.4116  6874.23  83.3058
 58.4536  7069.56  84.3703
 58.4956  6831.13  83.1165
 58.5376  7024.81  83.8253
 58.5796  6986.66  84.0374
 58.6216  6861.64  83.1013
 58.6636  7073.27  84.5902
 58.7056  7025.57  84.1623
 58.7476  6882.55  83.7733
 58.7896  6912.24  83.5775
 58.8316  6999.04  84.1093
 58.8736  7017.62  84.219
 58.9156  6933.1  83.7704
 58.9576  6887.78  83.8095
 58.9996  7111.88  84.3794
 59.0416  7072.01  84.5066
 59.0836  6924.73  83.5411
 59.1256  6826.54  83.6959
 59.1676  6844.56  84.1325
 59.2096  6909.31  83.7499
 59.2516  7034.31  84.0525
 59.2936  6809.36  83.0455
 59.3356  6985.49  83.9814
 59.3776  6964.22  84.0347
 59.4196  6973.75  84.0222
 59.4616  6929.58  83.6071
 59.5036  6943.47  83.729
 59.5456  7121.06  84.4602
 59.5876  7009.1  83.9992
 59.6296  6820.95  82.9376
 59.6716  6865.06  83.267
 59.7136  6988.41  83.9992
 59.7556  6850.09  83.3089
 59.7976  7012.14  84.011
 59.8396  6970.68  83.6488
 59.8816  6927.37  83.9724
 59.9236  6901.45  83.4343
 59.9656  6908.06  83.7529
 60.0076  7148.84  84.5014
 60.0496  6979.79  84.0343
 60.0916  7158.22  84.4719
 60.1336  6730.25  83.0755
 60.1756  6855.6  85.106
 60.1996  0.0000000E+00  0.0000000E+00