File: docs/examples/XAS/Echem/Operando3/Cell4_Buffers-2/HAC_NH3_Fe_01_01_OCV_C03.mpt
EC-Lab ASCII FILE
Nb header lines : 53

Open Circuit Voltage

Run on channel : 3 (SN 52371)
User :
CE vs. WE compliance from -10 V to 10 V
Electrode connection : standard
Potential control : Ewe
Ewe ctrl range : min = 0.00 V, max = 3.00 V
Safety Limits :
	Do not start on E overload
Acquisition started on : 12/12/2025 16:12:47.609
Technique started on : 12/12/2025 16:12:48.109
Loaded Setting File :  L:\projects\cycle2025-II\20250340369-skhabazian\EC_lab\Cell C\CellC_01.mps
Saved on :
	File : HAC_NH3_Fe_01_01_OCV_C03.mpr
	Directory : L:\projects\cycle2025-II\20250340369-skhabazian\EC_lab\Cell4_Buffers+Fe2+-2\
	Host : 84.89.228.57
Device : VSP (SN 2155)
Address : 10.0.48.130
EC-LAB for windows v11.61 (software)
Internet server v11.61 (firmware)
Command interpretor v11.61 (firmware)
Electrode material :
Initial state :
Electrolyte :
Comments :
Mass of active material : 0.001 mg
 at x = 0.000
Molecular weight of active material (at x = 0) : 0.001 g/mol
Atomic weight of intercalated ion : 0.001 g/mol
Acquisition started at : xo = 0.000
Number of e- transfered per intercalated ion : 1
for DX = 1, DQ = 26.802 mA.h
Battery capacity : 0.000 A.h
Electrode surface area : 0.000 cm²
Characteristic mass : 0.001 g
Volume (V) : 0.001 cm³
Text export
   Mode : Standard
   Time format : Absolute MMDDYYYY
Cycle Definition : Charge/Discharge alternance
tR (h:m:s)          20:00:30.0000
dER/dt (mV/h)       0.0
record              <Ewe>
dER (mV)            0.00
dtR (s)             0.5000
E range min (V)     0.000
E range max (V)     3.000

mode	error	time/s	<Ewe/V>
3	0	12/12/2025 16:12:48.1090	1.22435
3	0	12/12/2025 16:12:51.6090	1.22435
3	0	12/12/2025 16:12:55.1090	1.22434
3	0	12/12/2025 16:12:58.6090	1.22434
3	0	12/12/2025 16:13:02.1090	1.22435
3	0	12/12/2025 16:13:05.6090	1.22435
3	0	12/12/2025 16:13:09.1090	1.22415
3	0	12/12/2025 16:13:12.6090	1.22421
3	0	12/12/2025 16:13:16.1090	1.2242
3	0	12/12/2025 16:13:19.6090	1.22388
3	0	12/12/2025 16:13:23.1090	1.22388
3	0	12/12/2025 16:13:26.6090	1.22389
3	0	12/12/2025 16:13:30.1090	1.22388
3	0	12/12/2025 16:13:33.6090	1.2239
3	0	12/12/2025 16:13:37.1090	1.22392
3	0	12/12/2025 16:13:40.6090	1.22393
3	0	12/12/2025 16:13:44.1090	1.22395
3	0	12/12/2025 16:13:47.6090	1.22397
3	0	12/12/2025 16:13:51.1090	1.22399
3	0	12/12/2025 16:13:54.6090	1.22401
3	0	12/12/2025 16:13:58.1090	1.22403
3	0	12/12/2025 16:14:01.6090	1.22404
3	0	12/12/2025 16:14:05.1090	1.224
3	0	12/12/2025 16:14:08.6090	1.22405
3	0	12/12/2025 16:14:12.1090	1.22406
3	0	12/12/2025 16:14:15.6090	1.22408
3	0	12/12/2025 16:14:19.1090	1.22409
3	0	12/12/2025 16:14:22.6090	1.22409
3	0	12/12/2025 16:14:26.1090	1.22409
3	0	12/12/2025 16:14:29.6090	1.22412
3	0	12/12/2025 16:14:33.1090	1.22415
3	0	12/12/2025 16:14:36.6090	1.22416
3	0	12/12/2025 16:14:40.1090	1.2242
3	0	12/12/2025 16:14:43.6090	1.2242
3	0	12/12/2025 16:14:47.1090	1.22422
3	0	12/12/2025 16:14:50.6090	1.22423
3	0	12/12/2025 16:14:54.1090	1.22426
3	0	12/12/2025 16:14:57.6090	1.22426
3	0	12/12/2025 16:15:01.1090	1.22427
3	0	12/12/2025 16:15:04.6090	1.22429
3	0	12/12/2025 16:15:08.1090	1.2243
3	0	12/12/2025 16:15:11.6090	1.22432
3	0	12/12/2025 16:15:15.1090	1.22433
3	0	12/12/2025 16:15:18.6090	1.22433
3	0	12/12/2025 16:15:22.1090	1.22435
3	0	12/12/2025 16:15:25.6090	1.22435
3	0	12/12/2025 16:15:29.1090	1.22437
3	0	12/12/2025 16:15:32.6090	1.22439
3	0	12/12/2025 16:15:36.1090	1.22439
3	0	12/12/2025 16:15:39.6090	1.2244
3	0	12/12/2025 16:15:43.1090	1.22442
3	0	12/12/2025 16:15:46.6090	1.22444
3	0	12/12/2025 16:15:50.1090	1.22445
3	0	12/12/2025 16:15:53.6090	1.22446
3	0	12/12/2025 16:15:57.1090	1.22443
3	0	12/12/2025 16:16:00.6090	1.22444
3	0	12/12/2025 16:16:04.1090	1.22445
3	0	12/12/2025 16:16:07.6090	1.22445
3	0	12/12/2025 16:16:11.1090	1.22447
3	0	12/12/2025 16:16:14.6090	1.22448
3	0	12/12/2025 16:16:18.1090	1.22447
3	0	12/12/2025 16:16:21.6090	1.22446
3	0	12/12/2025 16:16:25.1090	1.22448
3	0	12/12/2025 16:16:28.6090	1.22449
3	0	12/12/2025 16:16:32.1090	1.22451
3	0	12/12/2025 16:16:35.6090	1.2245
3	0	12/12/2025 16:16:39.1090	1.22452
3	0	12/12/2025 16:16:42.6090	1.22453
3	0	12/12/2025 16:16:46.1090	1.22454
3	0	12/12/2025 16:16:49.6090	1.22455
3	0	12/12/2025 16:16:53.1090	1.22455
3	0	12/12/2025 16:16:56.6090	1.22457
3	0	12/12/2025 16:17:00.1090	1.22458
3	0	12/12/2025 16:17:03.6090	1.22459
3	0	12/12/2025 16:17:07.1090	1.2246
3	0	12/12/2025 16:17:10.6090	1.22454
3	0	12/12/2025 16:17:14.1090	1.22455
3	0	12/12/2025 16:17:17.6090	1.22442
3	0	12/12/2025 16:17:21.1090	1.22445
3	0	12/12/2025 16:17:24.6090	1.22293
3	0	12/12/2025 16:17:28.1090	1.2231
3	0	12/12/2025 16:17:31.6090	1.22322
3	0	12/12/2025 16:17:35.1090	1.22333
3	0	12/12/2025 16:17:38.6090	1.22346
3	0	12/12/2025 16:17:42.1090	1.22356
3	0	12/12/2025 16:17:45.6090	1.22366
3	0	12/12/2025 16:17:49.1090	1.22373
3	0	12/12/2025 16:17:52.6090	1.22381
3	0	12/12/2025 16:17:56.1090	1.22387
3	0	12/12/2025 16:17:59.6090	1.22393
3	0	12/12/2025 16:18:03.1090	1.22398
3	0	12/12/2025 16:18:06.6090	1.22403
3	0	12/12/2025 16:18:10.1090	1.22407
3	0	12/12/2025 16:18:13.6090	1.2241
3	0	12/12/2025 16:18:17.1090	1.22414
3	0	12/12/2025 16:18:20.6090	1.22417
3	0	12/12/2025 16:18:24.1090	1.2242
3	0	12/12/2025 16:18:27.6090	1.22421
3	0	12/12/2025 16:18:31.1090	1.22424
3	0	12/12/2025 16:18:34.6090	1.22425
3	0	12/12/2025 16:18:38.1090	1.22427
3	0	12/12/2025 16:18:41.6090	1.22428
3	0	12/12/2025 16:18:45.1090	1.22429
3	0	12/12/2025 16:18:48.6090	1.2243
3	0	12/12/2025 16:18:52.1090	1.22431
3	0	12/12/2025 16:18:55.6090	1.22433
3	0	12/12/2025 16:18:59.1090	1.22433
3	0	12/12/2025 16:19:02.6090	1.22433
3	0	12/12/2025 16:19:06.1090	1.22433
3	0	12/12/2025 16:19:09.6090	1.22434
3	0	12/12/2025 16:19:13.1090	1.22434
3	0	12/12/2025 16:19:16.6090	1.22434
3	0	12/12/2025 16:19:20.1090	1.22434
3	0	12/12/2025 16:19:23.6090	1.22434
3	0	12/12/2025 16:19:27.1090	1.22433
3	0	12/12/2025 16:19:30.6090	1.22431
3	0	12/12/2025 16:19:34.1090	1.2243
3	0	12/12/2025 16:19:37.6090	1.2243
3	0	12/12/2025 16:19:41.1090	1.22431
3	0	12/12/2025 16:19:44.6090	1.22431
3	0	12/12/2025 16:19:48.1090	1.22432
3	0	12/12/2025 16:19:51.6090	1.22428
3	0	12/12/2025 16:19:55.1090	1.22433
3	0	12/12/2025 16:19:58.6090	1.22434
3	0	12/12/2025 16:20:02.1090	1.22435
3	0	12/12/2025 16:20:05.6090	1.22436
3	0	12/12/2025 16:20:09.1090	1.22437
3	0	12/12/2025 16:20:12.6090	1.22438
3	0	12/12/2025 16:20:16.1090	1.22439
3	0	12/12/2025 16:20:19.6090	1.22441
3	0	12/12/2025 16:20:23.1090	1.22441
3	0	12/12/2025 16:20:26.6090	1.22441
3	0	12/12/2025 16:20:30.1090	1.22443
3	0	12/12/2025 16:20:33.6090	1.22443
3	0	12/12/2025 16:20:37.1090	1.22444
3	0	12/12/2025 16:20:40.6090	1.22446
3	0	12/12/2025 16:20:44.1090	1.22447
3	0	12/12/2025 16:20:47.6090	1.22449
3	0	12/12/2025 16:20:51.1090	1.2245
3	0	12/12/2025 16:20:54.6090	1.2245
3	0	12/12/2025 16:20:58.1090	1.22452
3	0	12/12/2025 16:21:01.6090	1.22452
3	0	12/12/2025 16:21:05.1090	1.22452
3	0	12/12/2025 16:21:08.6090	1.22453
3	0	12/12/2025 16:21:12.1090	1.22454
3	0	12/12/2025 16:21:15.6090	1.22455
3	0	12/12/2025 16:21:19.1090	1.22457
3	0	12/12/2025 16:21:22.6090	1.22457
3	0	12/12/2025 16:21:26.1090	1.22459
3	0	12/12/2025 16:21:29.6090	1.2246
3	0	12/12/2025 16:21:33.1090	1.22464
3	0	12/12/2025 16:21:36.6090	1.22463
3	0	12/12/2025 16:21:40.1090	1.22465
3	0	12/12/2025 16:21:43.6090	1.22467
3	0	12/12/2025 16:21:47.1090	1.22468
3	0	12/12/2025 16:21:50.6090	1.22469
3	0	12/12/2025 16:21:54.1090	1.2247
3	0	12/12/2025 16:21:57.6090	1.22469
3	0	12/12/2025 16:22:01.1090	1.22471
3	0	12/12/2025 16:22:04.6090	1.22472
3	0	12/12/2025 16:22:08.1090	1.22474
3	0	12/12/2025 16:22:11.6090	1.22475
3	0	12/12/2025 16:22:15.1090	1.22475
3	0	12/12/2025 16:22:18.6090	1.22477
3	0	12/12/2025 16:22:22.1090	1.22478
3	0	12/12/2025 16:22:25.6090	1.22479
3	0	12/12/2025 16:22:29.1090	1.2248
3	0	12/12/2025 16:22:32.6090	1.22481
3	0	12/12/2025 16:22:36.1090	1.22482
3	0	12/12/2025 16:22:39.6090	1.22483
3	0	12/12/2025 16:22:43.1090	1.22483
3	0	12/12/2025 16:22:46.6090	1.22485
3	0	12/12/2025 16:22:50.1090	1.22487
3	0	12/12/2025 16:22:53.6090	1.22489
3	0	12/12/2025 16:22:57.1090	1.22488
3	0	12/12/2025 16:23:00.6090	1.2249
3	0	12/12/2025 16:23:04.1090	1.22491
3	0	12/12/2025 16:23:07.6090	1.22493
3	0	12/12/2025 16:23:11.1090	1.22494
3	0	12/12/2025 16:23:14.6090	1.22496
3	0	12/12/2025 16:23:18.1090	1.22498
3	0	12/12/2025 16:23:21.6090	1.22499
3	0	12/12/2025 16:23:25.1090	1.225
3	0	12/12/2025 16:23:28.6090	1.22502
3	0	12/12/2025 16:23:32.1090	1.22504
3	0	12/12/2025 16:23:35.6090	1.22507
3	0	12/12/2025 16:23:39.1090	1.22508
3	0	12/12/2025 16:23:42.6090	1.2251
3	0	12/12/2025 16:23:46.1090	1.22512
3	0	12/12/2025 16:23:49.6090	1.22514
3	0	12/12/2025 16:23:53.1090	1.22516
3	0	12/12/2025 16:23:56.6090	1.22518
3	0	12/12/2025 16:24:00.1090	1.2252
3	0	12/12/2025 16:24:03.6090	1.22521
3	0	12/12/2025 16:24:07.1090	1.22521
3	0	12/12/2025 16:24:10.6090	1.22523
3	0	12/12/2025 16:24:14.1090	1.22524
3	0	12/12/2025 16:24:17.6090	1.22525
3	0	12/12/2025 16:24:21.1090	1.22527
3	0	12/12/2025 16:24:24.6090	1.22529
3	0	12/12/2025 16:24:28.1090	1.2253
3	0	12/12/2025 16:24:31.6090	1.22528
3	0	12/12/2025 16:24:35.1090	1.22532
3	0	12/12/2025 16:24:38.6090	1.22535
3	0	12/12/2025 16:24:42.1090	1.22536
3	0	12/12/2025 16:24:45.6090	1.22534
3	0	12/12/2025 16:24:49.1090	1.22538
3	0	12/12/2025 16:24:52.6090	1.22541
3	0	12/12/2025 16:24:56.1090	1.22542
3	0	12/12/2025 16:24:59.6090	1.22543
3	0	12/12/2025 16:25:03.1090	1.22544
3	0	12/12/2025 16:25:06.6090	1.22546
3	0	12/12/2025 16:25:10.1090	1.22545
3	0	12/12/2025 16:25:13.6090	1.22546
3	0	12/12/2025 16:25:17.1090	1.22547
3	0	12/12/2025 16:25:20.6090	1.22548
3	0	12/12/2025 16:25:24.1090	1.22548
3	0	12/12/2025 16:25:27.6090	1.22549
3	0	12/12/2025 16:25:31.1090	1.22551
3	0	12/12/2025 16:25:34.6090	1.22552
3	0	12/12/2025 16:25:38.1090	1.22547
3	0	12/12/2025 16:25:41.6090	1.22546
3	0	12/12/2025 16:25:45.1090	1.22548
3	0	12/12/2025 16:25:48.6090	1.22544
3	0	12/12/2025 16:25:52.1090	1.22534
3	0	12/12/2025 16:25:55.6090	1.22462
3	0	12/12/2025 16:25:59.1090	1.22427
3	0	12/12/2025 16:26:02.6090	1.22432
3	0	12/12/2025 16:26:06.1090	1.22437
3	0	12/12/2025 16:26:09.6090	1.22441
3	0	12/12/2025 16:26:13.1090	1.22444
3	0	12/12/2025 16:26:16.6090	1.22447
3	0	12/12/2025 16:26:20.1090	1.2245
3	0	12/12/2025 16:26:23.6090	1.22453
3	0	12/12/2025 16:26:27.1090	1.22444
3	0	12/12/2025 16:26:30.6090	1.22447
3	0	12/12/2025 16:26:34.1090	1.22449
3	0	12/12/2025 16:26:37.6090	1.22451
3	0	12/12/2025 16:26:41.1090	1.22453
3	0	12/12/2025 16:26:44.6090	1.22456
3	0	12/12/2025 16:26:48.1090	1.22457
3	0	12/12/2025 16:26:51.6090	1.22459
3	0	12/12/2025 16:26:55.1090	1.2246
3	0	12/12/2025 16:26:58.6090	1.22457
3	0	12/12/2025 16:27:02.1090	1.22459
3	0	12/12/2025 16:27:05.6090	1.2246
3	0	12/12/2025 16:27:09.1090	1.2246
3	0	12/12/2025 16:27:12.6090	1.22461
3	0	12/12/2025 16:27:16.1090	1.22462
3	0	12/12/2025 16:27:19.6090	1.22462
3	0	12/12/2025 16:27:23.1090	1.22464
3	0	12/12/2025 16:27:26.6090	1.22465
3	0	12/12/2025 16:27:30.1090	1.22465
3	0	12/12/2025 16:27:33.6090	1.22466
3	0	12/12/2025 16:27:37.1090	1.22468
3	0	12/12/2025 16:27:40.6090	1.22469
3	0	12/12/2025 16:27:44.1090	1.2247
3	0	12/12/2025 16:27:47.6090	1.2247
3	0	12/12/2025 16:27:51.1090	1.22471
3	0	12/12/2025 16:27:54.6090	1.22467
3	0	12/12/2025 16:27:58.1090	1.22466
3	0	12/12/2025 16:28:01.6090	1.22467
3	0	12/12/2025 16:28:05.1090	1.22469
3	0	12/12/2025 16:28:08.6090	1.2247
3	0	12/12/2025 16:28:12.1090	1.22472
3	0	12/12/2025 16:28:15.6090	1.22473
3	0	12/12/2025 16:28:19.1090	1.22474
3	0	12/12/2025 16:28:22.6090	1.22474
3	0	12/12/2025 16:28:26.1090	1.22474
3	0	12/12/2025 16:28:29.6090	1.22476
3	0	12/12/2025 16:28:33.1090	1.22477
3	0	12/12/2025 16:28:36.6090	1.22477
3	0	12/12/2025 16:28:40.1090	1.22478
3	0	12/12/2025 16:28:43.6090	1.22475
3	0	12/12/2025 16:28:47.1090	1.22475
3	0	12/12/2025 16:28:50.6090	1.22479
3	0	12/12/2025 16:28:54.1090	1.22481
3	0	12/12/2025 16:28:57.6090	1.22483
3	0	12/12/2025 16:29:01.1090	1.22473
3	0	12/12/2025 16:29:04.6090	1.22478
3	0	12/12/2025 16:29:08.1090	1.22483
3	0	12/12/2025 16:29:11.6090	1.22484
3	0	12/12/2025 16:29:15.1090	1.22485
3	0	12/12/2025 16:29:18.6090	1.22486
3	0	12/12/2025 16:29:22.1090	1.22486
3	0	12/12/2025 16:29:25.6090	1.22485
3	0	12/12/2025 16:29:29.1090	1.22486
3	0	12/12/2025 16:29:32.6090	1.22488
3	0	12/12/2025 16:29:36.1090	1.22489
3	0	12/12/2025 16:29:39.6090	1.2249
3	0	12/12/2025 16:29:43.1090	1.22492
3	0	12/12/2025 16:29:46.6090	1.22493
3	0	12/12/2025 16:29:50.1090	1.22493
3	0	12/12/2025 16:29:53.6090	1.22494
3	0	12/12/2025 16:29:57.1090	1.22494
3	0	12/12/2025 16:30:00.6090	1.22495
3	0	12/12/2025 16:30:04.1090	1.22496
3	0	12/12/2025 16:30:07.6090	1.22498
3	0	12/12/2025 16:30:11.1090	1.22499
3	0	12/12/2025 16:30:14.6090	1.225
3	0	12/12/2025 16:30:18.1090	1.22502
3	0	12/12/2025 16:30:21.6090	1.22503
3	0	12/12/2025 16:30:25.1090	1.22505
3	0	12/12/2025 16:30:28.6090	1.22506
3	0	12/12/2025 16:30:32.1090	1.22505
3	0	12/12/2025 16:30:35.6090	1.22507
3	0	12/12/2025 16:30:39.1090	1.22507
3	0	12/12/2025 16:30:42.6090	1.22508
3	0	12/12/2025 16:30:46.1090	1.22509
3	0	12/12/2025 16:30:49.6090	1.2251
3	0	12/12/2025 16:30:53.1090	1.22511
3	0	12/12/2025 16:30:56.6090	1.22512
3	0	12/12/2025 16:31:00.1090	1.22509
3	0	12/12/2025 16:31:03.6090	1.22488
3	0	12/12/2025 16:31:07.1090	1.22488
3	0	12/12/2025 16:31:10.6090	1.22493
3	0	12/12/2025 16:31:14.1090	1.22495
3	0	12/12/2025 16:31:17.6090	1.22496
3	0	12/12/2025 16:31:21.1090	1.22499
3	0	12/12/2025 16:31:24.6090	1.225
3	0	12/12/2025 16:31:28.1090	1.22501
3	0	12/12/2025 16:31:31.6090	1.22501
3	0	12/12/2025 16:31:35.1090	1.22503
3	0	12/12/2025 16:31:38.6090	1.22505
3	0	12/12/2025 16:31:42.1090	1.225
3	0	12/12/2025 16:31:45.6090	1.22503
3	0	12/12/2025 16:31:49.1090	1.22506
3	0	12/12/2025 16:31:52.6090	1.22508
3	0	12/12/2025 16:31:56.1090	1.22509
3	0	12/12/2025 16:31:59.6090	1.22508
3	0	12/12/2025 16:32:03.1090	1.2251
3	0	12/12/2025 16:32:06.6090	1.22508
3	0	12/12/2025 16:32:10.1090	1.2251
3	0	12/12/2025 16:32:13.6090	1.22511
3	0	12/12/2025 16:32:17.1090	1.22512
3	0	12/12/2025 16:32:20.6090	1.22514
3	0	12/12/2025 16:32:24.1090	1.22511
3	0	12/12/2025 16:32:27.6090	1.22513
3	0	12/12/2025 16:32:31.1090	1.22514
3	0	12/12/2025 16:32:34.6090	1.22516
3	0	12/12/2025 16:32:38.1090	1.22515
3	0	12/12/2025 16:32:41.6090	1.22516
3	0	12/12/2025 16:32:45.1090	1.22517
3	0	12/12/2025 16:32:48.6090	1.22519
3	0	12/12/2025 16:32:52.1090	1.22519
3	0	12/12/2025 16:32:55.6090	1.2252
3	0	12/12/2025 16:32:59.1090	1.2252
3	0	12/12/2025 16:33:02.6090	1.2252
3	0	12/12/2025 16:33:06.1090	1.22521
3	0	12/12/2025 16:33:09.6090	1.22521
3	0	12/12/2025 16:33:13.1090	1.22522
3	0	12/12/2025 16:33:16.6090	1.22521
3	0	12/12/2025 16:33:20.1090	1.2252
3	0	12/12/2025 16:33:23.6090	1.22521
3	0	12/12/2025 16:33:27.1090	1.22521
3	0	12/12/2025 16:33:30.6090	1.22521
3	0	12/12/2025 16:33:34.1090	1.2252
3	0	12/12/2025 16:33:37.6090	1.22521
3	0	12/12/2025 16:33:41.1090	1.22521
3	0	12/12/2025 16:33:44.6090	1.22522
3	0	12/12/2025 16:33:48.1090	1.22523
3	0	12/12/2025 16:33:51.6090	1.22524
3	0	12/12/2025 16:33:55.1090	1.22526
3	0	12/12/2025 16:33:58.6090	1.22526
3	0	12/12/2025 16:34:02.1090	1.22526
3	0	12/12/2025 16:34:05.6090	1.22527
3	0	12/12/2025 16:34:09.1090	1.22527
3	0	12/12/2025 16:34:12.6090	1.22527
3	0	12/12/2025 16:34:16.1090	1.22529
3	0	12/12/2025 16:34:19.6090	1.22528
3	0	12/12/2025 16:34:23.1090	1.22526
3	0	12/12/2025 16:34:26.6090	1.22526
3	0	12/12/2025 16:34:30.1090	1.22525
3	0	12/12/2025 16:34:33.6090	1.22526
3	0	12/12/2025 16:34:37.1090	1.22527
3	0	12/12/2025 16:34:40.6090	1.22527
3	0	12/12/2025 16:34:44.1090	1.22521
3	0	12/12/2025 16:34:47.6090	1.22522
3	0	12/12/2025 16:34:51.1090	1.22523
3	0	12/12/2025 16:34:54.6090	1.22522
3	0	12/12/2025 16:34:58.1090	1.22524
3	0	12/12/2025 16:35:01.6090	1.22523
3	0	12/12/2025 16:35:05.1090	1.22518
3	0	12/12/2025 16:35:08.6090	1.22521
3	0	12/12/2025 16:35:12.1090	1.22518
3	0	12/12/2025 16:35:15.6090	1.22518
3	0	12/12/2025 16:35:19.1090	1.2252
3	0	12/12/2025 16:35:22.6090	1.22521
3	0	12/12/2025 16:35:26.1090	1.22522
3	0	12/12/2025 16:35:29.6090	1.22522
3	0	12/12/2025 16:35:33.1090	1.22523
3	0	12/12/2025 16:35:36.6090	1.22524
3	0	12/12/2025 16:35:40.1090	1.22524
3	0	12/12/2025 16:35:43.6090	1.22525
3	0	12/12/2025 16:35:47.1090	1.22526
3	0	12/12/2025 16:35:50.6090	1.22526
3	0	12/12/2025 16:35:54.1090	1.22526
3	0	12/12/2025 16:35:57.6090	1.22513
3	0	12/12/2025 16:36:01.1090	1.22519
3	0	12/12/2025 16:36:04.6090	1.22523
3	0	12/12/2025 16:36:08.1090	1.22526
3	0	12/12/2025 16:36:11.6090	1.22529
3	0	12/12/2025 16:36:15.1090	1.22531
3	0	12/12/2025 16:36:18.6090	1.22533
3	0	12/12/2025 16:36:22.1090	1.22534
3	0	12/12/2025 16:36:25.6090	1.22537
3	0	12/12/2025 16:36:29.1090	1.22539
3	0	12/12/2025 16:36:32.6090	1.22539
3	0	12/12/2025 16:36:36.1090	1.22541
3	0	12/12/2025 16:36:39.6090	1.22543
3	0	12/12/2025 16:36:43.1090	1.22544
3	0	12/12/2025 16:36:46.6090	1.22543
3	0	12/12/2025 16:36:50.1090	1.22544
3	0	12/12/2025 16:36:53.6090	1.22545
3	0	12/12/2025 16:36:57.1090	1.22545
3	0	12/12/2025 16:37:00.6090	1.22545
3	0	12/12/2025 16:37:04.1090	1.22544
3	0	12/12/2025 16:37:07.6090	1.22543
3	0	12/12/2025 16:37:11.1090	1.22539
3	0	12/12/2025 16:37:14.6090	1.22517
3	0	12/12/2025 16:37:18.1090	1.22508
3	0	12/12/2025 16:37:21.6090	1.22516
3	0	12/12/2025 16:37:25.1090	1.22518
3	0	12/12/2025 16:37:28.6090	1.2252
3	0	12/12/2025 16:37:32.1090	1.22521
3	0	12/12/2025 16:37:35.6090	1.22521
3	0	12/12/2025 16:37:39.1090	1.22522
3	0	12/12/2025 16:37:42.6090	1.22523
3	0	12/12/2025 16:37:46.1090	1.22521
3	0	12/12/2025 16:37:49.6090	1.2252
3	0	12/12/2025 16:37:53.1090	1.2252
3	0	12/12/2025 16:37:56.6090	1.22519
3	0	12/12/2025 16:38:00.1090	1.22519
3	0	12/12/2025 16:38:03.6090	1.22512
3	0	12/12/2025 16:38:07.1090	1.22499
3	0	12/12/2025 16:38:10.6090	1.22452
3	0	12/12/2025 16:38:14.1090	1.22441
3	0	12/12/2025 16:38:17.6090	1.22448
3	0	12/12/2025 16:38:21.1090	1.22452
3	0	12/12/2025 16:38:24.6090	1.22454
3	0	12/12/2025 16:38:28.1090	1.22457
3	0	12/12/2025 16:38:31.6090	1.22458
3	0	12/12/2025 16:38:35.1090	1.2246
3	0	12/12/2025 16:38:38.6090	1.22461
3	0	12/12/2025 16:38:42.1090	1.22462
3	0	12/12/2025 16:38:45.6090	1.22463
3	0	12/12/2025 16:38:49.1090	1.22464
3	0	12/12/2025 16:38:52.6090	1.22465
3	0	12/12/2025 16:38:56.1090	1.22465
3	0	12/12/2025 16:38:59.6090	1.22466
3	0	12/12/2025 16:39:03.1090	1.22467
3	0	12/12/2025 16:39:06.6090	1.22469
3	0	12/12/2025 16:39:10.1090	1.22469
3	0	12/12/2025 16:39:13.6090	1.22469
3	0	12/12/2025 16:39:17.1090	1.2247
3	0	12/12/2025 16:39:20.6090	1.22471
3	0	12/12/2025 16:39:24.1090	1.22471
3	0	12/12/2025 16:39:27.6090	1.22472
3	0	12/12/2025 16:39:31.1090	1.22473
3	0	12/12/2025 16:39:34.6090	1.22473
3	0	12/12/2025 16:39:38.1090	1.22474
3	0	12/12/2025 16:39:41.6090	1.22474
3	0	12/12/2025 16:39:45.1090	1.22474
3	0	12/12/2025 16:39:48.6090	1.22474
3	0	12/12/2025 16:39:52.1090	1.22474
3	0	12/12/2025 16:39:55.6090	1.22474
3	0	12/12/2025 16:39:59.1090	1.22474
3	0	12/12/2025 16:40:02.6090	1.22474
3	0	12/12/2025 16:40:06.1090	1.22475
3	0	12/12/2025 16:40:09.6090	1.22474
3	0	12/12/2025 16:40:13.1090	1.22473
3	0	12/12/2025 16:40:16.6090	1.22474
3	0	12/12/2025 16:40:20.1090	1.22472
3	0	12/12/2025 16:40:23.6090	1.22472
3	0	12/12/2025 16:40:27.1090	1.22472
3	0	12/12/2025 16:40:30.6090	1.22473
3	0	12/12/2025 16:40:34.1090	1.22472
3	0	12/12/2025 16:40:37.6090	1.22473
3	0	12/12/2025 16:40:41.1090	1.22474
3	0	12/12/2025 16:40:44.6090	1.22473
3	0	12/12/2025 16:40:48.1090	1.22474
3	0	12/12/2025 16:40:51.6090	1.22467
3	0	12/12/2025 16:40:55.1090	1.22472
3	0	12/12/2025 16:40:58.6090	1.22472
3	0	12/12/2025 16:41:02.1090	1.22448
3	0	12/12/2025 16:41:05.6090	1.22454
3	0	12/12/2025 16:41:09.1090	1.22456
3	0	12/12/2025 16:41:12.6090	1.22458
3	0	12/12/2025 16:41:16.1090	1.22456
3	0	12/12/2025 16:41:19.6090	1.22458
3	0	12/12/2025 16:41:23.1090	1.22459
3	0	12/12/2025 16:41:26.6090	1.2246
3	0	12/12/2025 16:41:30.1090	1.22461
3	0	12/12/2025 16:41:33.6090	1.22459
3	0	12/12/2025 16:41:37.1090	1.2246
3	0	12/12/2025 16:41:40.6090	1.22462
3	0	12/12/2025 16:41:44.1090	1.22463
3	0	12/12/2025 16:41:47.6090	1.22463
3	0	12/12/2025 16:41:51.1090	1.22464
3	0	12/12/2025 16:41:54.6090	1.22397
3	0	12/12/2025 16:41:58.1090	1.2239
3	0	12/12/2025 16:42:01.6090	1.22409
3	0	12/12/2025 16:42:05.1090	1.22416
3	0	12/12/2025 16:42:08.6090	1.22421
3	0	12/12/2025 16:42:12.1090	1.22424
3	0	12/12/2025 16:42:15.6090	1.22428
3	0	12/12/2025 16:42:19.1090	1.22431
3	0	12/12/2025 16:42:22.6090	1.22433
3	0	12/12/2025 16:42:26.1090	1.22435
3	0	12/12/2025 16:42:29.6090	1.22439
3	0	12/12/2025 16:42:33.1090	1.2244
3	0	12/12/2025 16:42:36.6090	1.22442
3	0	12/12/2025 16:42:40.1090	1.22444
3	0	12/12/2025 16:42:43.6090	1.22446
3	0	12/12/2025 16:42:47.1090	1.22448
3	0	12/12/2025 16:42:50.6090	1.22449
3	0	12/12/2025 16:42:54.1090	1.2245
3	0	12/12/2025 16:42:57.6090	1.22452
3	0	12/12/2025 16:43:01.1090	1.22451
3	0	12/12/2025 16:43:04.6090	1.22451
3	0	12/12/2025 16:43:08.1090	1.22452
3	0	12/12/2025 16:43:11.6090	1.22453
3	0	12/12/2025 16:43:15.1090	1.22453
3	0	12/12/2025 16:43:18.6090	1.22453
3	0	12/12/2025 16:43:22.1090	1.22455
3	0	12/12/2025 16:43:25.6090	1.22455
3	0	12/12/2025 16:43:29.1090	1.22456
3	0	12/12/2025 16:43:32.6090	1.22455
3	0	12/12/2025 16:43:36.1090	1.22456
3	0	12/12/2025 16:43:39.6090	1.22456
3	0	12/12/2025 16:43:43.1090	1.22456
3	0	12/12/2025 16:43:46.6090	1.22456
3	0	12/12/2025 16:43:50.1090	1.22456
3	0	12/12/2025 16:43:53.6090	1.22456
3	0	12/12/2025 16:43:57.1090	1.22455
3	0	12/12/2025 16:44:00.6090	1.22455
3	0	12/12/2025 16:44:04.1090	1.22456
3	0	12/12/2025 16:44:07.6090	1.22456
3	0	12/12/2025 16:44:11.1090	1.22455
3	0	12/12/2025 16:44:14.6090	1.22455
3	0	12/12/2025 16:44:18.1090	1.22455
3	0	12/12/2025 16:44:21.6090	1.22455
3	0	12/12/2025 16:44:25.1090	1.22456
3	0	12/12/2025 16:44:28.6090	1.22455
3	0	12/12/2025 16:44:32.1090	1.22454
3	0	12/12/2025 16:44:35.6090	1.22455
3	0	12/12/2025 16:44:39.1090	1.22455
3	0	12/12/2025 16:44:42.6090	1.22455
3	0	12/12/2025 16:44:46.1090	1.22454
3	0	12/12/2025 16:44:49.6090	1.22454
3	0	12/12/2025 16:44:53.1090	1.22453
3	0	12/12/2025 16:44:56.6090	1.22453
3	0	12/12/2025 16:45:00.1090	1.22454
3	0	12/12/2025 16:45:03.6090	1.22454
3	0	12/12/2025 16:45:07.1090	1.22453
3	0	12/12/2025 16:45:10.6090	1.22453
3	0	12/12/2025 16:45:14.1090	1.22454
3	0	12/12/2025 16:45:17.6090	1.22452
3	0	12/12/2025 16:45:21.1090	1.22453
3	0	12/12/2025 16:45:24.6090	1.22454
3	0	12/12/2025 16:45:28.1090	1.22452
3	0	12/12/2025 16:45:31.6090	1.22453
3	0	12/12/2025 16:45:35.1090	1.22451
3	0	12/12/2025 16:45:38.6090	1.22451
3	0	12/12/2025 16:45:42.1090	1.22451
3	0	12/12/2025 16:45:45.6090	1.22451
3	0	12/12/2025 16:45:49.1090	1.22452
3	0	12/12/2025 16:45:52.6090	1.22452
3	0	12/12/2025 16:45:56.1089	1.22452
3	0	12/12/2025 16:45:59.6089	1.22452
3	0	12/12/2025 16:46:03.1089	1.22452
3	0	12/12/2025 16:46:06.6089	1.22451
3	0	12/12/2025 16:46:10.1089	1.22451
3	0	12/12/2025 16:46:13.6089	1.22451
3	0	12/12/2025 16:46:17.1089	1.22451
3	0	12/12/2025 16:46:20.6089	1.22452
3	0	12/12/2025 16:46:24.1089	1.22451
3	0	12/12/2025 16:46:27.6089	1.2245
3	0	12/12/2025 16:46:31.1089	1.2245
3	0	12/12/2025 16:46:34.6089	1.22449
3	0	12/12/2025 16:46:38.1089	1.22449
3	0	12/12/2025 16:46:41.6089	1.22449
3	0	12/12/2025 16:46:45.1089	1.22449
3	0	12/12/2025 16:46:48.6089	1.22448
3	0	12/12/2025 16:46:52.1089	1.22449
3	0	12/12/2025 16:46:55.6089	1.22449
3	0	12/12/2025 16:46:59.1089	1.22447
3	0	12/12/2025 16:47:02.6089	1.22447
3	0	12/12/2025 16:47:06.1089	1.22447
3	0	12/12/2025 16:47:09.6089	1.22447
3	0	12/12/2025 16:47:13.1089	1.22446
3	0	12/12/2025 16:47:16.6089	1.22444
3	0	12/12/2025 16:47:20.1089	1.22444
3	0	12/12/2025 16:47:23.6089	1.22444
3	0	12/12/2025 16:47:27.1089	1.22444
3	0	12/12/2025 16:47:30.6089	1.22444
3	0	12/12/2025 16:47:34.1089	1.22444
3	0	12/12/2025 16:47:37.6089	1.22445
3	0	12/12/2025 16:47:41.1089	1.22444
3	0	12/12/2025 16:47:44.6089	1.22443
3	0	12/12/2025 16:47:48.1089	1.22443
3	0	12/12/2025 16:47:51.6089	1.22444
3	0	12/12/2025 16:47:55.1089	1.22444
3	0	12/12/2025 16:47:58.6089	1.22444
3	0	12/12/2025 16:48:02.1089	1.22444
3	0	12/12/2025 16:48:05.6089	1.22444
3	0	12/12/2025 16:48:09.1089	1.22444
3	0	12/12/2025 16:48:12.6089	1.22439
3	0	12/12/2025 16:48:16.1089	1.22441
3	0	12/12/2025 16:48:19.6089	1.22441
3	0	12/12/2025 16:48:23.1089	1.22442
3	0	12/12/2025 16:48:26.6089	1.22442
3	0	12/12/2025 16:48:30.1089	1.22443
3	0	12/12/2025 16:48:33.6089	1.22443
3	0	12/12/2025 16:48:37.1089	1.22443
3	0	12/12/2025 16:48:40.6089	1.22443
3	0	12/12/2025 16:48:44.1089	1.22443
3	0	12/12/2025 16:48:47.6089	1.22443
3	0	12/12/2025 16:48:51.1089	1.22443
3	0	12/12/2025 16:48:54.6089	1.22443
3	0	12/12/2025 16:48:58.1089	1.22444
3	0	12/12/2025 16:49:01.6089	1.22443
3	0	12/12/2025 16:49:05.1089	1.22443
3	0	12/12/2025 16:49:08.6089	1.22443
3	0	12/12/2025 16:49:12.1089	1.22442
3	0	12/12/2025 16:49:15.6089	1.22443
3	0	12/12/2025 16:49:19.1089	1.22443
3	0	12/12/2025 16:49:22.6089	1.22443
3	0	12/12/2025 16:49:26.1089	1.22443
3	0	12/12/2025 16:49:29.6089	1.22443
3	0	12/12/2025 16:49:33.1089	1.22444
3	0	12/12/2025 16:49:36.6089	1.22441
3	0	12/12/2025 16:49:40.1089	1.22441
3	0	12/12/2025 16:49:43.6089	1.22439
3	0	12/12/2025 16:49:47.1089	1.22439
3	0	12/12/2025 16:49:50.6089	1.22439
3	0	12/12/2025 16:49:54.1089	1.22438
3	0	12/12/2025 16:49:57.6089	1.22438
3	0	12/12/2025 16:50:01.1089	1.22437
3	0	12/12/2025 16:50:04.6089	1.22436
3	0	12/12/2025 16:50:08.1089	1.22436
3	0	12/12/2025 16:50:11.6089	1.22437
3	0	12/12/2025 16:50:15.1089	1.22435
3	0	12/12/2025 16:50:18.6089	1.22434
3	0	12/12/2025 16:50:22.1089	1.22433
3	0	12/12/2025 16:50:25.6089	1.22432
3	0	12/12/2025 16:50:29.1089	1.22432
3	0	12/12/2025 16:50:32.6089	1.22431
3	0	12/12/2025 16:50:36.1089	1.22431
3	0	12/12/2025 16:50:39.6089	1.2243
3	0	12/12/2025 16:50:43.1089	1.22429
3	0	12/12/2025 16:50:46.6089	1.22429
3	0	12/12/2025 16:50:50.1089	1.22429
3	0	12/12/2025 16:50:53.6089	1.2243
3	0	12/12/2025 16:50:57.1089	1.22429
3	0	12/12/2025 16:51:00.6089	1.22428
3	0	12/12/2025 16:51:04.1089	1.22428
3	0	12/12/2025 16:51:07.6089	1.22428
3	0	12/12/2025 16:51:11.1089	1.22427
3	0	12/12/2025 16:51:14.6089	1.22427
3	0	12/12/2025 16:51:18.1089	1.22427
3	0	12/12/2025 16:51:21.6089	1.22425
3	0	12/12/2025 16:51:25.1089	1.22391
3	0	12/12/2025 16:51:28.6089	1.22402
3	0	12/12/2025 16:51:32.1089	1.22404
3	0	12/12/2025 16:51:35.6089	1.22405
3	0	12/12/2025 16:51:39.1089	1.22406
3	0	12/12/2025 16:51:42.6089	1.22406
3	0	12/12/2025 16:51:46.1089	1.22407
3	0	12/12/2025 16:51:49.6089	1.22406
3	0	12/12/2025 16:51:53.1089	1.22406
3	0	12/12/2025 16:51:56.6089	1.22406
3	0	12/12/2025 16:52:00.1089	1.22405
3	0	12/12/2025 16:52:03.6089	1.22405
3	0	12/12/2025 16:52:07.1089	1.22405
3	0	12/12/2025 16:52:10.6089	1.22405
3	0	12/12/2025 16:52:14.1089	1.22404
3	0	12/12/2025 16:52:17.6089	1.22405
3	0	12/12/2025 16:52:21.1089	1.22405
3	0	12/12/2025 16:52:24.6089	1.22405
3	0	12/12/2025 16:52:28.1089	1.22405
3	0	12/12/2025 16:52:31.6089	1.224
3	0	12/12/2025 16:52:35.1089	1.22402
3	0	12/12/2025 16:52:38.6089	1.22401
3	0	12/12/2025 16:52:42.1089	1.22401
3	0	12/12/2025 16:52:45.6089	1.22401
3	0	12/12/2025 16:52:49.1089	1.22401
3	0	12/12/2025 16:52:52.6089	1.224
3	0	12/12/2025 16:52:56.1089	1.22395
3	0	12/12/2025 16:52:59.6089	1.22393
3	0	12/12/2025 16:53:03.1089	1.22394
3	0	12/12/2025 16:53:06.6089	1.22395
3	0	12/12/2025 16:53:10.1089	1.22395
3	0	12/12/2025 16:53:13.6089	1.22395
3	0	12/12/2025 16:53:17.1089	1.22395
3	0	12/12/2025 16:53:20.6089	1.22395
3	0	12/12/2025 16:53:24.1089	1.22392
3	0	12/12/2025 16:53:27.6089	1.22391
3	0	12/12/2025 16:53:31.1089	1.22391
3	0	12/12/2025 16:53:34.6089	1.22392
3	0	12/12/2025 16:53:38.1089	1.22394
3	0	12/12/2025 16:53:41.6089	1.2239
3	0	12/12/2025 16:53:45.1089	1.2239
3	0	12/12/2025 16:53:48.6089	1.22389
3	0	12/12/2025 16:53:52.1089	1.22388
3	0	12/12/2025 16:53:55.6089	1.22388
3	0	12/12/2025 16:53:59.1089	1.22389
3	0	12/12/2025 16:54:02.6089	1.22388
3	0	12/12/2025 16:54:06.1089	1.22388
3	0	12/12/2025 16:54:09.6089	1.22388
3	0	12/12/2025 16:54:13.1089	1.22369
3	0	12/12/2025 16:54:16.6089	1.223
3	0	12/12/2025 16:54:20.1089	1.22276
3	0	12/12/2025 16:54:23.6089	1.22278
3	0	12/12/2025 16:54:27.1089	1.2228
3	0	12/12/2025 16:54:30.6089	1.2228
3	0	12/12/2025 16:54:34.1089	1.2227
3	0	12/12/2025 16:54:37.6089	1.22276
3	0	12/12/2025 16:54:41.1089	1.2227
3	0	12/12/2025 16:54:44.6089	1.22271
3	0	12/12/2025 16:54:48.1089	1.22273
3	0	12/12/2025 16:54:51.6089	1.22274
3	0	12/12/2025 16:54:55.1089	1.22276
3	0	12/12/2025 16:54:58.6089	1.22206
3	0	12/12/2025 16:55:02.1089	1.22213
3	0	12/12/2025 16:55:05.6089	1.22217
3	0	12/12/2025 16:55:09.1089	1.22221
3	0	12/12/2025 16:55:12.6089	1.22224
3	0	12/12/2025 16:55:16.1089	1.22226
3	0	12/12/2025 16:55:19.6089	1.22229
3	0	12/12/2025 16:55:23.1089	1.22229
3	0	12/12/2025 16:55:26.6089	1.22232
3	0	12/12/2025 16:55:30.1089	1.22233
3	0	12/12/2025 16:55:33.6089	1.22236
3	0	12/12/2025 16:55:37.1089	1.22236
3	0	12/12/2025 16:55:40.6089	1.22238
3	0	12/12/2025 16:55:44.1089	1.22239
3	0	12/12/2025 16:55:47.6089	1.22237
3	0	12/12/2025 16:55:51.1089	1.22238
3	0	12/12/2025 16:55:54.6089	1.2224
3	0	12/12/2025 16:55:58.1089	1.2224
3	0	12/12/2025 16:56:01.6089	1.22242
3	0	12/12/2025 16:56:05.1089	1.22233
3	0	12/12/2025 16:56:08.6089	1.22232
3	0	12/12/2025 16:56:12.1089	1.22226
3	0	12/12/2025 16:56:15.6089	1.22226
3	0	12/12/2025 16:56:19.1089	1.22226
3	0	12/12/2025 16:56:22.6089	1.22224
3	0	12/12/2025 16:56:26.1089	1.22223
3	0	12/12/2025 16:56:29.6089	1.22144
3	0	12/12/2025 16:56:33.1089	1.22158
3	0	12/12/2025 16:56:36.6089	1.22159
3	0	12/12/2025 16:56:40.1089	1.22147
3	0	12/12/2025 16:56:43.6089	1.22154
3	0	12/12/2025 16:56:47.1089	1.22157
3	0	12/12/2025 16:56:50.6089	1.2216
3	0	12/12/2025 16:56:54.1089	1.22163
3	0	12/12/2025 16:56:57.6089	1.22166
3	0	12/12/2025 16:57:01.1089	1.22167
3	0	12/12/2025 16:57:04.6089	1.22169
3	0	12/12/2025 16:57:08.1089	1.22171
3	0	12/12/2025 16:57:11.6089	1.22172
3	0	12/12/2025 16:57:15.1089	1.22174
3	0	12/12/2025 16:57:18.6089	1.22174
3	0	12/12/2025 16:57:22.1089	1.22175
3	0	12/12/2025 16:57:25.6089	1.22176
3	0	12/12/2025 16:57:29.1089	1.22177
3	0	12/12/2025 16:57:32.6089	1.22177
3	0	12/12/2025 16:57:36.1089	1.22178
3	0	12/12/2025 16:57:39.6089	1.22179
3	0	12/12/2025 16:57:43.1089	1.22179
3	0	12/12/2025 16:57:46.6089	1.22179
3	0	12/12/2025 16:57:50.1089	1.2218
3	0	12/12/2025 16:57:53.6089	1.2218
3	0	12/12/2025 16:57:57.1089	1.22168
3	0	12/12/2025 16:58:00.6089	1.22179
3	0	12/12/2025 16:58:04.1089	1.22184
3	0	12/12/2025 16:58:07.6089	1.22187
3	0	12/12/2025 16:58:11.1089	1.22188
3	0	12/12/2025 16:58:14.6089	1.22191
3	0	12/12/2025 16:58:18.1089	1.22192
3	0	12/12/2025 16:58:21.6089	1.22194
3	0	12/12/2025 16:58:25.1089	1.22195
3	0	12/12/2025 16:58:28.6089	1.22196
3	0	12/12/2025 16:58:32.1089	1.22195
3	0	12/12/2025 16:58:35.6089	1.22197
3	0	12/12/2025 16:58:39.1089	1.22196
3	0	12/12/2025 16:58:42.6089	1.22197
3	0	12/12/2025 16:58:46.1089	1.22197
3	0	12/12/2025 16:58:49.6089	1.22196
3	0	12/12/2025 16:58:53.1089	1.22196
3	0	12/12/2025 16:58:56.6089	1.22196
3	0	12/12/2025 16:59:00.1089	1.22197
3	0	12/12/2025 16:59:03.6089	1.22197
3	0	12/12/2025 16:59:07.1089	1.22197
3	0	12/12/2025 16:59:10.6089	1.22197
3	0	12/12/2025 16:59:14.1089	1.22196
3	0	12/12/2025 16:59:17.6089	1.22197
3	0	12/12/2025 16:59:21.1089	1.22196
3	0	12/12/2025 16:59:24.6089	1.22196
3	0	12/12/2025 16:59:28.1089	1.22196
3	0	12/12/2025 16:59:31.6089	1.22196
3	0	12/12/2025 16:59:35.1089	1.22196
3	0	12/12/2025 16:59:38.6089	1.22196
3	0	12/12/2025 16:59:42.1089	1.22196
3	0	12/12/2025 16:59:45.6089	1.22196
3	0	12/12/2025 16:59:49.1089	1.22196
3	0	12/12/2025 16:59:52.6089	1.22196
3	0	12/12/2025 16:59:56.1089	1.22194
3	0	12/12/2025 16:59:59.6089	1.22194
3	0	12/12/2025 17:00:03.1089	1.22194
3	0	12/12/2025 17:00:06.6089	1.22194
3	0	12/12/2025 17:00:10.1089	1.22194
3	0	12/12/2025 17:00:13.6089	1.22195
3	0	12/12/2025 17:00:17.1089	1.22195
3	0	12/12/2025 17:00:20.6089	1.22196
3	0	12/12/2025 17:00:24.1089	1.222
3	0	12/12/2025 17:00:27.6089	1.22203
3	0	12/12/2025 17:00:31.1089	1.22203
3	0	12/12/2025 17:00:34.6089	1.22205
3	0	12/12/2025 17:00:38.1089	1.22204
3	0	12/12/2025 17:00:41.6089	1.22204
3	0	12/12/2025 17:00:45.1089	1.22205
3	0	12/12/2025 17:00:48.6089	1.22206
3	0	12/12/2025 17:00:52.1089	1.22207
3	0	12/12/2025 17:00:55.6089	1.22207
3	0	12/12/2025 17:00:59.1089	1.22207
3	0	12/12/2025 17:01:02.6089	1.22208
3	0	12/12/2025 17:01:06.1089	1.22208
3	0	12/12/2025 17:01:09.6089	1.22208
3	0	12/12/2025 17:01:13.1089	1.22208
3	0	12/12/2025 17:01:16.6089	1.22209
3	0	12/12/2025 17:01:20.1089	1.2221
3	0	12/12/2025 17:01:23.6089	1.2221
3	0	12/12/2025 17:01:27.1089	1.22212
3	0	12/12/2025 17:01:30.6089	1.22212
3	0	12/12/2025 17:01:34.1089	1.22212
3	0	12/12/2025 17:01:37.6089	1.22213
3	0	12/12/2025 17:01:41.1089	1.22213
3	0	12/12/2025 17:01:44.6089	1.22214
3	0	12/12/2025 17:01:48.1089	1.22214
3	0	12/12/2025 17:01:51.6089	1.22214
3	0	12/12/2025 17:01:55.1089	1.22215
3	0	12/12/2025 17:01:58.6089	1.22216
3	0	12/12/2025 17:02:02.1089	1.22217
3	0	12/12/2025 17:02:05.6089	1.22217
3	0	12/12/2025 17:02:09.1089	1.22217
3	0	12/12/2025 17:02:12.6089	1.22218
3	0	12/12/2025 17:02:16.1089	1.22217
3	0	12/12/2025 17:02:19.6089	1.22217
3	0	12/12/2025 17:02:23.1089	1.22216
3	0	12/12/2025 17:02:26.6089	1.22216
3	0	12/12/2025 17:02:30.1089	1.22216
3	0	12/12/2025 17:02:33.6089	1.22216
3	0	12/12/2025 17:02:37.1089	1.22217
3	0	12/12/2025 17:02:40.6089	1.22214
3	0	12/12/2025 17:02:44.1089	1.22218
3	0	12/12/2025 17:02:47.6089	1.22213
3	0	12/12/2025 17:02:51.1089	1.22216
3	0	12/12/2025 17:02:54.6089	1.22217
3	0	12/12/2025 17:02:58.1089	1.22219
3	0	12/12/2025 17:03:01.6089	1.22218
3	0	12/12/2025 17:03:05.1089	1.22219
3	0	12/12/2025 17:03:08.6089	1.22219
3	0	12/12/2025 17:03:12.1089	1.22219
3	0	12/12/2025 17:03:15.6089	1.2222
3	0	12/12/2025 17:03:19.1089	1.2222
3	0	12/12/2025 17:03:22.6089	1.22221
3	0	12/12/2025 17:03:26.1089	1.22221
3	0	12/12/2025 17:03:29.6089	1.22222
3	0	12/12/2025 17:03:33.1089	1.22223
3	0	12/12/2025 17:03:36.6089	1.22224
3	0	12/12/2025 17:03:40.1089	1.22225
3	0	12/12/2025 17:03:43.6089	1.22226
3	0	12/12/2025 17:03:47.1089	1.22227
3	0	12/12/2025 17:03:50.6089	1.22228
3	0	12/12/2025 17:03:54.1089	1.22229
3	0	12/12/2025 17:03:57.6089	1.22232
3	0	12/12/2025 17:04:01.1089	1.22231
3	0	12/12/2025 17:04:04.6089	1.22234
3	0	12/12/2025 17:04:08.1089	1.22233
3	0	12/12/2025 17:04:11.6089	1.22234
3	0	12/12/2025 17:04:15.1089	1.22234
3	0	12/12/2025 17:04:18.6089	1.22234
3	0	12/12/2025 17:04:22.1089	1.22235
3	0	12/12/2025 17:04:25.6089	1.22236
3	0	12/12/2025 17:04:29.1089	1.22236
3	0	12/12/2025 17:04:32.6089	1.22237
3	0	12/12/2025 17:04:36.1089	1.22238
3	0	12/12/2025 17:04:39.6089	1.22239
3	0	12/12/2025 17:04:43.1089	1.2223
3	0	12/12/2025 17:04:46.6089	1.22235
3	0	12/12/2025 17:04:50.1089	1.22237
3	0	12/12/2025 17:04:53.6089	1.22238
3	0	12/12/2025 17:04:57.1089	1.22239
3	0	12/12/2025 17:05:00.6089	1.2224
3	0	12/12/2025 17:05:04.1089	1.22241
3	0	12/12/2025 17:05:07.6089	1.22241
3	0	12/12/2025 17:05:11.1089	1.2224
3	0	12/12/2025 17:05:14.6089	1.22241
3	0	12/12/2025 17:05:18.1089	1.22242
3	0	12/12/2025 17:05:21.6089	1.2224
3	0	12/12/2025 17:05:25.1089	1.22242
3	0	12/12/2025 17:05:28.6089	1.22243
3	0	12/12/2025 17:05:32.1089	1.22244
3	0	12/12/2025 17:05:35.6089	1.22245
3	0	12/12/2025 17:05:39.1089	1.22247
3	0	12/12/2025 17:05:42.6089	1.22249
3	0	12/12/2025 17:05:46.1089	1.2225
3	0	12/12/2025 17:05:49.6089	1.2225
3	0	12/12/2025 17:05:53.1089	1.2225
3	0	12/12/2025 17:05:56.6089	1.22252
3	0	12/12/2025 17:06:00.1089	1.22252
3	0	12/12/2025 17:06:03.6089	1.22253
3	0	12/12/2025 17:06:07.1089	1.22254
3	0	12/12/2025 17:06:10.6089	1.22254
3	0	12/12/2025 17:06:14.1089	1.22255
3	0	12/12/2025 17:06:17.6089	1.22255
3	0	12/12/2025 17:06:21.1089	1.22257
3	0	12/12/2025 17:06:24.6089	1.22257
3	0	12/12/2025 17:06:28.1089	1.22258
3	0	12/12/2025 17:06:31.6089	1.22257
3	0	12/12/2025 17:06:35.1089	1.22258
3	0	12/12/2025 17:06:38.6089	1.22258
3	0	12/12/2025 17:06:42.1089	1.22259
3	0	12/12/2025 17:06:45.6089	1.22259
3	0	12/12/2025 17:06:49.1089	1.22259
3	0	12/12/2025 17:06:52.6089	1.2226
3	0	12/12/2025 17:06:56.1089	1.2226
3	0	12/12/2025 17:06:59.6089	1.22258
3	0	12/12/2025 17:07:03.1089	1.22258
3	0	12/12/2025 17:07:06.6089	1.22259
3	0	12/12/2025 17:07:10.1089	1.2226
3	0	12/12/2025 17:07:13.6089	1.2226
3	0	12/12/2025 17:07:17.1089	1.22261
3	0	12/12/2025 17:07:20.6089	1.2226
3	0	12/12/2025 17:07:24.1089	1.22261
3	0	12/12/2025 17:07:27.6089	1.22261
3	0	12/12/2025 17:07:31.1089	1.22262
3	0	12/12/2025 17:07:34.6089	1.22262
3	0	12/12/2025 17:07:38.1089	1.22262
3	0	12/12/2025 17:07:41.6089	1.22262
3	0	12/12/2025 17:07:45.1089	1.22262
3	0	12/12/2025 17:07:48.6089	1.22259
3	0	12/12/2025 17:07:52.1089	1.2226
3	0	12/12/2025 17:07:55.6089	1.22261
3	0	12/12/2025 17:07:59.1089	1.22261
3	0	12/12/2025 17:08:02.6089	1.22262
3	0	12/12/2025 17:08:06.1089	1.22262
3	0	12/12/2025 17:08:09.6089	1.22261
3	0	12/12/2025 17:08:13.1089	1.22262
3	0	12/12/2025 17:08:16.6089	1.22262
3	0	12/12/2025 17:08:20.1089	1.22262
3	0	12/12/2025 17:08:23.6089	1.22263
3	0	12/12/2025 17:08:27.1089	1.22262
3	0	12/12/2025 17:08:30.6089	1.2226
3	0	12/12/2025 17:08:34.1089	1.22261
3	0	12/12/2025 17:08:37.6089	1.22261
3	0	12/12/2025 17:08:41.1089	1.22261
3	0	12/12/2025 17:08:44.6089	1.22261
3	0	12/12/2025 17:08:48.1089	1.22261
3	0	12/12/2025 17:08:51.6089	1.22259
3	0	12/12/2025 17:08:55.1089	1.22257
3	0	12/12/2025 17:08:58.6089	1.22257
3	0	12/12/2025 17:09:02.1089	1.22258
3	0	12/12/2025 17:09:05.6089	1.22258
3	0	12/12/2025 17:09:09.1089	1.22258
3	0	12/12/2025 17:09:12.6089	1.22258
3	0	12/12/2025 17:09:16.1089	1.2226
3	0	12/12/2025 17:09:19.6089	1.2226
3	0	12/12/2025 17:09:23.1089	1.22261
3	0	12/12/2025 17:09:26.6089	1.22262
3	0	12/12/2025 17:09:30.1089	1.22263
3	0	12/12/2025 17:09:33.6089	1.22263
3	0	12/12/2025 17:09:37.1089	1.22263
3	0	12/12/2025 17:09:40.6089	1.2226
3	0	12/12/2025 17:09:44.1089	1.2226
3	0	12/12/2025 17:09:47.6089	1.2226
3	0	12/12/2025 17:09:51.1089	1.22256
3	0	12/12/2025 17:09:54.6089	1.22247
3	0	12/12/2025 17:09:58.1089	1.22233
3	0	12/12/2025 17:10:01.6089	1.22199
3	0	12/12/2025 17:10:05.1089	1.22174
3	0	12/12/2025 17:10:08.6089	1.22182
3	0	12/12/2025 17:10:12.1089	1.22185
3	0	12/12/2025 17:10:15.6089	1.22187
3	0	12/12/2025 17:10:19.1089	1.2219
3	0	12/12/2025 17:10:22.6089	1.22191
3	0	12/12/2025 17:10:26.1089	1.22193
3	0	12/12/2025 17:10:29.6089	1.22194
3	0	12/12/2025 17:10:33.1089	1.22195
3	0	12/12/2025 17:10:36.6089	1.22197
3	0	12/12/2025 17:10:40.1089	1.22198
3	0	12/12/2025 17:10:43.6089	1.22197
3	0	12/12/2025 17:10:47.1089	1.22199
3	0	12/12/2025 17:10:50.6089	1.22199
3	0	12/12/2025 17:10:54.1089	1.22201
3	0	12/12/2025 17:10:57.6089	1.222
3	0	12/12/2025 17:11:01.1089	1.22202
3	0	12/12/2025 17:11:04.6089	1.22202
3	0	12/12/2025 17:11:08.1089	1.22202
3	0	12/12/2025 17:11:11.6089	1.22202
3	0	12/12/2025 17:11:15.1089	1.22202
3	0	12/12/2025 17:11:18.6089	1.22203
3	0	12/12/2025 17:11:22.1089	1.22203
3	0	12/12/2025 17:11:25.6089	1.22204
3	0	12/12/2025 17:11:29.1089	1.22195
3	0	12/12/2025 17:11:32.6089	1.22184
3	0	12/12/2025 17:11:36.1089	1.22171
3	0	12/12/2025 17:11:39.6089	1.22174
3	0	12/12/2025 17:11:43.1089	1.22175
3	0	12/12/2025 17:11:46.6089	1.22176
3	0	12/12/2025 17:11:50.1089	1.22177
3	0	12/12/2025 17:11:53.6089	1.22178
3	0	12/12/2025 17:11:57.1089	1.22179
3	0	12/12/2025 17:12:00.6089	1.2218
3	0	12/12/2025 17:12:04.1089	1.22181
3	0	12/12/2025 17:12:07.6089	1.22182
3	0	12/12/2025 17:12:11.1089	1.22182
3	0	12/12/2025 17:12:14.6089	1.22182
3	0	12/12/2025 17:12:18.1089	1.22183
3	0	12/12/2025 17:12:21.6089	1.22184
3	0	12/12/2025 17:12:25.1089	1.22184
3	0	12/12/2025 17:12:28.6089	1.22185
3	0	12/12/2025 17:12:32.1089	1.22184
3	0	12/12/2025 17:12:35.6089	1.22185
3	0	12/12/2025 17:12:39.1089	1.22185
3	0	12/12/2025 17:12:42.6089	1.22188
3	0	12/12/2025 17:12:46.1089	1.22187
3	0	12/12/2025 17:12:49.6089	1.22187
3	0	12/12/2025 17:12:53.1089	1.22187
3	0	12/12/2025 17:12:56.6089	1.22188
3	0	12/12/2025 17:13:00.1089	1.22187
3	0	12/12/2025 17:13:03.6089	1.22188
3	0	12/12/2025 17:13:07.1089	1.22188
3	0	12/12/2025 17:13:10.6089	1.22189
3	0	12/12/2025 17:13:14.1089	1.22189
3	0	12/12/2025 17:13:17.6089	1.22189
3	0	12/12/2025 17:13:21.1089	1.2219
3	0	12/12/2025 17:13:24.6089	1.22191
3	0	12/12/2025 17:13:28.1089	1.22191
3	0	12/12/2025 17:13:31.6089	1.22191
3	0	12/12/2025 17:13:35.1089	1.22189
3	0	12/12/2025 17:13:38.6089	1.22189
3	0	12/12/2025 17:13:42.1089	1.22187
3	0	12/12/2025 17:13:45.6089	1.22185
3	0	12/12/2025 17:13:49.1089	1.22175
3	0	12/12/2025 17:13:52.6089	1.22173
3	0	12/12/2025 17:13:56.1089	1.22174
3	0	12/12/2025 17:13:59.6089	1.22176
3	0	12/12/2025 17:14:03.1089	1.22176
3	0	12/12/2025 17:14:06.6089	1.22177
3	0	12/12/2025 17:14:10.1089	1.22178
3	0	12/12/2025 17:14:13.6089	1.22179
3	0	12/12/2025 17:14:17.1089	1.2218
3	0	12/12/2025 17:14:20.6089	1.2218
3	0	12/12/2025 17:14:24.1089	1.22181
3	0	12/12/2025 17:14:27.6089	1.22181
3	0	12/12/2025 17:14:31.1089	1.22182
3	0	12/12/2025 17:14:34.6089	1.22182
3	0	12/12/2025 17:14:38.1089	1.22182
3	0	12/12/2025 17:14:41.6089	1.22182
3	0	12/12/2025 17:14:45.1089	1.22183
3	0	12/12/2025 17:14:48.6089	1.22184
3	0	12/12/2025 17:14:52.1089	1.22184
3	0	12/12/2025 17:14:55.6089	1.22184
3	0	12/12/2025 17:14:59.1089	1.22184
3	0	12/12/2025 17:15:02.6089	1.22185
3	0	12/12/2025 17:15:06.1089	1.22185
3	0	12/12/2025 17:15:09.6089	1.22186
3	0	12/12/2025 17:15:13.1089	1.22186
3	0	12/12/2025 17:15:16.6089	1.22186
3	0	12/12/2025 17:15:20.1089	1.22186
3	0	12/12/2025 17:15:23.6089	1.22187
3	0	12/12/2025 17:15:27.1089	1.22188
3	0	12/12/2025 17:15:30.6089	1.22189
3	0	12/12/2025 17:15:34.1089	1.22189
3	0	12/12/2025 17:15:37.6089	1.22188
3	0	12/12/2025 17:15:41.1089	1.22189
3	0	12/12/2025 17:15:44.6089	1.22191
3	0	12/12/2025 17:15:48.1089	1.2219
3	0	12/12/2025 17:15:51.6089	1.22191
3	0	12/12/2025 17:15:55.1089	1.22191
3	0	12/12/2025 17:15:58.6089	1.22193
3	0	12/12/2025 17:16:02.1089	1.22193
3	0	12/12/2025 17:16:05.6089	1.22194
3	0	12/12/2025 17:16:09.1089	1.22195
3	0	12/12/2025 17:16:12.6089	1.22195
3	0	12/12/2025 17:16:16.1089	1.22195
3	0	12/12/2025 17:16:19.6089	1.22196
3	0	12/12/2025 17:16:23.1089	1.22195
3	0	12/12/2025 17:16:26.6089	1.2219
3	0	12/12/2025 17:16:30.1089	1.22193
3	0	12/12/2025 17:16:33.6089	1.22189
3	0	12/12/2025 17:16:37.1089	1.22187
3	0	12/12/2025 17:16:40.6089	1.22185
3	0	12/12/2025 17:16:44.1089	1.22181
3	0	12/12/2025 17:16:47.6089	1.22179
3	0	12/12/2025 17:16:51.1089	1.22178
3	0	12/12/2025 17:16:54.6089	1.22177
3	0	12/12/2025 17:16:58.1089	1.22177
3	0	12/12/2025 17:17:01.6089	1.22176
3	0	12/12/2025 17:17:05.1089	1.22176
3	0	12/12/2025 17:17:08.6089	1.22176
3	0	12/12/2025 17:17:12.1089	1.22176
3	0	12/12/2025 17:17:15.6089	1.22176
3	0	12/12/2025 17:17:19.1089	1.22176
3	0	12/12/2025 17:17:22.6089	1.22176
3	0	12/12/2025 17:17:26.1089	1.22176
3	0	12/12/2025 17:17:29.6089	1.22177
3	0	12/12/2025 17:17:33.1089	1.22174
3	0	12/12/2025 17:17:36.6089	1.22174
3	0	12/12/2025 17:17:40.1089	1.22173
3	0	12/12/2025 17:17:43.6089	1.22175
3	0	12/12/2025 17:17:47.1089	1.22176
3	0	12/12/2025 17:17:50.6089	1.22176
3	0	12/12/2025 17:17:54.1089	1.22175
3	0	12/12/2025 17:17:57.6089	1.22176
3	0	12/12/2025 17:18:01.1089	1.22176
3	0	12/12/2025 17:18:04.6089	1.22177
3	0	12/12/2025 17:18:08.1089	1.22178
3	0	12/12/2025 17:18:11.6089	1.22178
3	0	12/12/2025 17:18:15.1089	1.22177
3	0	12/12/2025 17:18:18.6089	1.22179
3	0	12/12/2025 17:18:22.1089	1.22179
3	0	12/12/2025 17:18:25.6089	1.22179
3	0	12/12/2025 17:18:29.1089	1.22177
3	0	12/12/2025 17:18:32.6089	1.22179
3	0	12/12/2025 17:18:36.1089	1.2218
3	0	12/12/2025 17:18:39.6089	1.22181
3	0	12/12/2025 17:18:43.1089	1.22173
3	0	12/12/2025 17:18:46.6089	1.22178
3	0	12/12/2025 17:18:50.1089	1.2217
3	0	12/12/2025 17:18:53.6089	1.22174
3	0	12/12/2025 17:18:57.1089	1.22175
3	0	12/12/2025 17:19:00.6089	1.22176
3	0	12/12/2025 17:19:04.1089	1.22177
3	0	12/12/2025 17:19:07.6089	1.22177
3	0	12/12/2025 17:19:11.1089	1.22177
3	0	12/12/2025 17:19:14.6089	1.22178
3	0	12/12/2025 17:19:18.1089	1.22178
3	0	12/12/2025 17:19:21.6089	1.22177
3	0	12/12/2025 17:19:25.1089	1.22178
3	0	12/12/2025 17:19:28.6089	1.22178
3	0	12/12/2025 17:19:32.1089	1.22178
3	0	12/12/2025 17:19:35.6089	1.22179
3	0	12/12/2025 17:19:39.1089	1.22179
3	0	12/12/2025 17:19:42.6089	1.22179
3	0	12/12/2025 17:19:46.1089	1.22179
3	0	12/12/2025 17:19:49.6089	1.22179
3	0	12/12/2025 17:19:53.1089	1.2218
3	0	12/12/2025 17:19:56.6089	1.22181
3	0	12/12/2025 17:20:00.1089	1.2218
3	0	12/12/2025 17:20:03.6089	1.22181
3	0	12/12/2025 17:20:07.1089	1.22182
3	0	12/12/2025 17:20:10.6089	1.22182
3	0	12/12/2025 17:20:14.1089	1.22183
3	0	12/12/2025 17:20:17.6089	1.22183
3	0	12/12/2025 17:20:21.1089	1.22183
3	0	12/12/2025 17:20:24.6089	1.22184
3	0	12/12/2025 17:20:28.1089	1.22183
3	0	12/12/2025 17:20:31.6089	1.22184
3	0	12/12/2025 17:20:35.1089	1.22184
3	0	12/12/2025 17:20:38.6089	1.22184
3	0	12/12/2025 17:20:42.1089	1.22184
3	0	12/12/2025 17:20:45.6089	1.22184
3	0	12/12/2025 17:20:49.1089	1.22185
3	0	12/12/2025 17:20:52.6089	1.22186
3	0	12/12/2025 17:20:56.1089	1.22186
3	0	12/12/2025 17:20:59.6089	1.22186
3	0	12/12/2025 17:21:03.1089	1.22186
3	0	12/12/2025 17:21:06.6089	1.22187
3	0	12/12/2025 17:21:10.1089	1.22077
3	0	12/12/2025 17:21:13.6089	1.22096
3	0	12/12/2025 17:21:17.1089	1.22107
3	0	12/12/2025 17:21:20.6089	1.22112
3	0	12/12/2025 17:21:24.1089	1.22112
3	0	12/12/2025 17:21:27.6089	1.22113
3	0	12/12/2025 17:21:31.1089	1.22115
3	0	12/12/2025 17:21:34.6089	1.22116
3	0	12/12/2025 17:21:38.1089	1.22117
3	0	12/12/2025 17:21:41.6089	1.22118
3	0	12/12/2025 17:21:45.1089	1.2212
3	0	12/12/2025 17:21:48.6089	1.22119
3	0	12/12/2025 17:21:52.1089	1.22123
3	0	12/12/2025 17:21:55.6089	1.22124
3	0	12/12/2025 17:21:59.1089	1.22126
3	0	12/12/2025 17:22:02.6089	1.22128
3	0	12/12/2025 17:22:06.1089	1.22129
3	0	12/12/2025 17:22:09.6089	1.22129
3	0	12/12/2025 17:22:13.1089	1.2213
3	0	12/12/2025 17:22:16.6089	1.2213
3	0	12/12/2025 17:22:20.1089	1.22132
3	0	12/12/2025 17:22:23.6089	1.22132
3	0	12/12/2025 17:22:27.1089	1.22131
3	0	12/12/2025 17:22:30.6089	1.22125
3	0	12/12/2025 17:22:34.1089	1.22124
3	0	12/12/2025 17:22:37.6089	1.22124
3	0	12/12/2025 17:22:41.1089	1.22124
3	0	12/12/2025 17:22:44.6089	1.22116
3	0	12/12/2025 17:22:48.1089	1.22116
3	0	12/12/2025 17:22:51.6089	1.22116
3	0	12/12/2025 17:22:55.1089	1.22117
3	0	12/12/2025 17:22:58.6089	1.22115
3	0	12/12/2025 17:23:02.1089	1.22115
3	0	12/12/2025 17:23:05.6089	1.22117
3	0	12/12/2025 17:23:09.1089	1.22116
3	0	12/12/2025 17:23:12.6089	1.22116
3	0	12/12/2025 17:23:16.1089	1.22116
3	0	12/12/2025 17:23:19.6089	1.22117
3	0	12/12/2025 17:23:23.1089	1.22117
3	0	12/12/2025 17:23:26.6089	1.22116
3	0	12/12/2025 17:23:30.1089	1.22117
3	0	12/12/2025 17:23:33.6089	1.22117
3	0	12/12/2025 17:23:37.1089	1.22116
3	0	12/12/2025 17:23:40.6089	1.22116
3	0	12/12/2025 17:23:44.1089	1.22117
3	0	12/12/2025 17:23:47.6089	1.22116
3	0	12/12/2025 17:23:51.1089	1.22116
3	0	12/12/2025 17:23:54.6089	1.22115
3	0	12/12/2025 17:23:58.1089	1.22116
3	0	12/12/2025 17:24:01.6089	1.22115
3	0	12/12/2025 17:24:05.1089	1.22115
3	0	12/12/2025 17:24:08.6089	1.22114
3	0	12/12/2025 17:24:12.1089	1.22115
3	0	12/12/2025 17:24:15.6089	1.22115
3	0	12/12/2025 17:24:19.1089	1.22114
3	0	12/12/2025 17:24:22.6089	1.22114
3	0	12/12/2025 17:24:26.1089	1.22114
3	0	12/12/2025 17:24:29.6089	1.22114
3	0	12/12/2025 17:24:33.1089	1.22114
3	0	12/12/2025 17:24:36.6089	1.22114
3	0	12/12/2025 17:24:40.1089	1.22113
3	0	12/12/2025 17:24:43.6089	1.22113
3	0	12/12/2025 17:24:47.1089	1.22112
3	0	12/12/2025 17:24:50.6089	1.22112
3	0	12/12/2025 17:24:54.1089	1.22109
3	0	12/12/2025 17:24:57.6089	1.22109
3	0	12/12/2025 17:25:01.1089	1.2211
3	0	12/12/2025 17:25:04.6089	1.22111
3	0	12/12/2025 17:25:08.1089	1.22109
3	0	12/12/2025 17:25:11.6089	1.22109
3	0	12/12/2025 17:25:15.1089	1.22109
3	0	12/12/2025 17:25:18.6089	1.22108
3	0	12/12/2025 17:25:22.1089	1.22108
3	0	12/12/2025 17:25:25.6089	1.22107
3	0	12/12/2025 17:25:29.1089	1.22104
3	0	12/12/2025 17:25:32.6089	1.22105
3	0	12/12/2025 17:25:36.1089	1.22104
3	0	12/12/2025 17:25:39.6089	1.22103
3	0	12/12/2025 17:25:43.1089	1.22104
3	0	12/12/2025 17:25:46.6089	1.22104
3	0	12/12/2025 17:25:50.1089	1.22103
3	0	12/12/2025 17:25:53.6089	1.22102
3	0	12/12/2025 17:25:57.1089	1.22102
3	0	12/12/2025 17:26:00.6089	1.22101
3	0	12/12/2025 17:26:04.1089	1.22102
3	0	12/12/2025 17:26:07.3449	1.22102