File: examples/echem/Biologic_EIS.mpt
EC-Lab ASCII FILE
Nb header lines : 71

Potentio Electrochemical Impedance Spectroscopy

Run on channel : 4 (SN 22626)
User :
CE vs. WE compliance from -10 V to 10 V
Electrode connection : standard
Potential control : Ewe
Ewe ctrl range : min = -1.00 V, max = 1.00 V
Safety Limits :
	Do not start on E overload
Acquisition started on : 03/27/2025 11:10:20.281
Loaded Setting File :  NONE
Saved on :
	File : LC-FreshElectrolyte_BulkCell-02C_C00_8_02_PEIS_C04.mpr
	Directory : C:\DATA\ChengLiu\2025\Zn-Mn-Charge\FreshElectrolyte_BulkCell\1-FreshElectrolyte_BulkCell-02C-Zn-1M Na2SO4+02M MnSO4-aMnO2-5.0mg_C00_8\
	Host : 192.109.209.127
Device : VSP (SN 1377)
Address : 192.109.209.128
EC-LAB for windows v11.52 (software)
Internet server v11.52 (firmware)
Command interpretor v11.50 (firmware)
Electrode material : alphaMnO2
Initial state :
Electrolyte : 1M Na2SO4 + 0.2M MnSO4 + Ar
Comments :
Mass of active material : 0.264 mg
 at x = 0.000
Molecular weight of active material (at x = 0) : 0.001 g/mol
Atomic weight of intercalated ion : 0.001 g/mol
Acquisition started at : xo = 0.000
Number of e- transfered per intercalated ion : 1
for DX = 1, DQ = 7075.596 mA.h
Battery capacity : 0.000 A.h
Reference electrode : Ag/AgCl / KCl (sat'd) (0.197 V)
Electrode surface area : 1.000 cm²
Characteristic mass : 0.264 mg
Volume (V) : 0.001 cm³
Record Ece
Cycle Definition : Charge/Discharge alternance
Mode                Single sine
E (V)               0.0000
vs.                 Eoc
tE (h:m:s)          0:00:0.0000
record              0
dI                  0.000
unit dI             mA
dt (s)              0.000
fi                  100.000
unit fi             kHz
ff                  10.000
unit ff             mHz
Nd                  6
Points              per decade
spacing             Logarithmic
Va (mV)             10.0
pw                  0.10
Na                  2
corr                0
E range min (V)     -1.000
E range max (V)     1.000
I Range             Auto
Bandwidth           5
nc cycles           0
goto Ns'            0
nr cycles           0
inc. cycle          0

freq/Hz	Re(Z)/Ohm	-Im(Z)/Ohm	|Z|/Ohm	Phase(Z)/deg	time/s	<Ewe>/V	<I>/mA	Cs/µF	Cp/µF	cycle number	I Range	|Ewe|/V	|I|/A	Ns	(Q-Qo)/mA.h	<Ece>/V	|Ece|/V	Phase(Zce)/deg	|Zce|/Ohm	Re(Zce)/Ohm	-Im(Zce)/Ohm	Phase(Zwe-ce)/deg	|Zwe-ce|/Ohm	Re(Zwe-ce)/Ohm	-Im(Zwe-ce)/Ohm	Re(Y)/Ohm-1	Im(Y)/Ohm-1	|Y|/Ohm-1	Phase(Y)/deg	Re(C)/nF	Im(C)/nF	|C|/nF	Phase(C)/deg	Re(M)	Im(M)	|M|	Phase(M)/deg	Re(Permittivity)	Im(Permittivity)	|Permittivity|	Phase(Permittivity)/deg	Re(Resistivity)/Ohm.cm	Im(Resistivity)/Ohm.cm	|Resistivity|/Ohm.cm	Phase(Resistivity)/deg	Re(Conductivity)/mS/cm	Im(Conductivity)/mS/cm	|Conductivity|/mS/cm	Phase(Conductivity)/deg	Tan(Delta)	Loss Angle(Delta)/deg	dq/mA.h	x	Pwe/W	Pce/W	Pwe-ce/W	<Ewe-Ece>/V	Rwe/Ohm	Rce/Ohm	Rwe-ce/Ohm		Ewe-Ece/V
100004	15.188	5.69092	16.2192	-20.5409	1801.67	0.678535	0.0317725	0.279654	0.0344294	1	10	0.00935656	0.000576883	0	2.04056e-06	-1.00774	0.00217518	-17.6215	3.77057	3.59364	1.14145	-19.9904	19.9858	18.7816	6.83238	0.0577355	0.0216334	0.0616554	20.5409	34.4294	91.8855	98.124	-69.4591	0.0000000E+000	0.0000000E+000	0.0000000E+000	69.4591	0.0000000E+000	0.0000000E+000	0.0000000E+000	-69.4591	0.0000000E+000	0.0000000E+000	0.0000000E+000	-20.5409	0.0000000E+000	0.0000000E+000	0.0000000E+000	20.5409	2.66881	69.4591	2.04056e-06	-2.88394e-10	2.15587e-05	-3.20186e-05	5.35773e-05	1.68628	21356	31717.5	53073.6
68132	16.8565	6.60428	18.1041	-21.3949	1802.05	0.67852	0.0314445	0.353707	0.0470695	1	10	0.0103953	0.000574198	0	4.71216e-06	-1.00929	0.00239478	-23.5455	4.17065	3.82341	1.66608	-21.7976	22.2724	20.6799	8.27036	0.0514296	0.0201498	0.0552361	21.3949	47.0695	120.139	129.03	-68.6051	0.0000000E+000	0.0000000E+000	0.0000000E+000	68.6051	0.0000000E+000	0.0000000E+000	0.0000000E+000	-68.6051	0.0000000E+000	0.0000000E+000	0.0000000E+000	-21.3949	0.0000000E+000	0.0000000E+000	0.0000000E+000	21.3949	2.55236	68.6051	2.6716e-06	-6.65973e-10	2.13357e-05	-3.17367e-05	5.30724e-05	1.68781	21578.3	32097.5	53675.8
46420.4	18.9154	7.09066	20.2008	-20.5491	1802.43	0.678512	0.0334758	0.483532	0.0595749	1	10	0.0103108	0.000510418	0	8.25535e-06	-1.01009	0.00241158	-30.567	4.7247	4.06814	2.40273	-22.4431	24.867	22.9836	9.49339	0.0463533	0.0173761	0.0495031	20.5491	59.5748	158.925	169.724	-69.4509	0.0000000E+000	0.0000000E+000	0.0000000E+000	69.4509	0.0000000E+000	0.0000000E+000	0.0000000E+000	-69.4509	0.0000000E+000	0.0000000E+000	0.0000000E+000	-20.5491	0.0000000E+000	0.0000000E+000	0.0000000E+000	20.5491	2.66765	69.4509	3.54319e-06	-1.16674e-09	2.27137e-05	-3.38137e-05	5.65274e-05	1.6886	20268.7	30173.8	50442.5
31621.1	21.1924	6.9966	22.3175	-18.2704	1802.81	0.67856	0.0337106	0.719376	0.0707029	1	10	0.0101952	0.000456827	0	1.23621e-05	-1.00931	0.0025036	-36.6769	5.48042	4.39538	3.27347	-21.8688	27.5719	25.5878	10.2701	0.042549	0.0140474	0.0448078	18.2704	70.7029	214.157	225.526	-71.7296	0.0000000E+000	0.0000000E+000	0.0000000E+000	71.7296	0.0000000E+000	0.0000000E+000	0.0000000E+000	-71.7296	0.0000000E+000	0.0000000E+000	0.0000000E+000	-18.2704	0.0000000E+000	0.0000000E+000	0.0000000E+000	18.2704	3.02896	71.7296	4.10675e-06	-1.74715e-09	2.28747e-05	-3.40245e-05	5.68991e-05	1.68787	20129	29940.4	50069.4
21544.7	23.4539	6.60465	24.3661	-15.7273	1803.19	0.678479	0.0333193	1.11849	0.0821783	1	10	0.010108	0.000414837	0	1.5523e-05	-1.01055	0.00276924	-42.6881	6.67548	4.90684	4.52602	-21.4284	30.4668	28.3608	11.1307	0.0395042	0.0111244	0.0410406	15.7273	82.1783	291.825	303.175	-74.2727	0.0000000E+000	0.0000000E+000	0.0000000E+000	74.2727	0.0000000E+000	0.0000000E+000	0.0000000E+000	-74.2727	0.0000000E+000	0.0000000E+000	0.0000000E+000	-15.7273	0.0000000E+000	0.0000000E+000	0.0000000E+000	15.7273	3.55112	74.2727	3.16088e-06	-2.19388e-09	2.26064e-05	-3.36708e-05	5.62772e-05	1.68903	20363	30329.3	50692.3
14678.6	25.2002	5.76183	25.8505	-12.8789	1803.44	0.678534	0.034553	1.88181	0.0934887	1	10	0.0104926	0.000405897	0	1.79424e-05	-1.01059	0.00338032	-45.9841	8.32801	5.78678	5.98907	-20.7678	33.1402	30.9869	11.7509	0.0377109	0.00862231	0.038684	12.8789	93.4887	408.886	419.438	-77.1211	0.0000000E+000	0.0000000E+000	0.0000000E+000	77.1211	0.0000000E+000	0.0000000E+000	0.0000000E+000	-77.1211	0.0000000E+000	0.0000000E+000	0.0000000E+000	-12.8789	0.0000000E+000	0.0000000E+000	0.0000000E+000	12.8789	4.37364	77.1211	2.41943e-06	-2.53581e-09	2.34454e-05	-3.49188e-05	5.83642e-05	1.68912	19637.5	29247.5	48885.1
10002.2	26.6399	4.79636	27.0682	-10.2064	1803.7	0.678509	0.0348586	3.31751	0.104163	1	10	0.0107178	0.000395956	0	2.03145e-05	-1.01059	0.00420711	-47.8864	10.6252	7.12528	7.88194	-20.5804	36.067	33.7652	12.6783	0.0363591	0.00654624	0.0369437	10.2064	104.163	578.544	587.846	-79.7936	0.0000000E+000	0.0000000E+000	0.0000000E+000	79.7936	0.0000000E+000	0.0000000E+000	0.0000000E+000	-79.7936	0.0000000E+000	0.0000000E+000	0.0000000E+000	-10.2064	0.0000000E+000	0.0000000E+000	0.0000000E+000	10.2064	5.55419	79.7936	2.37213e-06	-2.87107e-09	2.36519e-05	-3.52277e-05	5.88796e-05	1.6891	19464.6	28991.1	48455.7
6810.42	27.5984	3.89522	27.8719	-8.03362	1803.96	0.67853	0.0337591	5.99949	0.117177	1	10	0.0108493	0.000389256	0	2.28803e-05	-1.01025	0.0051803	-47.798	13.3082	8.93974	9.85846	-20.6273	39.041	36.5381	13.7537	0.0355263	0.00501415	0.0358784	8.03362	117.177	830.225	838.454	-81.9664	0.0000000E+000	0.0000000E+000	0.0000000E+000	81.9664	0.0000000E+000	0.0000000E+000	0.0000000E+000	-81.9664	0.0000000E+000	0.0000000E+000	0.0000000E+000	-8.03362	0.0000000E+000	0.0000000E+000	0.0000000E+000	8.03362	7.0852	81.9664	2.5658e-06	-3.2337e-09	2.29065e-05	-3.41049e-05	5.70115e-05	1.68878	20099.2	29925.2	50024.3
4646	28.1977	3.2653	28.3861	-6.60544	1804.22	0.678552	0.0342585	10.491	0.13882	1	10	0.0109249	0.000384869	0	2.51607e-05	-1.01133	0.00635006	-47.5651	16.4993	11.1329	12.1772	-21.4366	42.2536	39.3306	15.4425	0.0349946	0.00405238	0.0352285	6.60544	138.82	1198.79	1206.8	-83.3946	0.0000000E+000	0.0000000E+000	0.0000000E+000	83.3946	0.0000000E+000	0.0000000E+000	0.0000000E+000	-83.3946	0.0000000E+000	0.0000000E+000	0.0000000E+000	-6.60544	0.0000000E+000	0.0000000E+000	0.0000000E+000	6.60544	8.63557	83.3946	2.28038e-06	-3.55599e-09	2.32462e-05	-3.46468e-05	5.78929e-05	1.68989	19806.8	29520.6	49327.5
3163.08	28.68	2.63237	28.8005	-5.24416	1804.77	0.678571	0.0343815	19.1145	0.159682	1	10	0.0100113	0.000347608	0	3.07108e-05	-1.00694	0.00704582	-46.8076	20.2694	13.8734	14.7776	-22.2511	45.9772	42.5534	17.41	0.0345762	0.00317356	0.0347216	5.24416	159.682	1739.75	1747.07	-84.7558	0.0000000E+000	0.0000000E+000	0.0000000E+000	84.7558	0.0000000E+000	0.0000000E+000	0.0000000E+000	-84.7558	0.0000000E+000	0.0000000E+000	0.0000000E+000	-5.24416	0.0000000E+000	0.0000000E+000	0.0000000E+000	5.24416	10.8951	84.7558	5.55008e-06	-4.34038e-09	2.33303e-05	-3.46202e-05	5.79505e-05	1.68551	19736.5	29287.4	49023.9
2155.69	29.1638	2.33751	29.2574	-4.58251	1805.22	0.678614	0.0350897	31.585	0.201612	1	10	0.010125	0.000346067	0	3.51484e-05	-1.01105	0.0085428	-46.1635	24.6854	17.0972	17.8061	-23.5299	50.4564	46.261	20.1436	0.0340702	0.00273076	0.0341794	4.58251	201.612	2515.41	2523.47	-85.4175	0.0000000E+000	0.0000000E+000	0.0000000E+000	85.4175	0.0000000E+000	0.0000000E+000	0.0000000E+000	-85.4175	0.0000000E+000	0.0000000E+000	0.0000000E+000	-4.58251	0.0000000E+000	0.0000000E+000	0.0000000E+000	4.58251	12.4765	85.4175	4.43757e-06	-4.96755e-09	2.38123e-05	-3.54773e-05	5.92896e-05	1.68966	19339.4	28813.2	48152.7
1468.59	29.4845	2.24439	29.5698	-4.35301	1805.67	0.678562	0.034553	48.2861	0.278176	1	10	0.0101413	0.000342962	0	3.96098e-05	-1.01345	0.0102647	-46.3783	29.9296	20.6482	21.6663	-25.4987	55.5429	50.1327	23.9107	0.0337207	0.00256685	0.0338183	4.35301	278.176	3654.4	3664.97	-85.647	0.0000000E+000	0.0000000E+000	0.0000000E+000	85.647	0.0000000E+000	0.0000000E+000	0.0000000E+000	-85.647	0.0000000E+000	0.0000000E+000	0.0000000E+000	-4.35301	0.0000000E+000	0.0000000E+000	0.0000000E+000	4.35301	13.137	85.647	4.46139e-06	-5.59808e-09	2.34463e-05	-3.50178e-05	5.84641e-05	1.69201	19638.3	29330.4	48968.7
1000.32	29.9002	2.14474	29.977	-4.10279	1806.12	0.678595	0.0346238	74.1835	0.379732	1	10	0.0101938	0.000340052	0	4.42033e-05	-1.01074	0.0124582	-46.0954	36.6361	25.4057	26.3961	-27.2962	62.236	55.3059	28.5409	0.0332734	0.00238669	0.0333589	4.10279	379.732	5293.93	5307.53	-85.8972	0.0000000E+000	0.0000000E+000	0.0000000E+000	85.8972	0.0000000E+000	0.0000000E+000	0.0000000E+000	-85.8972	0.0000000E+000	0.0000000E+000	0.0000000E+000	-4.10279	0.0000000E+000	0.0000000E+000	0.0000000E+000	4.10279	13.9412	85.8972	4.59357e-06	-6.24729e-09	2.34955e-05	-3.49957e-05	5.84912e-05	1.68934	19599.1	29192.1	48791.2
681.09	30.2243	2.23151	30.3066	-4.22257	1806.57	0.678573	0.0343778	104.717	0.567727	1	10	0.0101841	0.000336036	0	4.82484e-05	-0.99654	0.0151301	-45.9906	45.0254	31.2826	32.3834	-29.37	70.5783	61.5069	34.6149	0.0329065	0.00242954	0.0329961	4.22257	567.727	7689.5	7710.43	-85.7774	0.0000000E+000	0.0000000E+000	0.0000000E+000	85.7774	0.0000000E+000	0.0000000E+000	0.0000000E+000	-85.7774	0.0000000E+000	0.0000000E+000	0.0000000E+000	-4.22257	0.0000000E+000	0.0000000E+000	0.0000000E+000	4.22257	13.5444	85.7774	4.0451e-06	-6.81899e-09	2.33278e-05	-3.42588e-05	5.75867e-05	1.67511	19738.7	28987.9	48726.6
463.961	30.7745	2.32385	30.8621	-4.31833	1807.27	0.678582	0.00269703	147.615	0.836942	1	11	0.0102223	0.000331224	0	5.11755e-05	-1.0304	0.018595	-45.1205	56.1403	39.6136	39.7806	-30.8868	82.02	70.3881	42.1045	0.0323102	0.00243981	0.0324022	4.31833	836.942	11083.5	11115.1	-85.6817	0.0000000E+000	0.0000000E+000	0.0000000E+000	85.6817	0.0000000E+000	0.0000000E+000	0.0000000E+000	-85.6817	0.0000000E+000	0.0000000E+000	0.0000000E+000	-4.31833	0.0000000E+000	0.0000000E+000	0.0000000E+000	4.31833	13.2429	85.6817	2.92703e-06	-7.23267e-09	1.83015e-06	-2.77902e-06	4.60917e-06	1.70898	251604	382051	633655
316.316	31.4304	2.31188	31.5153	-4.20686	1807.71	0.678573	0.00254004	217.637	1.17118	1	11	0.010261	0.000325589	0	5.17341e-05	-1.03523	0.0226225	-42.2861	69.4817	51.4022	46.7496	-30.6381	96.2718	82.8326	49.0615	0.0316451	0.00232768	0.0317306	4.20686	1171.18	15922.3	15965.3	-85.7931	0.0000000E+000	0.0000000E+000	0.0000000E+000	85.7931	0.0000000E+000	0.0000000E+000	0.0000000E+000	-85.7931	0.0000000E+000	0.0000000E+000	0.0000000E+000	-4.20686	0.0000000E+000	0.0000000E+000	0.0000000E+000	4.20686	13.5951	85.7931	5.58648e-07	-7.31163e-09	1.7236e-06	-2.62952e-06	4.35312e-06	1.7138	267151	407566	674716
215.345	32.0361	2.37056	32.1237	-4.23198	1808.16	0.678561	0.00265936	311.77	1.6978	1	11	0.0102627	0.000319475	0	5.20939e-05	-1.00026	0.0269721	-38.0269	84.4262	66.5043	52.0092	-28.8922	112.549	98.5404	54.3798	0.0310448	0.00229721	0.0311297	4.23198	1697.8	22944.3	23007	-85.768	0.0000000E+000	0.0000000E+000	0.0000000E+000	85.768	0.0000000E+000	0.0000000E+000	0.0000000E+000	-85.768	0.0000000E+000	0.0000000E+000	0.0000000E+000	-4.23198	0.0000000E+000	0.0000000E+000	0.0000000E+000	4.23198	13.5141	85.768	3.59754e-07	-7.36247e-09	1.80454e-06	-2.66006e-06	4.4646e-06	1.67882	255160	376129	631288
146.737	32.6633	2.24396	32.7403	-3.93003	1808.61	0.678592	0.00255681	483.353	2.27054	1	11	0.0102878	0.000314225	0	5.28482e-05	-0.98713	0.0309818	-33.0984	98.5976	82.5986	53.8421	-25.9474	128.183	115.262	56.0861	0.0304716	0.00209339	0.0305434	3.93003	2270.54	33050.2	33128.1	-86.07	0.0000000E+000	0.0000000E+000	0.0000000E+000	86.07	0.0000000E+000	0.0000000E+000	0.0000000E+000	-86.07	0.0000000E+000	0.0000000E+000	0.0000000E+000	-3.93003	0.0000000E+000	0.0000000E+000	0.0000000E+000	3.93003	14.5561	86.07	7.54315e-07	-7.46908e-09	1.73503e-06	-2.52391e-06	4.25894e-06	1.66572	265405	386078	651483
100.032	33.249	2.08774	33.3145	-3.59294	1809.06	0.678576	0.00252176	762.088	2.99289	1	11	0.0103068	0.000309379	0	5.28682e-05	-1.04331	0.0340555	-27.5243	110.077	97.6179	50.8693	-22.0314	141.176	130.867	52.957	0.029958	0.00188109	0.030017	3.59294	2992.89	47664.4	47758.2	-86.4071	0.0000000E+000	0.0000000E+000	0.0000000E+000	86.4071	0.0000000E+000	0.0000000E+000	0.0000000E+000	-86.4071	0.0000000E+000	0.0000000E+000	0.0000000E+000	-3.59294	0.0000000E+000	0.0000000E+000	0.0000000E+000	3.59294	15.9259	86.4071	2.00398e-08	-7.47191e-09	1.71121e-06	-2.63097e-06	4.34217e-06	1.72188	269088	413721	682809
68.104	33.7625	2.09074	33.8272	-3.54351	1809.52	0.67861	0.0028432	1117.76	4.26988	1	11	0.0103275	0.000305302	0	5.3151e-05	-0.990776	0.0363095	-22.5169	118.93	109.863	45.5448	-18.3488	151.319	143.626	47.6355	0.0295055	0.00182712	0.029562	3.54351	4269.88	68952.5	69084.6	-86.4565	0.0000000E+000	0.0000000E+000	0.0000000E+000	86.4565	0.0000000E+000	0.0000000E+000	0.0000000E+000	-86.4565	0.0000000E+000	0.0000000E+000	0.0000000E+000	-3.54351	0.0000000E+000	0.0000000E+000	0.0000000E+000	3.54351	16.1486	86.4565	2.82741e-07	-7.51187e-09	1.92942e-06	-2.81697e-06	4.7464e-06	1.66939	238679	348472	587151
46.4415	34.1485	1.97379	34.2055	-3.30803	1809.96	0.678584	0.00289279	1736.25	5.78127	1	11	0.0103053	0.000301275	0	5.36421e-05	-1.0588	0.037757	-18.326	125.324	118.968	39.4048	-15.1225	158.609	153.117	41.3786	0.0291863	0.00168698	0.0292351	3.30803	5781.26	100021	100188	-86.692	0.0000000E+000	0.0000000E+000	0.0000000E+000	86.692	0.0000000E+000	0.0000000E+000	0.0000000E+000	-86.692	0.0000000E+000	0.0000000E+000	0.0000000E+000	-3.30803	0.0000000E+000	0.0000000E+000	0.0000000E+000	3.30803	17.301	86.692	4.91141e-07	-7.58128e-09	1.963e-06	-3.0629e-06	5.02591e-06	1.73739	234578	366015	600592
31.6296	34.7729	2.08887	34.8355	-3.43774	1810.38	0.678581	0.00303002	2408.88	8.66152	1	11	0.0103691	0.000297659	0	5.34121e-05	-1.01601	0.0387475	-14.8819	130.174	125.808	33.4322	-12.4732	164.462	160.58	35.5211	0.0286547	0.00172134	0.0287063	3.43774	8661.51	144186	144446	-86.5623	0.0000000E+000	0.0000000E+000	0.0000000E+000	86.5623	0.0000000E+000	0.0000000E+000	0.0000000E+000	-86.5623	0.0000000E+000	0.0000000E+000	0.0000000E+000	-3.43774	0.0000000E+000	0.0000000E+000	0.0000000E+000	3.43774	16.6467	86.5623	-2.30033e-07	-7.54877e-09	2.05611e-06	-3.07853e-06	5.13464e-06	1.69459	223953	335315	559267
21.5517	35.0149	2.04969	35.0748	-3.35015	1810.8	0.67855	0.00264817	3602.88	12.3037	1	11	0.010338	0.000294742	0	5.34872e-05	-1.04783	0.0393734	-12.3292	133.586	130.505	28.5245	-10.4655	168.32	165.52	30.5741	0.0284618	0.00166609	0.0285105	3.35015	12303.7	210184	210544	-86.6499	0.0000000E+000	0.0000000E+000	0.0000000E+000	86.6499	0.0000000E+000	0.0000000E+000	0.0000000E+000	-86.6499	0.0000000E+000	0.0000000E+000	0.0000000E+000	-3.35015	0.0000000E+000	0.0000000E+000	0.0000000E+000	3.35015	17.083	86.6499	7.51418e-08	-7.55939e-09	1.79692e-06	-2.77483e-06	4.57175e-06	1.72638	256234	395680	651914
14.6852	35.509	2.21797	35.5782	-3.57417	1811.26	0.678578	0.00289428	4886.37	18.9901	1	11	0.0103575	0.000291119	0	5.31511e-05	-1.00167	0.0397119	-10.5075	136.411	134.124	24.8765	-9.07488	171.783	169.633	27.0945	0.0280524	0.00175221	0.0281071	3.57417	18990.1	304027	304619	-86.4258	0.0000000E+000	0.0000000E+000	0.0000000E+000	86.4258	0.0000000E+000	0.0000000E+000	0.0000000E+000	-86.4258	0.0000000E+000	0.0000000E+000	0.0000000E+000	-3.57417	0.0000000E+000	0.0000000E+000	0.0000000E+000	3.57417	16.0097	86.4258	-3.36071e-07	-7.5119e-09	1.964e-06	-2.89913e-06	4.86313e-06	1.68025	234455	346087	580542
10.0032	35.7445	2.46471	35.8294	-3.94451	1811.71	0.678549	0.00179088	6455.28	30.547	1	11	0.0103174	0.00028796	0	5.57146e-05	-1.0363	0.039854	-9.20645	138.401	136.618	22.1431	-8.12508	174.11	172.363	24.6078	0.027844	0.00191994	0.0279101	3.94451	30547	443009	444060	-86.0555	0.0000000E+000	0.0000000E+000	0.0000000E+000	86.0555	0.0000000E+000	0.0000000E+000	0.0000000E+000	-86.0555	0.0000000E+000	0.0000000E+000	0.0000000E+000	-3.94451	0.0000000E+000	0.0000000E+000	0.0000000E+000	3.94451	14.5025	86.0555	2.56342e-06	-7.87419e-09	1.2152e-06	-1.85589e-06	3.07109e-06	1.71485	378891	578654	957545
6.81719	36.1759	2.69486	36.2761	-4.26027	1812.05	0.678554	0.00357892	8663.22	47.8089	1	11	0.0103129	0.000284289	0	5.39809e-05	-0.989936	0.0399971	-8.49828	140.692	139.147	20.7914	-7.62991	176.889	175.323	23.4862	0.0274902	0.00204783	0.0275664	4.26027	47808.9	641789	643567	-85.7397	0.0000000E+000	0.0000000E+000	0.0000000E+000	85.7397	0.0000000E+000	0.0000000E+000	0.0000000E+000	-85.7397	0.0000000E+000	0.0000000E+000	0.0000000E+000	-4.26027	0.0000000E+000	0.0000000E+000	0.0000000E+000	4.26027	13.424	85.7397	-1.7337e-06	-7.62916e-09	2.42849e-06	-3.5429e-06	5.9714e-06	1.66849	189597	276602	466199
4.63925	36.6915	3.14551	36.8261	-4.89991	1812.53	0.67858	0.00202133	10906.4	79.5706	1	11	0.0103216	0.00028028	0	5.31525e-05	-1.03034	0.0400697	-7.95357	142.963	141.588	19.7819	-7.32823	179.747	178.279	22.9274	0.0270555	0.00231943	0.0271547	4.89991	79570.5	928169	931573	-85.1001	0.0000000E+000	0.0000000E+000	0.0000000E+000	85.1001	0.0000000E+000	0.0000000E+000	0.0000000E+000	-85.1001	0.0000000E+000	0.0000000E+000	0.0000000E+000	-4.89991	0.0000000E+000	0.0000000E+000	0.0000000E+000	4.89991	11.6647	85.1001	-8.28333e-07	-7.51209e-09	1.37163e-06	-2.08267e-06	3.4543e-06	1.70893	335710	509736	845446
3.1604	37.2122	4.00644	37.4272	-6.14507	1813.23	0.678561	0.000922404	12569.6	144.033	1	11	0.0103443	0.000276385	0	5.66874e-05	-1.06617	0.0399124	-7.61354	144.409	143.136	19.1328	-7.3113	181.826	180.348	23.1393	0.026565	0.00286011	0.0267185	6.14507	144033	1.33779e+06	1.34552e+06	-83.8549	0.0000000E+000	0.0000000E+000	0.0000000E+000	83.8549	0.0000000E+000	0.0000000E+000	0.0000000E+000	-83.8549	0.0000000E+000	0.0000000E+000	0.0000000E+000	-6.14507	0.0000000E+000	0.0000000E+000	0.0000000E+000	6.14507	9.28809	83.8549	3.53482e-06	-8.01167e-09	6.25907e-07	-9.83442e-07	1.60935e-06	1.74473	735644	1.15586e+06	1.89151e+06
2.15577	37.7068	4.99406	38.036	-7.54462	1814.23	0.678576	0.00300009	14783.1	254.848	1	11	0.0103323	0.000271645	0	6.11436e-05	-1.04182	0.0402789	-7.43812	148.277	147.03	19.1953	-7.45986	186.313	184.736	24.1894	0.0260632	0.00345194	0.0262908	7.54462	254848	1.92418e+06	1.94099e+06	-82.4554	0.0000000E+000	0.0000000E+000	0.0000000E+000	82.4554	0.0000000E+000	0.0000000E+000	0.0000000E+000	-82.4554	0.0000000E+000	0.0000000E+000	0.0000000E+000	-7.54462	0.0000000E+000	0.0000000E+000	0.0000000E+000	7.54462	7.55032	82.4554	4.45626e-06	-8.64148e-09	2.03579e-06	-3.12555e-06	5.16134e-06	1.72039	226185	347261	573446
1.46631	38.2858	6.45608	38.8263	-9.57167	1816.42	0.678583	0.00121121	16812.2	464.848	1	12	0.0103258	0.000265949	0	6.12913e-05	-0.993353	0.0404243	-8.52829	152	150.319	22.5412	-8.74057	190.821	188.605	28.9973	0.0253972	0.00428269	0.0257557	9.57167	464848	2.75664e+06	2.79556e+06	-80.4283	0.0000000E+000	0.0000000E+000	0.0000000E+000	80.4283	0.0000000E+000	0.0000000E+000	0.0000000E+000	-80.4283	0.0000000E+000	0.0000000E+000	0.0000000E+000	-9.57167	0.0000000E+000	0.0000000E+000	0.0000000E+000	9.57167	5.93019	80.4283	1.47728e-07	-8.66236e-09	8.21904e-07	-1.20316e-06	2.02506e-06	1.67194	560254	820134	1.38039e+06
1.00006	38.9191	8.4955	39.8355	-12.3137	1818.55	0.678595	0.000864476	18732.8	852.002	1	12	0.0103276	0.000259255	0	5.37083e-05	-0.99278	0.0399094	-8.47488	153.939	152.258	22.6868	-9.26378	193.703	191.177	31.1823	0.0245257	0.00535363	0.0251032	12.3137	852002	3.90314e+06	3.99505e+06	-77.6863	0.0000000E+000	0.0000000E+000	0.0000000E+000	77.6863	0.0000000E+000	0.0000000E+000	0.0000000E+000	-77.6863	0.0000000E+000	0.0000000E+000	0.0000000E+000	-12.3137	0.0000000E+000	0.0000000E+000	0.0000000E+000	12.3137	4.58114	77.6863	-7.58307e-06	-7.59064e-09	5.86629e-07	-8.58235e-07	1.44486e-06	1.67137	784978	1.14842e+06	1.9334e+06
0.681362	39.9924	11.2653	41.5487	-15.7318	1821.66	0.678605	-0.000397563	20734.8	1524.29	1	12	0.0103456	0.000249	0	4.43704e-05	-1.00339	0.0390848	-9.10685	156.967	154.989	24.8442	-10.492	198.297	194.981	36.1094	0.0231666	0.00652568	0.0240681	15.7318	1.52429e+06	5.41132e+06	5.62191e+06	-74.2682	0.0000000E+000	0.0000000E+000	0.0000000E+000	74.2682	0.0000000E+000	0.0000000E+000	0.0000000E+000	-74.2682	0.0000000E+000	0.0000000E+000	0.0000000E+000	-15.7318	0.0000000E+000	0.0000000E+000	0.0000000E+000	15.7318	3.55006	74.2682	-9.33786e-06	-6.27091e-09	-2.69789e-07	3.98912e-07	-6.68701e-07	1.682	1.70691e+06	2.52386e+06	4.23077e+06
0.464091	41.282	15.554	44.115	-20.6452	1826.22	0.678595	-0.00111736	22048.3	2740.87	1	12	0.0103315	0.000234195	0	3.95911e-05	-1.0301	0.0380754	-9.01447	162.58	160.572	25.4737	-11.4891	205.981	201.854	41.0277	0.0212123	0.00799228	0.022668	20.6452	2.74087e+06	7.27455e+06	7.77377e+06	-69.3549	0.0000000E+000	0.0000000E+000	0.0000000E+000	69.3549	0.0000000E+000	0.0000000E+000	0.0000000E+000	-69.3549	0.0000000E+000	0.0000000E+000	0.0000000E+000	-20.6452	0.0000000E+000	0.0000000E+000	0.0000000E+000	20.6452	2.6541	69.3549	-4.77931e-06	-5.59544e-09	-7.58234e-07	1.15099e-06	-1.90922e-06	1.70869	607320	921903	1.52922e+06
0.316193	42.2088	21.35	47.3012	-26.8311	1832.89	0.678587	-0.000521858	23576	4803.1	1	12	0.0103262	0.000218308	0	5.08237e-05	-1.06436	0.0369205	-9.22545	169.121	166.933	27.1134	-13.0466	214.684	209.142	48.4634	0.0188651	0.00954231	0.0211411	26.8311	4.8031e+06	9.49569e+06	1.06413e+07	-63.1689	0.0000000E+000	0.0000000E+000	0.0000000E+000	63.1689	0.0000000E+000	0.0000000E+000	0.0000000E+000	-63.1689	0.0000000E+000	0.0000000E+000	0.0000000E+000	-26.8311	0.0000000E+000	0.0000000E+000	0.0000000E+000	26.8311	1.97699	63.1689	1.12326e-05	-7.18296e-09	-3.54126e-07	5.55444e-07	-9.0957e-07	1.74295	1.30033e+06	2.03956e+06	3.33989e+06
0.215268	43.9552	28.836	52.5697	-33.2662	1842.69	0.678592	0.000104375	25639.3	7714.46	1	12	0.010327	0.000196444	0	7.96005e-05	-1.06449	0.0350692	-9.22766	178.52	176.21	28.627	-14.6279	227.54	220.165	57.4631	0.0159052	0.0104343	0.0190224	33.2662	7.71446e+06	1.17593e+07	1.40639e+07	-56.7338	0.0000000E+000	0.0000000E+000	0.0000000E+000	56.7338	0.0000000E+000	0.0000000E+000	0.0000000E+000	-56.7338	0.0000000E+000	0.0000000E+000	0.0000000E+000	-33.2662	0.0000000E+000	0.0000000E+000	0.0000000E+000	33.2662	1.52431	56.7338	2.87768e-05	-1.125e-08	7.08278e-08	-1.11106e-07	1.81934e-07	1.74308	6.50149e+06	1.01988e+07	1.67003e+07
0.146929	46.8964	40.1404	61.7294	-40.5615	1857.02	0.678593	0.000225028	26985.5	11410.7	1	12	0.0103309	0.000167357	0	0.000108097	-1.02658	0.0314499	-8.28771	187.92	185.958	27.0876	-16.1041	242.365	232.854	67.228	0.0123071	0.0105341	0.0161997	40.5615	1.14107e+07	1.33312e+07	1.75477e+07	-49.4385	0.0000000E+000	0.0000000E+000	0.0000000E+000	49.4385	0.0000000E+000	0.0000000E+000	0.0000000E+000	-49.4385	0.0000000E+000	0.0000000E+000	0.0000000E+000	-40.5615	0.0000000E+000	0.0000000E+000	0.0000000E+000	40.5615	1.16831	49.4385	2.84962e-05	-1.52774e-08	1.52702e-07	-2.3101e-07	3.83713e-07	1.70518	3.01559e+06	4.56203e+06	7.57762e+06
0.0999041	49.7744	56.9021	75.5999	-48.8226	1878.1	0.678592	0.000238513	27996.8	15860.7	1	12	0.0103304	0.000136646	0	0.000109523	-1.01221	0.0236187	-5.88897	172.846	171.934	17.7342	-18.6054	233.934	221.708	74.6363	0.00870891	0.00995602	0.0132275	48.8226	1.58607e+07	1.3874e+07	2.10725e+07	-41.1774	0.0000000E+000	0.0000000E+000	0.0000000E+000	41.1774	0.0000000E+000	0.0000000E+000	0.0000000E+000	-41.1774	0.0000000E+000	0.0000000E+000	0.0000000E+000	-48.8226	0.0000000E+000	0.0000000E+000	0.0000000E+000	48.8226	0.874738	41.1774	1.42604e-06	-1.54789e-08	1.61853e-07	-2.41425e-07	4.03278e-07	1.6908	2.8451e+06	4.24385e+06	7.08894e+06
0.0680626	53.5787	79.8359	96.1481	-56.1341	1909.03	0.678586	0.000405681	29289.6	20194.3	1	12	0.0103292	0.00010743	0	8.06082e-05	-1.00805	0.0151868	-7.18674	141.364	140.254	17.6852	-26.7079	216.982	193.832	97.5211	0.00579577	0.00863609	0.0104006	56.1341	2.01943e+07	1.35526e+07	2.43204e+07	-33.8659	0.0000000E+000	0.0000000E+000	0.0000000E+000	33.8659	0.0000000E+000	0.0000000E+000	0.0000000E+000	-33.8659	0.0000000E+000	0.0000000E+000	0.0000000E+000	-56.1341	0.0000000E+000	0.0000000E+000	0.0000000E+000	56.1341	0.67111	33.866	-2.89145e-05	-1.13924e-08	2.7529e-07	-4.08947e-07	6.84237e-07	1.68664	1.67271e+06	2.48483e+06	4.15754e+06
0.0464052	60.6521	111.966	127.339	-61.5556	1954.38	0.678592	0.00039034	30631.3	23682.1	1	12	0.0103292	8.11157e-05	0	2.81078e-05	-1.01032	0.0116052	-5.95889	143.069	142.296	14.8527	-32.0006	239.314	202.948	126.819	0.00374046	0.00690505	0.00785307	61.5556	2.36821e+07	1.28286e+07	2.69335e+07	-28.4444	0.0000000E+000	0.0000000E+000	0.0000000E+000	28.4444	0.0000000E+000	0.0000000E+000	0.0000000E+000	-28.4444	0.0000000E+000	0.0000000E+000	0.0000000E+000	-61.5556	0.0000000E+000	0.0000000E+000	0.0000000E+000	61.5556	0.541699	28.4444	-5.25004e-05	-3.9725e-09	2.64882e-07	-3.94369e-07	6.59251e-07	1.68891	1.73846e+06	2.58831e+06	4.32677e+06
0.0315922	72.7601	159.19	175.03	-65.4366	2020.99	0.678588	0.000470765	31646.4	26177.7	1	12	0.0103304	5.90206e-05	0	-3.63794e-06	-1.01387	0.00880585	-3.7569	149.2	148.879	9.77607	-37.32	278.7	221.639	168.966	0.00237502	0.00519626	0.0057133	65.4366	2.61777e+07	1.19649e+07	2.87824e+07	-24.5634	0.0000000E+000	0.0000000E+000	0.0000000E+000	24.5634	0.0000000E+000	0.0000000E+000	0.0000000E+000	-24.5634	0.0000000E+000	0.0000000E+000	0.0000000E+000	-65.4366	0.0000000E+000	0.0000000E+000	0.0000000E+000	65.4366	0.457064	24.5634	-3.17457e-05	5.14153e-10	3.19456e-07	-4.77296e-07	7.96751e-07	1.69246	1.44146e+06	2.15367e+06	3.59513e+06
0.0215268	92.5353	224.969	243.256	-67.6414	2165.33	0.678592	0.000337085	32863.9	28108.3	1	13	0.0103298	4.24645e-05	0	1.31388e-05	-1.01908	0.00647687	-2.61504	152.524	152.366	6.95896	-43.4415	337.293	244.901	231.928	0.00156379	0.00380184	0.00411089	67.6414	2.81083e+07	1.15616e+07	3.03932e+07	-22.3586	0.0000000E+000	0.0000000E+000	0.0000000E+000	22.3586	0.0000000E+000	0.0000000E+000	0.0000000E+000	-22.3586	0.0000000E+000	0.0000000E+000	0.0000000E+000	-67.6414	0.0000000E+000	0.0000000E+000	0.0000000E+000	67.6414	0.411325	22.3586	1.67768e-05	-1.85692e-09	2.28743e-07	-3.43517e-07	5.7226e-07	1.69767	2.01312e+06	3.02323e+06	5.03635e+06
0.0146812	128.201	314.208	339.356	-67.8038	2308.63	0.678589	0.000399812	34501.8	29577.8	1	13	0.0103288	3.04364e-05	0	6.95338e-05	-1.01933	0.00463296	-3.51077	152.218	151.932	9.32125	-49.1118	427.956	280.134	323.529	0.00111322	0.00272839	0.00294676	67.8038	2.95778e+07	1.20682e+07	3.19451e+07	-22.1962	0.0000000E+000	0.0000000E+000	0.0000000E+000	22.1962	0.0000000E+000	0.0000000E+000	0.0000000E+000	-22.1962	0.0000000E+000	0.0000000E+000	0.0000000E+000	-67.8038	0.0000000E+000	0.0000000E+000	0.0000000E+000	67.8038	0.408014	22.1962	5.6395e-05	-9.82728e-09	2.71308e-07	-4.0754e-07	6.78848e-07	1.69792	1.69727e+06	2.54953e+06	4.2468e+06
0.0100092	190.277	429.941	470.165	-66.1275	2518.82	0.678594	0.000496711	36983.9	30926.5	1	13	0.0103294	2.19697e-05	0	0.000158432	-1.01761	0.00350925	-8.04926	159.731	158.157	22.3663	-52.3912	570.954	348.435	452.307	0.00086077	0.00194495	0.00212691	66.1275	3.09265e+07	1.3687e+07	3.38199e+07	-23.8725	0.0000000E+000	0.0000000E+000	0.0000000E+000	23.8725	0.0000000E+000	0.0000000E+000	0.0000000E+000	-23.8725	0.0000000E+000	0.0000000E+000	0.0000000E+000	-66.1275	0.0000000E+000	0.0000000E+000	0.0000000E+000	66.1275	0.442566	23.8725	8.88981e-05	-2.23913e-08	3.37065e-07	-5.05459e-07	8.42524e-07	1.69621	1.36618e+06	2.0487e+06	3.41488e+06